tMillis,ax,ay,az,gx,gy,gz
686338,-0.0264892578125,-0.985595703125,0.1597900390625,0.7324218153953552,-0.2441406100988388,0.3662109076976776
686354,-0.0274658203125,-0.9874267578125,0.158935546875,0.7324218153953552,-0.2441406100988388,0.30517578125
686370,-0.0272216796875,-0.9879150390625,0.1597900390625,0.6713866591453552,-0.2441406100988388,0.30517578125
686387,-0.0267333984375,-0.9853515625,0.16015625,0.6713866591453552,-0.2441406100988388,0.30517578125
686403,-0.0269775390625,-0.985107421875,0.1607666015625,0.6713866591453552,-0.2441406100988388,0.3662109076976776
686435,-0.026611328125,-0.985595703125,0.1602783203125,0.7324218153953552,-0.2441406100988388,0.2441406100988388
686451,-0.0262451171875,-0.9859619140625,0.160400390625,0.7324218153953552,-0.2441406100988388,0.30517578125
686501,-0.02685546875,-0.9832763671875,0.16064453125,0.6713866591453552,-0.2441406100988388,0.30517578125
686523,-0.0274658203125,-0.988037109375,0.1597900390625,0.6713866591453552,-0.2441406100988388,0.2441406100988388
686539,-0.0272216796875,-0.9873046875,0.16015625,0.7324218153953552,-0.30517578125,0.2441406100988388
686556,-0.02734375,-0.984375,0.1602783203125,0.7934569716453552,-0.2441406100988388,0.30517578125
686573,-0.0281982421875,-0.9869384765625,0.16064453125,0.6713866591453552,-0.30517578125,0.30517578125
686589,-0.0272216796875,-0.9862060546875,0.1611328125,0.6713866591453552,-0.30517578125,0.30517578125
686606,-0.025390625,-0.985107421875,0.1602783203125,0.6103515625,-0.3662109076976776,0.30517578125
686626,-0.02734375,-0.987548828125,0.1602783203125,0.6713866591453552,-0.2441406100988388,0.2441406100988388
686642,-0.0267333984375,-0.985107421875,0.1602783203125,0.6713866591453552,-0.2441406100988388,0.30517578125
686658,-0.026611328125,-0.985107421875,0.160400390625,0.6713866591453552,-0.30517578125,0.30517578125
686674,-0.0272216796875,-0.9864501953125,0.160888671875,0.7324218153953552,-0.30517578125,0.30517578125
686690,-0.0260009765625,-0.985595703125,0.1612548828125,0.7324218153953552,-0.2441406100988388,0.30517578125
686706,-0.02490234375,-0.9862060546875,0.160400390625,0.7324218153953552,-0.30517578125,0.30517578125
686739,-0.028564453125,-0.9852294921875,0.15966796875,0.7324218153953552,-0.30517578125,0.2441406100988388
686760,-0.0274658203125,-0.9847412109375,0.16015625,0.6713866591453552,-0.2441406100988388,0.30517578125
686776,-0.0267333984375,-0.9830322265625,0.159912109375,0.6713866591453552,-0.2441406100988388,0.30517578125
686793,-0.02734375,-0.9854736328125,0.1610107421875,0.7324218153953552,-0.1831054538488388,0.30517578125
686810,-0.027099609375,-0.9888916015625,0.161865234375,0.7324218153953552,-0.2441406100988388,0.30517578125
686826,-0.0281982421875,-0.991943359375,0.1611328125,0.7934569716453552,-0.30517578125,0.30517578125
686864,-0.0267333984375,-0.9814453125,0.15966796875,0.7324218153953552,-0.30517578125,0.30517578125
686880,-0.0274658203125,-0.9886474609375,0.161376953125,0.6713866591453552,-0.3662109076976776,0.30517578125
686896,-0.02783203125,-0.982421875,0.1605224609375,0.7324218153953552,-0.3662109076976776,0.2441406100988388
686912,-0.028076171875,-0.982421875,0.1597900390625,0.7324218153953552,-0.2441406100988388,0.2441406100988388
686934,-0.027587890625,-0.9881591796875,0.1595458984375,0.7324218153953552,-0.2441406100988388,0.30517578125
686950,-0.02685546875,-0.984619140625,0.1595458984375,0.6713866591453552,-0.2441406100988388,0.2441406100988388
686967,-0.0274658203125,-0.9837646484375,0.159912109375,0.6713866591453552,-0.2441406100988388,0.30517578125
687050,-0.0277099609375,-0.9833984375,0.1593017578125,0.6713866591453552,-0.2441406100988388,0.2441406100988388
687112,-0.02783203125,-0.98974609375,0.1600341796875,0.6713866591453552,-0.2441406100988388,0.2441406100988388
687129,-0.026123046875,-0.9840087890625,0.1588134765625,0.6713866591453552,-0.30517578125,0.30517578125
687146,-0.026611328125,-0.9822998046875,0.159912109375,0.7324218153953552,-0.2441406100988388,0.3662109076976776
687163,-0.02734375,-0.9873046875,0.16162109375,0.7324218153953552,-0.30517578125,0.30517578125
687179,-0.0267333984375,-0.9822998046875,0.1600341796875,0.6103515625,-0.30517578125,0.30517578125
687212,-0.0286865234375,-0.9888916015625,0.1605224609375,0.6713866591453552,-0.30517578125,0.2441406100988388
687260,-0.0255126953125,-0.986328125,0.159423828125,0.6713866591453552,-0.2441406100988388,0.2441406100988388
687291,-0.02880859375,-0.9866943359375,0.16015625,0.7324218153953552,-0.30517578125,0.30517578125
687311,-0.0281982421875,-0.9873046875,0.159912109375,0.7324218153953552,-0.2441406100988388,0.30517578125
687328,-0.02685546875,-0.9840087890625,0.1591796875,0.7324218153953552,-0.30517578125,0.30517578125
687344,-0.0279541015625,-0.986083984375,0.160400390625,0.6713866591453552,-0.2441406100988388,0.2441406100988388
687365,-0.0274658203125,-0.985107421875,0.1605224609375,0.6713866591453552,-0.30517578125,0.30517578125
687397,-0.0272216796875,-0.9854736328125,0.1602783203125,0.6713866591453552,-0.2441406100988388,0.3662109076976776
687445,-0.02734375,-0.9854736328125,0.15869140625,0.6713866591453552,-0.30517578125,0.2441406100988388
687467,-0.0272216796875,-0.986328125,0.159423828125,0.6713866591453552,-0.30517578125,0.30517578125
687484,-0.026611328125,-0.98583984375,0.159423828125,0.7324218153953552,-0.30517578125,0.30517578125
687517,-0.0269775390625,-0.9849853515625,0.1607666015625,0.6713866591453552,-0.30517578125,0.30517578125
687534,-0.0264892578125,-0.982421875,0.16015625,0.7324218153953552,-0.3662109076976776,0.3662109076976776
687551,-0.02685546875,-0.9884033203125,0.160888671875,0.7324218153953552,-0.2441406100988388,0.30517578125
687567,-0.0274658203125,-0.9908447265625,0.160400390625,0.7324218153953552,-0.2441406100988388,0.30517578125
687586,-0.0272216796875,-0.986083984375,0.1593017578125,0.7324218153953552,-0.30517578125,0.3662109076976776
687607,-0.0260009765625,-0.9859619140625,0.1597900390625,0.6713866591453552,-0.2441406100988388,0.30517578125
687623,-0.026611328125,-0.9840087890625,0.1591796875,0.6713866591453552,-0.2441406100988388,0.2441406100988388
687640,-0.0281982421875,-0.98388671875,0.1605224609375,0.6713866591453552,-0.30517578125,0.30517578125
687657,-0.028076171875,-0.9852294921875,0.1611328125,0.6713866591453552,-0.30517578125,0.30517578125
687690,-0.027099609375,-0.983642578125,0.1588134765625,0.7324218153953552,-0.2441406100988388,0.2441406100988388
687708,-0.0263671875,-0.983642578125,0.159423828125,0.7324218153953552,-0.2441406100988388,0.30517578125
687724,-0.0267333984375,-0.9853515625,0.15966796875,0.7324218153953552,-0.2441406100988388,0.30517578125
687756,-0.0277099609375,-0.9876708984375,0.1602783203125,0.7324218153953552,-0.3662109076976776,0.4272460639476776
687820,-0.0263671875,-0.9847412109375,0.1591796875,0.6713866591453552,-0.3662109076976776,0.30517578125
687836,-0.0272216796875,-0.986083984375,0.15869140625,0.6713866591453552,-0.30517578125,0.3662109076976776
687852,-0.0281982421875,-0.98486328125,0.159912109375,0.7324218153953552,-0.30517578125,0.3662109076976776
687868,-0.027587890625,-0.9849853515625,0.1602783203125,0.7324218153953552,-0.30517578125,0.30517578125
687890,-0.026611328125,-0.9862060546875,0.160888671875,0.6713866591453552,-0.30517578125,0.2441406100988388
687906,-0.027099609375,-0.985107421875,0.160400390625,0.6713866591453552,-0.30517578125,0.30517578125
687923,-0.02734375,-0.9853515625,0.15869140625,0.7324218153953552,-0.2441406100988388,0.30517578125
687989,-0.026611328125,-0.98681640625,0.1600341796875,0.6713866591453552,-0.2441406100988388,0.2441406100988388
688066,-0.02685546875,-0.9862060546875,0.1600341796875,0.6713866591453552,-0.2441406100988388,0.30517578125
688083,-0.0281982421875,-0.9864501953125,0.1602783203125,0.6713866591453552,-0.30517578125,0.30517578125
688116,-0.02587890625,-0.98583984375,0.16064453125,0.7324218153953552,-0.30517578125,0.30517578125
688133,-0.0267333984375,-0.9857177734375,0.1605224609375,0.7324218153953552,-0.2441406100988388,0.30517578125
688149,-0.02783203125,-0.9859619140625,0.1602783203125,0.7324218153953552,-0.2441406100988388,0.30517578125
688166,-0.0272216796875,-0.986083984375,0.159912109375,0.7324218153953552,-0.30517578125,0.30517578125
688191,-0.026611328125,-0.9854736328125,0.1600341796875,0.7324218153953552,-0.30517578125,0.2441406100988388
688207,-0.027099609375,-0.9857177734375,0.160400390625,0.7934569716453552,-0.30517578125,0.3662109076976776
688224,-0.0269775390625,-0.985595703125,0.1614990234375,0.7324218153953552,-0.2441406100988388,0.3662109076976776
688241,-0.0269775390625,-0.9857177734375,0.1612548828125,0.7324218153953552,-0.2441406100988388,0.3662109076976776
688257,-0.0269775390625,-0.984375,0.1597900390625,0.7324218153953552,-0.3662109076976776,0.30517578125
688291,-0.0272216796875,-0.986572265625,0.160400390625,0.7324218153953552,-0.30517578125,0.2441406100988388
688308,-0.0269775390625,-0.985595703125,0.1602783203125,0.6713866591453552,-0.2441406100988388,0.30517578125
688329,-0.0260009765625,-0.9862060546875,0.1610107421875,0.6713866591453552,-0.2441406100988388,0.3662109076976776
688345,-0.026611328125,-0.9857177734375,0.159912109375,0.6713866591453552,-0.30517578125,0.30517578125
688412,-0.0269775390625,-0.9852294921875,0.16064453125,0.6713866591453552,-0.30517578125,0.30517578125
688428,-0.0274658203125,-0.984130859375,0.1591796875,0.6713866591453552,-0.30517578125,0.30517578125
688445,-0.0283203125,-0.986572265625,0.1600341796875,0.7324218153953552,-0.2441406100988388,0.30517578125
688477,-0.0262451171875,-0.9866943359375,0.160400390625,0.6713866591453552,-0.2441406100988388,0.3662109076976776
688493,-0.02685546875,-0.986328125,0.1605224609375,0.6713866591453552,-0.2441406100988388,0.3662109076976776
688509,-0.0264892578125,-0.9849853515625,0.16015625,0.7324218153953552,-0.30517578125,0.3662109076976776
688525,-0.0262451171875,-0.985595703125,0.1602783203125,0.7324218153953552,-0.30517578125,0.30517578125
688545,-0.027587890625,-0.985107421875,0.16064453125,0.6713866591453552,-0.2441406100988388,0.30517578125
688567,-0.0277099609375,-0.9871826171875,0.1607666015625,0.6713866591453552,-0.30517578125,0.30517578125
688583,-0.027587890625,-0.9898681640625,0.162841796875,0.6713866591453552,-0.30517578125,0.2441406100988388
688600,-0.027099609375,-0.9859619140625,0.1622314453125,0.7324218153953552,-0.30517578125,0.2441406100988388
688617,-0.0267333984375,-0.984619140625,0.16162109375,0.6713866591453552,-0.30517578125,0.30517578125
688650,-0.0264892578125,-0.9854736328125,0.1593017578125,0.7324218153953552,-0.2441406100988388,0.3662109076976776
688667,-0.0274658203125,-0.986083984375,0.1605224609375,0.6713866591453552,-0.2441406100988388,0.30517578125
688683,-0.0269775390625,-0.986572265625,0.1600341796875,0.7324218153953552,-0.2441406100988388,0.30517578125
688747,-0.0274658203125,-0.9864501953125,0.1607666015625,0.6713866591453552,-0.30517578125,0.30517578125
688789,-0.0262451171875,-0.984130859375,0.1602783203125,0.6713866591453552,-0.2441406100988388,0.30517578125
688810,-0.026611328125,-0.9869384765625,0.1607666015625,0.6713866591453552,-0.2441406100988388,0.3662109076976776
688827,-0.0286865234375,-0.986572265625,0.160400390625,0.7324218153953552,-0.2441406100988388,0.3662109076976776
688843,-0.0274658203125,-0.9857177734375,0.1607666015625,0.7934569716453552,-0.2441406100988388,0.30517578125
688864,-0.0260009765625,-0.9840087890625,0.160400390625,0.7324218153953552,-0.2441406100988388,0.30517578125
688884,-0.02783203125,-0.988037109375,0.1593017578125,0.6713866591453552,-0.30517578125,0.30517578125
688904,-0.0279541015625,-0.984375,0.1593017578125,0.6713866591453552,-0.2441406100988388,0.2441406100988388
688921,-0.02685546875,-0.985107421875,0.1600341796875,0.6713866591453552,-0.1831054538488388,0.2441406100988388
688937,-0.0262451171875,-0.9892578125,0.1610107421875,0.7324218153953552,-0.2441406100988388,0.30517578125
688953,-0.0277099609375,-0.9873046875,0.16064453125,0.7324218153953552,-0.2441406100988388,0.30517578125
688969,-0.028076171875,-0.984619140625,0.1602783203125,0.7324218153953552,-0.2441406100988388,0.30517578125
688985,-0.0272216796875,-0.9862060546875,0.15966796875,0.7324218153953552,-0.1831054538488388,0.2441406100988388
689017,-0.025390625,-0.9840087890625,0.16064453125,0.7324218153953552,-0.2441406100988388,0.30517578125
689033,-0.0284423828125,-0.9849853515625,0.1593017578125,0.7324218153953552,-0.30517578125,0.3662109076976776
689049,-0.0283203125,-0.9859619140625,0.159423828125,0.7324218153953552,-0.30517578125,0.3662109076976776
689065,-0.0260009765625,-0.98583984375,0.159423828125,0.6713866591453552,-0.30517578125,0.30517578125
689085,-0.0263671875,-0.9842529296875,0.160400390625,0.6713866591453552,-0.2441406100988388,0.30517578125
689122,-0.0263671875,-0.984619140625,0.160888671875,0.7324218153953552,-0.2441406100988388,0.2441406100988388
689143,-0.0272216796875,-0.9859619140625,0.160400390625,0.6713866591453552,-0.2441406100988388,0.30517578125
689159,-0.0272216796875,-0.988525390625,0.1591796875,0.6713866591453552,-0.1831054538488388,0.30517578125
689176,-0.0281982421875,-0.98291015625,0.159912109375,0.7324218153953552,-0.3662109076976776,0.3662109076976776
689193,-0.0284423828125,-0.9879150390625,0.1602783203125,0.6713866591453552,-0.30517578125,0.30517578125
689209,-0.0262451171875,-0.986328125,0.16015625,0.6713866591453552,-0.2441406100988388,0.2441406100988388
689225,-0.0272216796875,-0.9832763671875,0.160400390625,0.7324218153953552,-0.2441406100988388,0.30517578125
689257,-0.0267333984375,-0.984375,0.16015625,0.6713866591453552,-0.2441406100988388,0.2441406100988388
689273,-0.0274658203125,-0.9818115234375,0.159912109375,0.7324218153953552,-0.2441406100988388,0.30517578125
689289,-0.0264892578125,-0.9891357421875,0.1605224609375,0.7324218153953552,-0.30517578125,0.30517578125
689305,-0.0272216796875,-0.982177734375,0.1590576171875,0.7324218153953552,-0.30517578125,0.30517578125
689326,-0.0281982421875,-0.9876708984375,0.1600341796875,0.7324218153953552,-0.2441406100988388,0.4272460639476776
689347,-0.0264892578125,-0.989013671875,0.1597900390625,0.7324218153953552,-0.30517578125,0.3662109076976776
689363,-0.0272216796875,-0.983154296875,0.159423828125,0.6713866591453552,-0.2441406100988388,0.30517578125
689380,-0.0281982421875,-0.989013671875,0.16015625,0.7324218153953552,-0.2441406100988388,0.30517578125
689397,-0.0267333984375,-0.9827880859375,0.1593017578125,0.7324218153953552,-0.2441406100988388,0.30517578125
689430,-0.02734375,-0.988525390625,0.1591796875,0.6713866591453552,-0.3662109076976776,0.30517578125
689447,-0.027587890625,-0.98193359375,0.1591796875,0.6713866591453552,-0.2441406100988388,0.3662109076976776
689463,-0.0289306640625,-0.9854736328125,0.159912109375,0.7324218153953552,-0.2441406100988388,0.30517578125
689495,-0.0267333984375,-0.9857177734375,0.16015625,0.7324218153953552,-0.30517578125,0.30517578125
689516,-0.0274658203125,-0.987060546875,0.1605224609375,0.6713866591453552,-0.1831054538488388,0.3662109076976776
689532,-0.02734375,-0.98486328125,0.159423828125,0.7324218153953552,-0.1831054538488388,0.30517578125
689549,-0.027587890625,-0.9853515625,0.1591796875,0.7324218153953552,-0.1831054538488388,0.30517578125
689566,-0.026123046875,-0.9866943359375,0.158935546875,0.7324218153953552,-0.1831054538488388,0.30517578125
689582,-0.0264892578125,-0.98779296875,0.1605224609375,0.7324218153953552,-0.2441406100988388,0.30517578125
689615,-0.027587890625,-0.984619140625,0.160888671875,0.6713866591453552,-0.30517578125,0.3662109076976776
689637,-0.0263671875,-0.9869384765625,0.16162109375,0.7324218153953552,-0.2441406100988388,0.2441406100988388
689653,-0.0272216796875,-0.986572265625,0.1607666015625,0.7324218153953552,-0.30517578125,0.2441406100988388
689670,-0.0272216796875,-0.986083984375,0.1611328125,0.6713866591453552,-0.30517578125,0.30517578125
689687,-0.02685546875,-0.982666015625,0.1607666015625,0.7324218153953552,-0.2441406100988388,0.3662109076976776
689703,-0.0262451171875,-0.9849853515625,0.1610107421875,0.7324218153953552,-0.2441406100988388,0.30517578125
689736,-0.0283203125,-0.9849853515625,0.1593017578125,0.7324218153953552,-0.30517578125,0.30517578125
689757,-0.02734375,-0.98583984375,0.15966796875,0.7324218153953552,-0.30517578125,0.30517578125
689777,-0.025390625,-0.9866943359375,0.1600341796875,0.7324218153953552,-0.30517578125,0.30517578125
689794,-0.0262451171875,-0.9853515625,0.16015625,0.7324218153953552,-0.30517578125,0.30517578125
689819,-0.0283203125,-0.9866943359375,0.1605224609375,0.6713866591453552,-0.2441406100988388,0.30517578125
689839,-0.0274658203125,-0.9852294921875,0.1590576171875,0.6713866591453552,-0.1831054538488388,0.2441406100988388
689855,-0.027587890625,-0.9849853515625,0.16015625,0.6713866591453552,-0.30517578125,0.30517578125
689871,-0.0257568359375,-0.9857177734375,0.159912109375,0.7324218153953552,-0.30517578125,0.30517578125
689888,-0.02685546875,-0.9859619140625,0.1602783203125,0.7324218153953552,-0.30517578125,0.30517578125
689904,-0.027587890625,-0.9857177734375,0.1597900390625,0.7324218153953552,-0.2441406100988388,0.30517578125
689925,-0.0272216796875,-0.984375,0.1593017578125,0.7324218153953552,-0.30517578125,0.3662109076976776
689941,-0.026611328125,-0.9859619140625,0.1593017578125,0.7324218153953552,-0.30517578125,0.30517578125
689957,-0.028564453125,-0.985595703125,0.160888671875,0.7324218153953552,-0.30517578125,0.2441406100988388
689973,-0.0286865234375,-0.9857177734375,0.1607666015625,0.7324218153953552,-0.30517578125,0.30517578125
689989,-0.02783203125,-0.986572265625,0.160400390625,0.7324218153953552,-0.2441406100988388,0.3662109076976776
690005,-0.0269775390625,-0.9859619140625,0.160888671875,0.7324218153953552,-0.2441406100988388,0.3662109076976776
690037,-0.0281982421875,-0.9866943359375,0.1600341796875,0.7324218153953552,-0.2441406100988388,0.30517578125
690053,-0.0277099609375,-0.9866943359375,0.159423828125,0.7324218153953552,-0.2441406100988388,0.30517578125
690069,-0.0263671875,-0.9859619140625,0.1595458984375,0.6713866591453552,-0.2441406100988388,0.3662109076976776
690085,-0.0263671875,-0.9852294921875,0.1602783203125,0.6713866591453552,-0.30517578125,0.30517578125
690105,-0.027587890625,-0.9844970703125,0.1588134765625,0.7324218153953552,-0.30517578125,0.30517578125
690121,-0.0289306640625,-0.984619140625,0.159423828125,0.7324218153953552,-0.30517578125,0.3662109076976776
690153,-0.0269775390625,-0.988037109375,0.1595458984375,0.7324218153953552,-0.30517578125,0.30517578125
690215,-0.0263671875,-0.986083984375,0.159912109375,0.7324218153953552,-0.30517578125,0.3662109076976776
690237,-0.0267333984375,-0.9854736328125,0.1600341796875,0.7324218153953552,-0.30517578125,0.30517578125
690253,-0.02734375,-0.989013671875,0.16064453125,0.7324218153953552,-0.30517578125,0.30517578125
690270,-0.0263671875,-0.9820556640625,0.16015625,0.6713866591453552,-0.2441406100988388,0.30517578125
690287,-0.027099609375,-0.9798583984375,0.1600341796875,0.7324218153953552,-0.30517578125,0.30517578125
690303,-0.02783203125,-0.9874267578125,0.160400390625,0.6713866591453552,-0.3662109076976776,0.2441406100988388
690336,-0.0274658203125,-0.9859619140625,0.16064453125,0.6713866591453552,-0.30517578125,0.30517578125
690353,-0.0279541015625,-0.983642578125,0.15966796875,0.6713866591453552,-0.2441406100988388,0.30517578125
690369,-0.0272216796875,-0.98583984375,0.15966796875,0.7324218153953552,-0.2441406100988388,0.30517578125
690385,-0.02685546875,-0.987060546875,0.1597900390625,0.7934569716453552,-0.2441406100988388,0.30517578125
690405,-0.0267333984375,-0.984130859375,0.1602783203125,0.7324218153953552,-0.30517578125,0.2441406100988388
690427,-0.0272216796875,-0.986328125,0.159912109375,0.7324218153953552,-0.30517578125,0.30517578125
690443,-0.0277099609375,-0.985107421875,0.16064453125,0.7324218153953552,-0.30517578125,0.3662109076976776
690460,-0.027587890625,-0.985107421875,0.1605224609375,0.7324218153953552,-0.2441406100988388,0.30517578125
690477,-0.027587890625,-0.986083984375,0.159912109375,0.6713866591453552,-0.2441406100988388,0.30517578125
690510,-0.0272216796875,-0.9852294921875,0.1607666015625,0.7324218153953552,-0.30517578125,0.30517578125
690527,-0.0272216796875,-0.9854736328125,0.1610107421875,0.6713866591453552,-0.2441406100988388,0.2441406100988388
690543,-0.0260009765625,-0.9859619140625,0.1595458984375,0.7324218153953552,-0.2441406100988388,0.30517578125
690575,-0.02783203125,-0.986572265625,0.1595458984375,0.7324218153953552,-0.30517578125,0.3662109076976776
690591,-0.026611328125,-0.986083984375,0.15966796875,0.6713866591453552,-0.2441406100988388,0.30517578125
690607,-0.0272216796875,-0.986328125,0.1590576171875,0.7324218153953552,-0.2441406100988388,0.30517578125
690639,-0.02783203125,-0.986083984375,0.1593017578125,0.7324218153953552,-0.30517578125,0.30517578125
690655,-0.0281982421875,-0.986083984375,0.158935546875,0.7324218153953552,-0.2441406100988388,0.2441406100988388
690671,-0.028076171875,-0.98486328125,0.1597900390625,0.6713866591453552,-0.30517578125,0.30517578125
690687,-0.027587890625,-0.9852294921875,0.1593017578125,0.6103515625,-0.30517578125,0.3662109076976776
690707,-0.026611328125,-0.984619140625,0.1590576171875,0.6713866591453552,-0.30517578125,0.2441406100988388
690723,-0.0269775390625,-0.9864501953125,0.1600341796875,0.6713866591453552,-0.30517578125,0.30517578125
690739,-0.028076171875,-0.9852294921875,0.1602783203125,0.6713866591453552,-0.30517578125,0.3662109076976776
690756,-0.0283203125,-0.9852294921875,0.1602783203125,0.6713866591453552,-0.30517578125,0.4272460639476776
690777,-0.027099609375,-0.9859619140625,0.159912109375,0.6713866591453552,-0.30517578125,0.30517578125
690793,-0.027099609375,-0.98583984375,0.159423828125,0.7324218153953552,-0.30517578125,0.30517578125
690810,-0.02734375,-0.9864501953125,0.1597900390625,0.7324218153953552,-0.30517578125,0.3662109076976776
690827,-0.027587890625,-0.9818115234375,0.1600341796875,0.7324218153953552,-0.30517578125,0.30517578125
690843,-0.0274658203125,-0.98779296875,0.1607666015625,0.6713866591453552,-0.2441406100988388,0.30517578125
690877,-0.0255126953125,-0.9833984375,0.1600341796875,0.7324218153953552,-0.30517578125,0.3662109076976776
690893,-0.0264892578125,-0.989013671875,0.16064453125,0.7324218153953552,-0.30517578125,0.30517578125
690909,-0.0264892578125,-0.987060546875,0.1597900390625,0.7324218153953552,-0.30517578125,0.30517578125
690925,-0.026611328125,-0.9849853515625,0.158447265625,0.7324218153953552,-0.30517578125,0.30517578125
690996,-0.0269775390625,-0.986572265625,0.16015625,0.7324218153953552,-0.30517578125,0.30517578125
691013,-0.026611328125,-0.984619140625,0.159423828125,0.7324218153953552,-0.30517578125,0.30517578125
691029,-0.0274658203125,-0.9852294921875,0.1593017578125,0.6713866591453552,-0.30517578125,0.3662109076976776
691046,-0.027099609375,-0.9866943359375,0.1593017578125,0.6103515625,-0.30517578125,0.30517578125
691095,-0.027587890625,-0.985595703125,0.16162109375,0.6713866591453552,-0.30517578125,0.2441406100988388
691131,-0.0262451171875,-0.9853515625,0.1591796875,0.6713866591453552,-0.30517578125,0.30517578125
691147,-0.0274658203125,-0.9857177734375,0.159423828125,0.6713866591453552,-0.1831054538488388,0.2441406100988388
691168,-0.0279541015625,-0.987060546875,0.1610107421875,0.6713866591453552,-0.30517578125,0.30517578125
691185,-0.0272216796875,-0.9859619140625,0.160888671875,0.7324218153953552,-0.30517578125,0.30517578125
691205,-0.027587890625,-0.984130859375,0.1600341796875,0.6713866591453552,-0.30517578125,0.3662109076976776
691226,-0.0269775390625,-0.985595703125,0.15966796875,0.6713866591453552,-0.30517578125,0.30517578125
691246,-0.02783203125,-0.9873046875,0.1595458984375,0.6713866591453552,-0.2441406100988388,0.30517578125
691267,-0.0272216796875,-0.98388671875,0.1610107421875,0.7324218153953552,-0.2441406100988388,0.30517578125
691287,-0.0262451171875,-0.9862060546875,0.160400390625,0.6713866591453552,-0.2441406100988388,0.3662109076976776
691304,-0.0286865234375,-0.9849853515625,0.1612548828125,0.6713866591453552,-0.2441406100988388,0.3662109076976776
691325,-0.0301513671875,-0.9859619140625,0.1611328125,0.6713866591453552,-0.2441406100988388,0.30517578125
691341,-0.02685546875,-0.984375,0.1588134765625,0.7324218153953552,-0.2441406100988388,0.30517578125
691362,-0.0257568359375,-0.9876708984375,0.15966796875,0.6713866591453552,-0.1831054538488388,0.2441406100988388
691379,-0.0277099609375,-0.9859619140625,0.15966796875,0.7324218153953552,-0.2441406100988388,0.30517578125
691395,-0.0283203125,-0.9840087890625,0.16015625,0.7324218153953552,-0.30517578125,0.3662109076976776
691412,-0.0269775390625,-0.986083984375,0.160400390625,0.6713866591453552,-0.2441406100988388,0.3662109076976776
691429,-0.0257568359375,-0.985107421875,0.16064453125,0.7324218153953552,-0.2441406100988388,0.3662109076976776
691445,-0.0283203125,-0.9864501953125,0.160400390625,0.7324218153953552,-0.30517578125,0.30517578125
691475,-0.0264892578125,-0.98681640625,0.15966796875,0.7324218153953552,-0.30517578125,0.3662109076976776
691496,-0.0262451171875,-0.9854736328125,0.1590576171875,0.7324218153953552,-0.2441406100988388,0.30517578125
691512,-0.0272216796875,-0.9859619140625,0.1590576171875,0.6713866591453552,-0.2441406100988388,0.30517578125
691529,-0.0284423828125,-0.982421875,0.1593017578125,0.7324218153953552,-0.30517578125,0.30517578125
691546,-0.0272216796875,-0.9849853515625,0.1614990234375,0.7934569716453552,-0.30517578125,0.30517578125
691562,-0.026123046875,-0.988037109375,0.1602783203125,0.7324218153953552,-0.2441406100988388,0.30517578125
691596,-0.0286865234375,-0.9879150390625,0.1607666015625,0.7324218153953552,-0.1831054538488388,0.30517578125
691664,-0.0279541015625,-0.9827880859375,0.15966796875,0.6713866591453552,-0.30517578125,0.3662109076976776
691680,-0.0274658203125,-0.9854736328125,0.1591796875,0.6713866591453552,-0.30517578125,0.30517578125
691696,-0.0262451171875,-0.9859619140625,0.1588134765625,0.7324218153953552,-0.2441406100988388,0.30517578125
691712,-0.02783203125,-0.9862060546875,0.15869140625,0.7324218153953552,-0.2441406100988388,0.2441406100988388
691729,-0.0283203125,-0.9888916015625,0.1593017578125,0.6713866591453552,-0.2441406100988388,0.2441406100988388
691750,-0.0267333984375,-0.9825439453125,0.1590576171875,0.7324218153953552,-0.30517578125,0.30517578125
691766,-0.0267333984375,-0.9874267578125,0.1595458984375,0.7324218153953552,-0.30517578125,0.30517578125
691783,-0.0274658203125,-0.9876708984375,0.159912109375,0.6713866591453552,-0.2441406100988388,0.2441406100988388
691800,-0.0279541015625,-0.9835205078125,0.16015625,0.6713866591453552,-0.30517578125,0.30517578125
691833,-0.02587890625,-0.9822998046875,0.15966796875,0.6713866591453552,-0.2441406100988388,0.30517578125
691850,-0.0264892578125,-0.9853515625,0.1602783203125,0.7324218153953552,-0.2441406100988388,0.30517578125
691866,-0.028076171875,-0.988525390625,0.160888671875,0.6713866591453552,-0.30517578125,0.30517578125
691898,-0.02783203125,-0.986572265625,0.158203125,0.7324218153953552,-0.2441406100988388,0.30517578125
691914,-0.0269775390625,-0.98486328125,0.160400390625,0.7324218153953552,-0.30517578125,0.30517578125
691930,-0.0267333984375,-0.98193359375,0.160400390625,0.7324218153953552,-0.2441406100988388,0.30517578125
691946,-0.02783203125,-0.986328125,0.160400390625,0.7324218153953552,-0.30517578125,0.3662109076976776
692017,-0.0264892578125,-0.9854736328125,0.1605224609375,0.7324218153953552,-0.2441406100988388,0.30517578125
692092,-0.027587890625,-0.986083984375,0.1591796875,0.7324218153953552,-0.2441406100988388,0.30517578125
692109,-0.0262451171875,-0.98583984375,0.1593017578125,0.7934569716453552,-0.2441406100988388,0.3662109076976776
692126,-0.0274658203125,-0.986572265625,0.16064453125,0.7324218153953552,-0.30517578125,0.30517578125
692142,-0.0274658203125,-0.9859619140625,0.1607666015625,0.7324218153953552,-0.2441406100988388,0.30517578125
692159,-0.0272216796875,-0.9847412109375,0.15966796875,0.7324218153953552,-0.1831054538488388,0.30517578125
692192,-0.026123046875,-0.986572265625,0.1591796875,0.7324218153953552,-0.30517578125,0.30517578125
692209,-0.026611328125,-0.9864501953125,0.1591796875,0.6713866591453552,-0.2441406100988388,0.30517578125
692230,-0.02734375,-0.98583984375,0.15966796875,0.6713866591453552,-0.2441406100988388,0.30517578125
692246,-0.0284423828125,-0.987060546875,0.1610107421875,0.6713866591453552,-0.30517578125,0.30517578125
692309,-0.0274658203125,-0.9854736328125,0.16015625,0.7324218153953552,-0.2441406100988388,0.30517578125
692328,-0.0269775390625,-0.9869384765625,0.1591796875,0.7324218153953552,-0.2441406100988388,0.30517578125
692344,-0.02734375,-0.987548828125,0.159912109375,0.7324218153953552,-0.30517578125,0.30517578125
692375,-0.0281982421875,-0.9869384765625,0.16064453125,0.6103515625,-0.1831054538488388,0.30517578125
692396,-0.0279541015625,-0.986328125,0.1611328125,0.6713866591453552,-0.2441406100988388,0.30517578125
692412,-0.028076171875,-0.9852294921875,0.158935546875,0.7934569716453552,-0.2441406100988388,0.30517578125
692429,-0.0269775390625,-0.9857177734375,0.1591796875,0.7324218153953552,-0.2441406100988388,0.30517578125
692446,-0.02685546875,-0.986328125,0.159423828125,0.6713866591453552,-0.2441406100988388,0.30517578125
692462,-0.02685546875,-0.9873046875,0.1602783203125,0.6713866591453552,-0.2441406100988388,0.30517578125
692493,-0.02783203125,-0.9857177734375,0.1610107421875,0.6713866591453552,-0.2441406100988388,0.30517578125
692510,-0.0277099609375,-0.9854736328125,0.1607666015625,0.6713866591453552,-0.2441406100988388,0.30517578125
692526,-0.0269775390625,-0.9853515625,0.16015625,0.6713866591453552,-0.30517578125,0.3662109076976776
692558,-0.027099609375,-0.9864501953125,0.1605224609375,0.7324218153953552,-0.30517578125,0.30517578125
692574,-0.0267333984375,-0.987060546875,0.1607666015625,0.6713866591453552,-0.30517578125,0.30517578125
692590,-0.027099609375,-0.986572265625,0.1597900390625,0.6713866591453552,-0.30517578125,0.30517578125
692606,-0.0277099609375,-0.9857177734375,0.15966796875,0.7324218153953552,-0.30517578125,0.30517578125
692677,-0.0272216796875,-0.98583984375,0.159912109375,0.7324218153953552,-0.30517578125,0.30517578125
692694,-0.0272216796875,-0.986328125,0.16064453125,0.6713866591453552,-0.1831054538488388,0.30517578125
692714,-0.02734375,-0.9857177734375,0.160400390625,0.6713866591453552,-0.2441406100988388,0.2441406100988388
692735,-0.02783203125,-0.985595703125,0.1600341796875,0.7324218153953552,-0.30517578125,0.30517578125
692751,-0.0281982421875,-0.986572265625,0.159912109375,0.7324218153953552,-0.2441406100988388,0.3662109076976776
692767,-0.028076171875,-0.9862060546875,0.1591796875,0.6713866591453552,-0.2441406100988388,0.30517578125
692804,-0.0260009765625,-0.9869384765625,0.1597900390625,0.6713866591453552,-0.2441406100988388,0.30517578125
692820,-0.0281982421875,-0.98583984375,0.1593017578125,0.6713866591453552,-0.2441406100988388,0.30517578125
692836,-0.0281982421875,-0.9857177734375,0.1597900390625,0.6713866591453552,-0.2441406100988388,0.30517578125
692852,-0.0279541015625,-0.9864501953125,0.15966796875,0.7324218153953552,-0.30517578125,0.30517578125
692869,-0.0277099609375,-0.9854736328125,0.159912109375,0.7324218153953552,-0.30517578125,0.30517578125
692890,-0.0272216796875,-0.9853515625,0.159912109375,0.7324218153953552,-0.30517578125,0.30517578125
692906,-0.02685546875,-0.98486328125,0.1588134765625,0.7324218153953552,-0.2441406100988388,0.30517578125
692923,-0.02734375,-0.985107421875,0.1614990234375,0.7934569716453552,-0.30517578125,0.30517578125
692940,-0.02685546875,-0.9866943359375,0.1595458984375,0.7934569716453552,-0.2441406100988388,0.30517578125
692973,-0.028076171875,-0.984130859375,0.1605224609375,0.7324218153953552,-0.30517578125,0.30517578125
692990,-0.02734375,-0.9840087890625,0.1600341796875,0.6103515625,-0.1831054538488388,0.30517578125
693006,-0.0264892578125,-0.9854736328125,0.16015625,0.6103515625,-0.2441406100988388,0.30517578125
693038,-0.028076171875,-0.985107421875,0.1585693359375,0.7324218153953552,-0.2441406100988388,0.30517578125
693054,-0.02783203125,-0.9854736328125,0.160400390625,0.7324218153953552,-0.2441406100988388,0.2441406100988388
693070,-0.0283203125,-0.9873046875,0.16064453125,0.7324218153953552,-0.2441406100988388,0.30517578125
693086,-0.0274658203125,-0.9873046875,0.1602783203125,0.7324218153953552,-0.2441406100988388,0.30517578125
693156,-0.02685546875,-0.9857177734375,0.16064453125,0.6713866591453552,-0.2441406100988388,0.2441406100988388
693173,-0.0284423828125,-0.985107421875,0.1605224609375,0.6713866591453552,-0.1831054538488388,0.2441406100988388
693190,-0.0274658203125,-0.98583984375,0.15966796875,0.7324218153953552,-0.1831054538488388,0.2441406100988388
693206,-0.02685546875,-0.9847412109375,0.1597900390625,0.7324218153953552,-0.30517578125,0.3662109076976776
693223,-0.02783203125,-0.9830322265625,0.1597900390625,0.7934569716453552,-0.30517578125,0.4272460639476776
693240,-0.0269775390625,-0.986083984375,0.1600341796875,0.6713866591453552,-0.30517578125,0.30517578125
693272,-0.02783203125,-0.9862060546875,0.1595458984375,0.7324218153953552,-0.30517578125,0.30517578125
693289,-0.02734375,-0.986083984375,0.1602783203125,0.7934569716453552,-0.30517578125,0.3662109076976776
693310,-0.02734375,-0.9853515625,0.160400390625,0.7324218153953552,-0.30517578125,0.30517578125
693326,-0.02783203125,-0.9854736328125,0.1597900390625,0.7324218153953552,-0.30517578125,0.3662109076976776
693343,-0.027587890625,-0.986572265625,0.160888671875,0.7324218153953552,-0.30517578125,0.30517578125
693360,-0.027099609375,-0.9849853515625,0.1600341796875,0.7324218153953552,-0.30517578125,0.30517578125
693393,-0.029541015625,-0.986083984375,0.16064453125,0.6713866591453552,-0.30517578125,0.2441406100988388
693410,-0.0264892578125,-0.985107421875,0.159423828125,0.7324218153953552,-0.30517578125,0.3662109076976776
693426,-0.0252685546875,-0.985595703125,0.1593017578125,0.7324218153953552,-0.3662109076976776,0.3662109076976776
693458,-0.0277099609375,-0.985107421875,0.16064453125,0.6103515625,-0.30517578125,0.2441406100988388
693474,-0.0274658203125,-0.9847412109375,0.159912109375,0.7324218153953552,-0.30517578125,0.2441406100988388
693490,-0.0257568359375,-0.9853515625,0.1597900390625,0.7324218153953552,-0.30517578125,0.3662109076976776
693506,-0.0250244140625,-0.985107421875,0.1605224609375,0.6713866591453552,-0.2441406100988388,0.30517578125
693531,-0.0269775390625,-0.986083984375,0.16064453125,0.6713866591453552,-0.1831054538488388,0.30517578125
693547,-0.0289306640625,-0.9859619140625,0.160888671875,0.7934569716453552,-0.30517578125,0.3662109076976776
693564,-0.027099609375,-0.987060546875,0.16064453125,0.7934569716453552,-0.30517578125,0.3662109076976776
693581,-0.0252685546875,-0.984619140625,0.1591796875,0.7934569716453552,-0.2441406100988388,0.30517578125
693598,-0.025390625,-0.9852294921875,0.159912109375,0.6103515625,-0.2441406100988388,0.30517578125
693631,-0.026611328125,-0.9842529296875,0.1597900390625,0.7934569716453552,-0.30517578125,0.3662109076976776
693648,-0.0257568359375,-0.9864501953125,0.16015625,0.7324218153953552,-0.30517578125,0.30517578125
693669,-0.0277099609375,-0.9857177734375,0.160888671875,0.6713866591453552,-0.30517578125,0.2441406100988388
693685,-0.028076171875,-0.984130859375,0.160400390625,0.6713866591453552,-0.30517578125,0.30517578125
693702,-0.0272216796875,-0.987060546875,0.160888671875,0.7324218153953552,-0.30517578125,0.30517578125
693719,-0.026611328125,-0.984619140625,0.1600341796875,0.7934569716453552,-0.2441406100988388,0.3662109076976776
693752,-0.0279541015625,-0.98876953125,0.159912109375,0.6713866591453552,-0.2441406100988388,0.30517578125
693769,-0.0262451171875,-0.9847412109375,0.15966796875,0.7324218153953552,-0.2441406100988388,0.30517578125
693785,-0.0260009765625,-0.9859619140625,0.1605224609375,0.7934569716453552,-0.2441406100988388,0.30517578125
693815,-0.027099609375,-0.98046875,0.1593017578125,0.7324218153953552,-0.30517578125,0.30517578125
693836,-0.02734375,-0.9888916015625,0.16064453125,0.7324218153953552,-0.2441406100988388,0.3662109076976776
693852,-0.02587890625,-0.98388671875,0.158935546875,0.6713866591453552,-0.2441406100988388,0.2441406100988388
693869,-0.0267333984375,-0.9827880859375,0.1595458984375,0.7324218153953552,-0.2441406100988388,0.2441406100988388
693887,-0.02783203125,-0.987548828125,0.161376953125,0.7324218153953552,-0.2441406100988388,0.30517578125
693903,-0.02685546875,-0.9853515625,0.159912109375,0.7324218153953552,-0.2441406100988388,0.30517578125
693934,-0.027099609375,-0.98291015625,0.1602783203125,0.7324218153953552,-0.2441406100988388,0.30517578125
693950,-0.0272216796875,-0.9874267578125,0.160400390625,0.7324218153953552,-0.2441406100988388,0.3662109076976776
693966,-0.0264892578125,-0.9879150390625,0.1605224609375,0.7934569716453552,-0.2441406100988388,0.3662109076976776
693998,-0.0272216796875,-0.9864501953125,0.159912109375,0.6713866591453552,-0.2441406100988388,0.30517578125
694014,-0.02734375,-0.98583984375,0.159912109375,0.6713866591453552,-0.2441406100988388,0.30517578125
694046,-0.0274658203125,-0.9886474609375,0.160400390625,0.7324218153953552,-0.30517578125,0.2441406100988388
694071,-0.0274658203125,-0.9827880859375,0.159912109375,0.7324218153953552,-0.30517578125,0.30517578125
694091,-0.02734375,-0.9881591796875,0.16064453125,0.6713866591453552,-0.30517578125,0.30517578125
694109,-0.0267333984375,-0.9853515625,0.1600341796875,0.7324218153953552,-0.2441406100988388,0.3662109076976776
694126,-0.0269775390625,-0.9835205078125,0.15966796875,0.7324218153953552,-0.2441406100988388,0.3662109076976776
694143,-0.027099609375,-0.9873046875,0.16064453125,0.7324218153953552,-0.30517578125,0.30517578125
694175,-0.0277099609375,-0.9853515625,0.16015625,0.7324218153953552,-0.2441406100988388,0.3662109076976776
694192,-0.0264892578125,-0.9876708984375,0.16015625,0.7324218153953552,-0.2441406100988388,0.30517578125
694208,-0.026611328125,-0.985107421875,0.1600341796875,0.7324218153953552,-0.30517578125,0.4272460639476776
694244,-0.02734375,-0.9852294921875,0.1607666015625,0.7324218153953552,-0.2441406100988388,0.30517578125
694266,-0.025390625,-0.98681640625,0.16064453125,0.7324218153953552,-0.2441406100988388,0.30517578125
694282,-0.026611328125,-0.9859619140625,0.1610107421875,0.7324218153953552,-0.2441406100988388,0.2441406100988388
694303,-0.027099609375,-0.9853515625,0.1607666015625,0.7324218153953552,-0.2441406100988388,0.30517578125
694319,-0.02734375,-0.985107421875,0.1600341796875,0.6713866591453552,-0.30517578125,0.30517578125
694336,-0.0269775390625,-0.9849853515625,0.160400390625,0.6713866591453552,-0.2441406100988388,0.2441406100988388
694352,-0.027099609375,-0.9849853515625,0.1602783203125,0.6713866591453552,-0.2441406100988388,0.2441406100988388
694369,-0.0279541015625,-0.9864501953125,0.160888671875,0.7324218153953552,-0.2441406100988388,0.30517578125
694385,-0.0277099609375,-0.9854736328125,0.1590576171875,0.7934569716453552,-0.2441406100988388,0.30517578125
694418,-0.0263671875,-0.9857177734375,0.1607666015625,0.6713866591453552,-0.2441406100988388,0.30517578125
694439,-0.0277099609375,-0.985107421875,0.1614990234375,0.7324218153953552,-0.30517578125,0.3662109076976776
694455,-0.0272216796875,-0.9862060546875,0.1602783203125,0.7324218153953552,-0.30517578125,0.3662109076976776
694468,-0.0267333984375,-0.9862060546875,0.1600341796875,0.6713866591453552,-0.30517578125,0.30517578125
694534,-0.0263671875,-0.98583984375,0.1611328125,0.7934569716453552,-0.2441406100988388,0.2441406100988388
694551,-0.0260009765625,-0.9853515625,0.160400390625,0.7324218153953552,-0.30517578125,0.2441406100988388
694567,-0.0269775390625,-0.98486328125,0.1595458984375,0.7324218153953552,-0.30517578125,0.3662109076976776
694599,-0.0277099609375,-0.9859619140625,0.160888671875,0.7324218153953552,-0.30517578125,0.30517578125
694615,-0.0263671875,-0.9869384765625,0.1605224609375,0.7324218153953552,-0.2441406100988388,0.3662109076976776
694631,-0.0264892578125,-0.9873046875,0.16015625,0.7324218153953552,-0.2441406100988388,0.3662109076976776
694647,-0.0281982421875,-0.98486328125,0.159912109375,0.6713866591453552,-0.3662109076976776,0.30517578125
694666,-0.027587890625,-0.9859619140625,0.1602783203125,0.7324218153953552,-0.3662109076976776,0.30517578125
694687,-0.02685546875,-0.98583984375,0.1600341796875,0.7324218153953552,-0.30517578125,0.30517578125
694704,-0.0272216796875,-0.9852294921875,0.1602783203125,0.7324218153953552,-0.2441406100988388,0.30517578125
694721,-0.027099609375,-0.985107421875,0.159912109375,0.6713866591453552,-0.2441406100988388,0.3662109076976776
694737,-0.028076171875,-0.9847412109375,0.160888671875,0.6713866591453552,-0.2441406100988388,0.3662109076976776
694771,-0.026611328125,-0.9857177734375,0.1591796875,0.7324218153953552,-0.30517578125,0.30517578125
694788,-0.0277099609375,-0.9873046875,0.1605224609375,0.7324218153953552,-0.2441406100988388,0.30517578125
694809,-0.0283203125,-0.9847412109375,0.16015625,0.6713866591453552,-0.30517578125,0.2441406100988388
694825,-0.028076171875,-0.984130859375,0.159912109375,0.7324218153953552,-0.30517578125,0.2441406100988388
694842,-0.02734375,-0.9849853515625,0.159912109375,0.7934569716453552,-0.30517578125,0.30517578125
694859,-0.026611328125,-0.9876708984375,0.160400390625,0.7324218153953552,-0.30517578125,0.30517578125
694892,-0.027099609375,-0.9857177734375,0.160400390625,0.6713866591453552,-0.2441406100988388,0.30517578125
694909,-0.02685546875,-0.9849853515625,0.159423828125,0.7324218153953552,-0.1831054538488388,0.30517578125
694925,-0.0272216796875,-0.984619140625,0.1607666015625,0.6713866591453552,-0.2441406100988388,0.3662109076976776
694956,-0.028076171875,-0.9852294921875,0.16064453125,0.7324218153953552,-0.30517578125,0.30517578125
694978,-0.027587890625,-0.9852294921875,0.1607666015625,0.7324218153953552,-0.30517578125,0.30517578125
694994,-0.028076171875,-0.9864501953125,0.16064453125,0.7324218153953552,-0.2441406100988388,0.2441406100988388
695011,-0.0277099609375,-0.9864501953125,0.1612548828125,0.7324218153953552,-0.30517578125,0.2441406100988388
695028,-0.026611328125,-0.983642578125,0.160400390625,0.7324218153953552,-0.2441406100988388,0.2441406100988388
695044,-0.0274658203125,-0.982177734375,0.159423828125,0.7324218153953552,-0.2441406100988388,0.30517578125
695077,-0.02685546875,-0.987060546875,0.160400390625,0.7324218153953552,-0.30517578125,0.30517578125
695094,-0.028564453125,-0.9903564453125,0.1595458984375,0.7324218153953552,-0.30517578125,0.30517578125
695110,-0.028076171875,-0.990966796875,0.16015625,0.7324218153953552,-0.30517578125,0.30517578125
695126,-0.0267333984375,-0.986083984375,0.1597900390625,0.7324218153953552,-0.2441406100988388,0.3662109076976776
695146,-0.027099609375,-0.9849853515625,0.1605224609375,0.6713866591453552,-0.30517578125,0.3662109076976776
695162,-0.0274658203125,-0.984375,0.16015625,0.7324218153953552,-0.30517578125,0.30517578125
695178,-0.028076171875,-0.984130859375,0.1595458984375,0.6713866591453552,-0.2441406100988388,0.30517578125
695194,-0.0264892578125,-0.9859619140625,0.159423828125,0.6713866591453552,-0.2441406100988388,0.30517578125
695210,-0.0262451171875,-0.986572265625,0.15966796875,0.7324218153953552,-0.2441406100988388,0.3662109076976776
695226,-0.0267333984375,-0.9849853515625,0.16015625,0.7324218153953552,-0.30517578125,0.30517578125
695258,-0.027587890625,-0.986083984375,0.160400390625,0.7324218153953552,-0.30517578125,0.30517578125
695274,-0.0272216796875,-0.98681640625,0.16015625,0.7324218153953552,-0.30517578125,0.30517578125
695290,-0.0277099609375,-0.987548828125,0.16064453125,0.6713866591453552,-0.2441406100988388,0.2441406100988388
695306,-0.0267333984375,-0.984619140625,0.160888671875,0.7324218153953552,-0.30517578125,0.2441406100988388
695326,-0.0262451171875,-0.986572265625,0.159912109375,0.7934569716453552,-0.30517578125,0.30517578125
695348,-0.0269775390625,-0.987060546875,0.1600341796875,0.7324218153953552,-0.30517578125,0.3662109076976776
695364,-0.0284423828125,-0.9847412109375,0.1605224609375,0.6713866591453552,-0.2441406100988388,0.30517578125
695381,-0.0291748046875,-0.9864501953125,0.1605224609375,0.7324218153953552,-0.2441406100988388,0.30517578125
695398,-0.0279541015625,-0.9854736328125,0.1600341796875,0.6713866591453552,-0.2441406100988388,0.3662109076976776
695431,-0.026611328125,-0.9864501953125,0.1605224609375,0.6713866591453552,-0.30517578125,0.2441406100988388
695448,-0.027099609375,-0.9866943359375,0.16064453125,0.7324218153953552,-0.30517578125,0.3662109076976776
695464,-0.027587890625,-0.985595703125,0.1597900390625,0.7324218153953552,-0.2441406100988388,0.30517578125
695495,-0.027587890625,-0.986328125,0.1605224609375,0.6713866591453552,-0.2441406100988388,0.2441406100988388
695516,-0.0267333984375,-0.98583984375,0.1607666015625,0.6713866591453552,-0.2441406100988388,0.30517578125
695536,-0.02734375,-0.9842529296875,0.1593017578125,0.6713866591453552,-0.30517578125,0.2441406100988388
695551,-0.0286865234375,-0.9859619140625,0.159912109375,0.6713866591453552,-0.30517578125,0.30517578125
695568,-0.02734375,-0.9852294921875,0.16015625,0.6713866591453552,-0.2441406100988388,0.30517578125
695588,-0.028076171875,-0.9852294921875,0.1597900390625,0.6713866591453552,-0.2441406100988388,0.3662109076976776
695607,-0.0274658203125,-0.987060546875,0.16015625,0.6713866591453552,-0.2441406100988388,0.30517578125
695624,-0.0274658203125,-0.98486328125,0.160400390625,0.7324218153953552,-0.2441406100988388,0.30517578125
695641,-0.0272216796875,-0.9879150390625,0.16162109375,0.7324218153953552,-0.2441406100988388,0.30517578125
695673,-0.0272216796875,-0.9847412109375,0.1591796875,0.7324218153953552,-0.2441406100988388,0.30517578125
695737,-0.02587890625,-0.9874267578125,0.16064453125,0.7934569716453552,-0.30517578125,0.30517578125
695753,-0.0257568359375,-0.987060546875,0.160888671875,0.7324218153953552,-0.3662109076976776,0.30517578125
695769,-0.027099609375,-0.9842529296875,0.15869140625,0.6713866591453552,-0.2441406100988388,0.30517578125
695785,-0.02734375,-0.985107421875,0.157958984375,0.6713866591453552,-0.2441406100988388,0.30517578125
695805,-0.027099609375,-0.988037109375,0.1600341796875,0.7324218153953552,-0.2441406100988388,0.2441406100988388
695826,-0.0264892578125,-0.984375,0.16015625,0.7324218153953552,-0.30517578125,0.30517578125
695842,-0.02685546875,-0.985107421875,0.1600341796875,0.7324218153953552,-0.30517578125,0.30517578125
695863,-0.0277099609375,-0.987060546875,0.1591796875,0.7934569716453552,-0.30517578125,0.30517578125
695880,-0.0274658203125,-0.9854736328125,0.1602783203125,0.7934569716453552,-0.30517578125,0.3662109076976776
695896,-0.02685546875,-0.98583984375,0.1602783203125,0.7324218153953552,-0.30517578125,0.30517578125
695913,-0.0264892578125,-0.988525390625,0.158935546875,0.7324218153953552,-0.2441406100988388,0.3662109076976776
695979,-0.026123046875,-0.980712890625,0.1593017578125,0.7324218153953552,-0.2441406100988388,0.30517578125
696000,-0.0260009765625,-0.9820556640625,0.1600341796875,0.7324218153953552,-0.30517578125,0.30517578125
696016,-0.0263671875,-0.990478515625,0.1610107421875,0.7324218153953552,-0.30517578125,0.2441406100988388
696031,-0.027587890625,-0.9766845703125,0.1591796875,0.7324218153953552,-0.30517578125,0.2441406100988388
696048,-0.0269775390625,-0.98583984375,0.1593017578125,0.7324218153953552,-0.2441406100988388,0.2441406100988388
696065,-0.02685546875,-0.9901123046875,0.1602783203125,0.6713866591453552,-0.2441406100988388,0.30517578125
696098,-0.0296630859375,-0.99462890625,0.1622314453125,0.7324218153953552,-0.30517578125,0.30517578125
696114,-0.0296630859375,-0.9857177734375,0.16015625,0.6713866591453552,-0.2441406100988388,0.30517578125
696130,-0.02685546875,-0.9810791015625,0.1590576171875,0.6713866591453552,-0.2441406100988388,0.30517578125
696146,-0.0260009765625,-0.989501953125,0.1610107421875,0.6713866591453552,-0.2441406100988388,0.30517578125
696166,-0.026123046875,-0.9827880859375,0.16064453125,0.7324218153953552,-0.30517578125,0.30517578125
696182,-0.0284423828125,-0.9840087890625,0.16015625,0.7324218153953552,-0.30517578125,0.3662109076976776
696198,-0.0274658203125,-0.987060546875,0.1602783203125,0.6713866591453552,-0.30517578125,0.3662109076976776
696214,-0.0262451171875,-0.9871826171875,0.1593017578125,0.6713866591453552,-0.30517578125,0.30517578125
696236,-0.02734375,-0.9876708984375,0.15966796875,0.7324218153953552,-0.30517578125,0.30517578125
696252,-0.029296875,-0.9832763671875,0.1595458984375,0.7324218153953552,-0.2441406100988388,0.3662109076976776
696269,-0.027099609375,-0.9871826171875,0.1595458984375,0.7324218153953552,-0.2441406100988388,0.3662109076976776
696286,-0.02587890625,-0.985107421875,0.1593017578125,0.6713866591453552,-0.1831054538488388,0.30517578125
696302,-0.0262451171875,-0.9849853515625,0.160400390625,0.6713866591453552,-0.1831054538488388,0.2441406100988388
696334,-0.028076171875,-0.985595703125,0.1595458984375,0.6713866591453552,-0.30517578125,0.30517578125
696356,-0.027587890625,-0.9864501953125,0.159912109375,0.6713866591453552,-0.30517578125,0.30517578125
696372,-0.0272216796875,-0.9842529296875,0.159423828125,0.6713866591453552,-0.2441406100988388,0.30517578125
696389,-0.0267333984375,-0.9876708984375,0.16015625,0.6713866591453552,-0.2441406100988388,0.30517578125
696406,-0.02685546875,-0.985595703125,0.1593017578125,0.6713866591453552,-0.30517578125,0.30517578125
696422,-0.027587890625,-0.9866943359375,0.1595458984375,0.6713866591453552,-0.2441406100988388,0.30517578125
696454,-0.027587890625,-0.9862060546875,0.160400390625,0.6713866591453552,-0.2441406100988388,0.3662109076976776
696476,-0.02783203125,-0.98486328125,0.158935546875,0.7324218153953552,-0.2441406100988388,0.3662109076976776
696492,-0.0272216796875,-0.9869384765625,0.1602783203125,0.7934569716453552,-0.2441406100988388,0.30517578125
696509,-0.0262451171875,-0.986572265625,0.1605224609375,0.7324218153953552,-0.1831054538488388,0.2441406100988388
696526,-0.0267333984375,-0.983154296875,0.1607666015625,0.6713866591453552,-0.30517578125,0.30517578125
696542,-0.028076171875,-0.9854736328125,0.16064453125,0.6713866591453552,-0.3662109076976776,0.3662109076976776
696574,-0.0263671875,-0.9879150390625,0.1610107421875,0.6713866591453552,-0.2441406100988388,0.2441406100988388
696596,-0.02587890625,-0.9854736328125,0.161376953125,0.7324218153953552,-0.30517578125,0.30517578125
696616,-0.0274658203125,-0.9820556640625,0.1590576171875,0.6713866591453552,-0.30517578125,0.30517578125
696634,-0.027587890625,-0.9873046875,0.1602783203125,0.6713866591453552,-0.30517578125,0.2441406100988388
696651,-0.029052734375,-0.989501953125,0.160888671875,0.6713866591453552,-0.2441406100988388,0.2441406100988388
696668,-0.02880859375,-0.986572265625,0.160400390625,0.7324218153953552,-0.2441406100988388,0.2441406100988388
696684,-0.0262451171875,-0.9840087890625,0.1605224609375,0.7324218153953552,-0.30517578125,0.2441406100988388
696705,-0.026611328125,-0.9847412109375,0.1610107421875,0.6713866591453552,-0.30517578125,0.2441406100988388
696721,-0.02685546875,-0.9871826171875,0.160888671875,0.6713866591453552,-0.2441406100988388,0.30517578125
696738,-0.0269775390625,-0.9871826171875,0.1600341796875,0.6713866591453552,-0.30517578125,0.30517578125
696754,-0.02685546875,-0.9862060546875,0.1585693359375,0.6713866591453552,-0.30517578125,0.30517578125
696770,-0.0283203125,-0.9837646484375,0.1612548828125,0.7324218153953552,-0.2441406100988388,0.2441406100988388
696786,-0.027587890625,-0.9835205078125,0.162353515625,0.7934569716453552,-0.2441406100988388,0.30517578125
696818,-0.0279541015625,-0.9862060546875,0.1611328125,0.9155272841453552,-0.1831054538488388,0.30517578125
696839,-0.027587890625,-0.986328125,0.16162109375,1.03759765625,-0.2441406100988388,0.2441406100988388
696855,-0.0277099609375,-0.979248046875,0.1663818359375,1.3427733182907104,-0.2441406100988388,0.1220703050494194
696872,-0.024658203125,-0.9869384765625,0.1632080078125,1.6479490995407104,-0.3662109076976776,0.1831054538488388
696889,-0.024658203125,-0.9886474609375,0.1600341796875,2.13623046875,-0.30517578125,0.1831054538488388
696905,-0.0284423828125,-0.9832763671875,0.161376953125,2.3193359375,-0.3662109076976776,0.2441406100988388
696939,-0.026123046875,-0.9881591796875,0.1597900390625,2.44140625,-0.3662109076976776,0.2441406100988388
696955,-0.0264892578125,-0.9874267578125,0.1588134765625,2.44140625,-0.30517578125,0.1831054538488388
696971,-0.0294189453125,-0.9876708984375,0.151123046875,2.25830078125,-0.3662109076976776,0.2441406100988388
696987,-0.0277099609375,-0.9888916015625,0.1531982421875,2.0751953125,-0.30517578125,0.2441406100988388
697007,-0.0277099609375,-0.9893798828125,0.150390625,1.7700194120407104,-0.30517578125,0.1831054538488388
697023,-0.0264892578125,-0.9871826171875,0.154541015625,1.5258787870407104,-0.30517578125,0.1220703050494194
697055,-0.0260009765625,-0.986328125,0.1568603515625,1.2817381620407104,-0.30517578125,0.1831054538488388
697071,-0.0281982421875,-0.9835205078125,0.1607666015625,1.5869139432907104,-0.1220703050494194,0.30517578125
697087,-0.02685546875,-0.9832763671875,0.17578125,1.9531248807907104,-0.2441406100988388,0.3662109076976776
697119,-0.0263671875,-0.9892578125,0.1702880859375,3.112792730331421,-0.2441406100988388,0.4882812201976776
697141,-0.0284423828125,-0.98779296875,0.15380859375,3.662109136581421,-0.54931640625,0.30517578125
697157,-0.02490234375,-0.9842529296875,0.156494140625,3.479003667831421,-0.3662109076976776,0.1220703050494194
697173,-0.0267333984375,-0.994384765625,0.1402587890625,3.295898199081421,-0.4272460639476776,0.2441406100988388
697190,-0.0269775390625,-0.992431640625,0.1448974609375,2.746581792831421,-0.30517578125,0.2441406100988388
697207,-0.0323486328125,-0.991455078125,0.1322021484375,2.0751953125,-0.30517578125,0.1831054538488388
697244,-0.0255126953125,-0.9886474609375,0.14892578125,1.5869139432907104,-0.1831054538488388,0.1831054538488388
697260,-0.0269775390625,-0.9871826171875,0.1561279296875,1.5258787870407104,-0.30517578125,0.2441406100988388
697276,-0.0311279296875,-0.986328125,0.145751953125,1.4038084745407104,-0.30517578125,0.2441406100988388
697292,-0.0260009765625,-0.98681640625,0.1424560546875,1.220703125,-0.30517578125,0.4272460639476776
697309,-0.025390625,-0.990478515625,0.135498046875,1.03759765625,-0.2441406100988388,0.4882812201976776
697330,-0.026611328125,-0.9888916015625,0.1455078125,0.4272460639476776,-0.2441406100988388,0.4882812201976776
697346,-0.030517578125,-0.9903564453125,0.1431884765625,0.1831054538488388,-0.2441406100988388,0.4882812201976776
697363,-0.0279541015625,-0.990966796875,0.1397705078125,-0.4272460639476776,-0.2441406100988388,0.4882812201976776
697380,-0.0277099609375,-0.989990234375,0.1378173828125,-1.0986328125,-0.2441406100988388,0.4882812201976776
697413,-0.027099609375,-0.9888916015625,0.143310546875,-2.563476324081421,-0.1831054538488388,0.3662109076976776
697430,-0.0267333984375,-0.9893798828125,0.1470947265625,-2.929687261581421,-0.1831054538488388,0.3662109076976776
697446,-0.02490234375,-0.9901123046875,0.1502685546875,-3.479003667831421,-0.2441406100988388,0.3662109076976776
697479,-0.0301513671875,-0.98779296875,0.150390625,-3.967284917831421,-0.1831054538488388,0.30517578125
697500,-0.02685546875,-0.984619140625,0.157958984375,-3.967284917831421,-0.0610351525247097,0.4272460639476776
697516,-0.0250244140625,-0.9827880859375,0.16748046875,-3.845214605331421,-0.0610351525247097,0.4272460639476776
697531,-0.0269775390625,-0.9813232421875,0.171142578125,-3.173827886581421,-0.1831054538488388,0.4882812201976776
697548,-0.0274658203125,-0.9820556640625,0.1707763671875,-2.38037109375,-0.1831054538488388,0.4882812201976776
697565,-0.0274658203125,-0.9835205078125,0.1651611328125,-1.7089842557907104,-0.2441406100988388,0.54931640625
697598,-0.025634765625,-0.9814453125,0.1746826171875,-0.6103515625,-0.1220703050494194,0.4882812201976776
697614,-0.0262451171875,-0.98193359375,0.17919921875,0.4882812201976776,-0.2441406100988388,0.30517578125
697630,-0.026123046875,-0.979736328125,0.1781005859375,1.03759765625,-0.3662109076976776,0.30517578125
697646,-0.026123046875,-0.983154296875,0.17041015625,1.9531248807907104,-0.3662109076976776,0.3662109076976776
697666,-0.0263671875,-0.9835205078125,0.1708984375,2.746581792831421,-0.2441406100988388,0.3662109076976776
697682,-0.0291748046875,-0.980224609375,0.17236328125,3.295898199081421,-0.2441406100988388,0.3662109076976776
697714,-0.024658203125,-0.985107421875,0.163818359375,4.8828125,-0.4272460639476776,0.30517578125
697736,-0.0260009765625,-0.985107421875,0.1612548828125,5.065917491912842,-0.4272460639476776,0.1220703050494194
697752,-0.0306396484375,-0.9864501953125,0.157470703125,5.249022960662842,-0.3662109076976776,0.0610351525247097
697769,-0.0272216796875,-0.986572265625,0.1593017578125,5.371093273162842,-0.30517578125,0.0610351525247097
697786,-0.02392578125,-0.986328125,0.15234375,5.432128429412842,-0.4272460639476776,0.0610351525247097
697836,-0.0296630859375,-0.9876708984375,0.1427001953125,4.2724609375,-0.30517578125,0.0610351525247097
697856,-0.0263671875,-0.9891357421875,0.1444091796875,3.845214605331421,-0.2441406100988388,0.1220703050494194
697876,-0.0240478515625,-0.9891357421875,0.1505126953125,3.662109136581421,-0.3662109076976776,0.1831054538488388
697892,-0.02685546875,-0.98974609375,0.1475830078125,3.601073980331421,-0.4272460639476776,0.1831054538488388
697909,-0.031005859375,-0.986328125,0.1435546875,3.417968511581421,-0.4272460639476776,0.1831054538488388
697930,-0.028076171875,-0.9921875,0.13818359375,3.112792730331421,-0.30517578125,0.1831054538488388
697946,-0.025146484375,-0.9866943359375,0.142822265625,2.990722417831421,-0.30517578125,0.2441406100988388
697963,-0.0260009765625,-0.986328125,0.1439208984375,2.868652105331421,-0.30517578125,0.1831054538488388
697980,-0.0296630859375,-0.9886474609375,0.143310546875,2.685546636581421,-0.3662109076976776,0.1220703050494194
698013,-0.028076171875,-0.9879150390625,0.1392822265625,2.3193359375,-0.30517578125,0.2441406100988388
698030,-0.025390625,-0.9893798828125,0.138916015625,2.0751953125,-0.30517578125,0.2441406100988388
698046,-0.0283203125,-0.985595703125,0.138427734375,1.7700194120407104,-0.3662109076976776,0.1831054538488388
698077,-0.0255126953125,-0.9891357421875,0.1339111328125,0.9765624403953552,-0.30517578125,0.2441406100988388
698099,-0.02294921875,-0.9730224609375,0.1304931640625,0.4882812201976776,-0.2441406100988388,0.1831054538488388
698115,-0.0286865234375,-0.9815673828125,0.09228515625,-1.0986328125,-0.54931640625,1.220703125
698132,-0.0308837890625,-1.017333984375,0.08740234375,-4.5166015625,-0.3662109076976776,4.08935546875
698149,-0.03515625,-1.07177734375,-0.0364990234375,-8.11767578125,-0.4882812201976776,6.042479991912842
698165,0.0028076171875,-1.3751220703125,-0.0843505859375,-17.578125,1.5869139432907104,11.779784202575684
698198,-0.042724609375,-2.4571533203125,0.2906494140625,-2.44140625,1.3427733182907104,-2.746581792831421
698215,-0.0506591796875,-2.2169189453125,0.2816162109375,4.82177734375,0.3662109076976776,-7.873534679412842
698231,-0.048828125,-1.9288330078125,0.2525634765625,14.099120140075684,-0.6713866591453552,-13.122557640075684
698247,-0.0433349609375,-1.4610595703125,0.227294921875,19.4091796875,0.0610351525247097,-11.291502952575684
698267,-0.0372314453125,-1.3634033203125,0.324462890625,22.705076217651367,-0.4272460639476776,-9.033203125
698283,-0.04443359375,-1.385986328125,0.3140869140625,25.085447311401367,-0.6713866591453552,-8.7890625
698299,-0.0501708984375,-1.477783203125,0.3028564453125,29.602048873901367,-1.220703125,-8.60595703125
698316,-0.0760498046875,-1.7176513671875,0.2386474609375,36.07177734375,-0.0610351525247097,-9.521484375
698337,-0.0736083984375,-1.807373046875,0.2921142578125,38.02490234375,-0.2441406100988388,-11.779784202575684
698353,-0.070068359375,-1.6614990234375,0.269287109375,43.579097747802734,-0.0610351525247097,-14.648436546325684
698370,-0.05224609375,-1.485595703125,0.2979736328125,45.043941497802734,-0.3662109076976776,-14.770506858825684
698387,-0.0601806640625,-1.32568359375,0.236572265625,46.997066497802734,-0.6713866591453552,-13.977049827575684
698403,-0.0654296875,-1.2750244140625,0.212158203125,46.874996185302734,-0.54931640625,-12.023924827575684
698436,-0.0665283203125,-1.3455810546875,0.0938720703125,42.663570404052734,0.4882812201976776,-8.544921875
698452,-0.0604248046875,-1.314453125,0.065673828125,40.710445404052734,0.9155272841453552,-8.4228515625
698468,-0.0555419921875,-1.185302734375,-0.0203857421875,34.5458984375,1.15966796875,-7.812499523162842
698504,-0.047119140625,-0.91845703125,-0.105224609375,22.094724655151367,3.173827886581421,-3.784179449081421
698520,-0.0386962890625,-0.83251953125,0.02490234375,18.9208984375,3.295898199081421,-1.5258787870407104
698552,-0.03125,-0.649169921875,-0.0960693359375,12.512206077575684,3.356933355331421,1.5869139432907104
698569,-0.0269775390625,-0.535400390625,-0.051513671875,7.019042491912842,3.356933355331421,3.479003667831421
698590,-0.0247802734375,-0.3671875,-0.1075439453125,4.5166015625,3.479003667831421,3.906249761581421
698606,-0.015625,-0.22705078125,-0.073974609375,2.0751953125,3.967284917831421,5.371093273162842
698673,0.0050048828125,0.04736328125,-0.060546875,-11.962889671325684,4.150390625,10.437010765075684
698690,0.0068359375,-0.0037841796875,-0.030029296875,-16.11328125,4.57763671875,11.291502952575684
698706,0.0196533203125,-0.1212158203125,-0.0203857421875,-16.2353515625,4.45556640625,10.925292015075684
698739,0.01220703125,-0.0523681640625,-0.0050048828125,-5.554198741912842,4.7607421875,9.09423828125
698760,0.0208740234375,-0.0234375,0.0072021484375,-3.234863042831421,4.45556640625,9.70458984375
698776,-0.0010986328125,-0.4180908203125,-0.0211181640625,-0.3662109076976776,4.94384765625,9.82666015625
698791,-0.03564453125,-0.572021484375,-0.0833740234375,3.784179449081421,5.126952648162842,7.812499523162842
698808,0.0068359375,-0.798583984375,0.08251953125,1.5869139432907104,4.0283203125,7.141112804412842
698825,0.00048828125,-0.8626708984375,-0.24609375,-4.82177734375,2.746581792831421,4.69970703125
698857,-0.0421142578125,-1.210693359375,0.03515625,0.1220703050494194,5.493163585662842,2.868652105331421
698874,-0.0379638671875,-1.2535400390625,0.1201171875,-0.1220703050494194,4.5166015625,0.0
698890,-0.051513671875,-1.2930908203125,0.2027587890625,8.1787109375,2.50244140625,-2.807616949081421
698906,-0.0511474609375,-1.292724609375,0.2041015625,12.023924827575684,1.7700194120407104,-4.150390625
698931,-0.0538330078125,-1.2447509765625,0.1929931640625,16.78466796875,0.7324218153953552,-6.408690929412842
698947,-0.0665283203125,-1.1085205078125,0.0849609375,18.49365234375,0.4272460639476776,-7.263183116912842
698964,-0.0645751953125,-1.0438232421875,0.132080078125,20.324705123901367,0.4882812201976776,-7.873534679412842
698981,-0.0758056640625,-0.9747314453125,0.1376953125,20.629880905151367,0.4272460639476776,-7.812499523162842
698998,-0.090576171875,-0.9359130859375,0.0811767578125,22.827146530151367,0.4272460639476776,-7.202147960662842
699030,-0.10693359375,-0.9095458984375,0.0198974609375,21.545408248901367,0.30517578125,-6.591796398162842
699048,-0.1170654296875,-0.912109375,-0.08642578125,18.37158203125,0.6103515625,-5.432128429412842
699064,-0.1209716796875,-0.919677734375,-0.1160888671875,16.4794921875,0.9155272841453552,-5.0048828125
699094,-0.1375732421875,-0.9561767578125,-0.0843505859375,14.831542015075684,1.7089842557907104,-4.0283203125
699116,-0.123779296875,-0.9603271484375,-0.123779296875,12.695311546325684,2.197265625,-2.929687261581421
699132,-0.1234130859375,-0.9925537109375,-0.1448974609375,13.183592796325684,2.3193359375,-2.563476324081421
699149,-0.1124267578125,-1.0242919921875,-0.1083984375,9.58251953125,2.563476324081421,-1.6479490995407104
699166,-0.1090087890625,-1.04150390625,-0.096435546875,7.080077648162842,2.624511480331421,-1.15966796875
699187,-0.0931396484375,-1.0545654296875,-0.065673828125,3.295898199081421,2.50244140625,-0.8544921278953552
699223,-0.0701904296875,-1.0211181640625,-0.0416259765625,-2.197265625,2.38037109375,-0.0610351525247097
699240,-0.059814453125,-1.0272216796875,-0.03076171875,-3.906249761581421,2.25830078125,0.0
699256,-0.054931640625,-1.0228271484375,-0.036865234375,-5.676269054412842,2.197265625,-0.1220703050494194
699272,-0.04541015625,-0.9725341796875,-0.0472412109375,-7.873534679412842,2.13623046875,0.1220703050494194
699337,-0.034423828125,-0.9698486328125,-0.0352783203125,-14.465331077575684,1.8310545682907104,0.9155272841453552
699358,-0.0352783203125,-0.9627685546875,-0.016357421875,-14.953612327575684,1.4648436307907104,0.9765624403953552
699374,-0.0413818359375,-0.9520263671875,-0.025634765625,-16.05224609375,1.03759765625,1.3427733182907104
699391,-0.0506591796875,-0.9730224609375,-0.0206298828125,-16.11328125,0.9155272841453552,1.5258787870407104
699408,-0.05517578125,-0.9844970703125,-0.023681640625,-16.6015625,0.6103515625,1.7089842557907104
699424,-0.06005859375,-0.99951171875,-0.0208740234375,-16.2353515625,0.2441406100988388,1.8310545682907104
699458,-0.0640869140625,-1.0213623046875,-0.011474609375,-15.441893577575684,-0.3662109076976776,1.8310545682907104
699474,-0.069580078125,-1.0172119140625,-0.0184326171875,-14.465331077575684,-0.6713866591453552,1.7089842557907104
699490,-0.0699462890625,-0.9981689453125,-0.0179443359375,-13.671874046325684,-0.8544921278953552,1.6479490995407104
699506,-0.06884765625,-0.9876708984375,-0.017822265625,-13.000487327575684,-0.9765624403953552,1.7089842557907104
699526,-0.0687255859375,-0.97314453125,-0.016845703125,-12.145995140075684,-1.2817381620407104,1.7700194120407104
699542,-0.0718994140625,-0.9630126953125,-0.0179443359375,-10.925292015075684,-1.4648436307907104,1.9531248807907104
699558,-0.0714111328125,-0.9649658203125,-0.017333984375,-10.498045921325684,-1.5258787870407104,2.01416015625
699574,-0.06884765625,-0.959716796875,-0.0191650390625,-9.033203125,-1.5869139432907104,2.0751953125
699590,-0.0638427734375,-0.964111328125,-0.009765625,-7.690429210662842,-1.7089842557907104,2.25830078125
699606,-0.061767578125,-0.976318359375,-0.00537109375,-6.835937023162842,-1.7700194120407104,2.197265625
699638,-0.0552978515625,-0.9854736328125,0.009033203125,-4.638671875,-2.01416015625,1.5869139432907104
699654,-0.052490234375,-0.9615478515625,0.0135498046875,-3.234863042831421,-2.197265625,1.220703125
699670,-0.0518798828125,-0.9378662109375,0.017333984375,-2.197265625,-2.13623046875,1.03759765625
699686,-0.04931640625,-0.9302978515625,0.0306396484375,-1.5258787870407104,-2.197265625,0.9155272841453552
699706,-0.049560546875,-0.9151611328125,0.046875,-0.54931640625,-2.50244140625,0.7324218153953552
699727,-0.055908203125,-0.8887939453125,0.02685546875,0.30517578125,-2.807616949081421,0.4882812201976776
699744,-0.0594482421875,-0.8668212890625,-0.015625,0.54931640625,-2.807616949081421,0.4272460639476776
699761,-0.0511474609375,-0.8399658203125,-0.0167236328125,0.8544921278953552,-2.38037109375,0.0610351525247097
699777,-0.048095703125,-0.80712890625,-0.0157470703125,0.54931640625,-2.197265625,-0.4882812201976776
699810,-0.043212890625,-0.659423828125,-0.0194091796875,-0.7934569716453552,-2.01416015625,-0.1220703050494194
699827,-0.041015625,-0.6622314453125,-0.015625,-2.44140625,-1.8310545682907104,1.03759765625
699843,-0.039794921875,-0.714599609375,-0.002685546875,-3.601073980331421,-1.6479490995407104,1.6479490995407104
699875,-0.04150390625,-0.8292236328125,0.035888671875,-3.845214605331421,-1.7089842557907104,1.9531248807907104
699896,-0.042724609375,-0.8944091796875,0.0560302734375,-3.295898199081421,-2.01416015625,1.4038084745407104
699912,-0.0467529296875,-0.89306640625,0.0517578125,-2.929687261581421,-2.197265625,1.0986328125
699962,-0.0460205078125,-0.8660888671875,0.060791015625,-1.4038084745407104,-2.197265625,1.8310545682907104
700006,-0.0435791015625,-0.9658203125,0.084228515625,1.6479490995407104,-2.746581792831421,1.5258787870407104
700023,-0.041015625,-0.939208984375,0.0784912109375,2.01416015625,-2.685546636581421,1.4038084745407104
700056,-0.03369140625,-0.9613037109375,0.0780029296875,2.44140625,-2.807616949081421,1.4648436307907104
700130,-0.039794921875,-0.8934326171875,0.0560302734375,0.1220703050494194,-2.685546636581421,0.54931640625
700147,-0.0465087890625,-0.8800048828125,0.0328369140625,-1.7089842557907104,-2.44140625,0.9765624403953552
700163,-0.0517578125,-0.9063720703125,0.0357666015625,-2.685546636581421,-2.3193359375,1.220703125
700184,-0.056884765625,-0.950439453125,0.036865234375,-5.310058116912842,-2.197265625,0.9155272841453552
700200,-0.056396484375,-0.9359130859375,0.03466796875,-6.164550304412842,-2.25830078125,0.7324218153953552
700217,-0.0533447265625,-0.897216796875,0.0167236328125,-7.812499523162842,-2.25830078125,0.9765624403953552
700233,-0.0562744140625,-0.8746337890625,0.001953125,-9.82666015625,-2.01416015625,1.5869139432907104
700249,-0.0594482421875,-0.8681640625,0.0013427734375,-10.620116233825684,-1.8310545682907104,2.0751953125
700265,-0.0655517578125,-0.9140625,0.0086669921875,-11.657713890075684,-1.5258787870407104,2.990722417831421
700297,-0.056640625,-1.00244140625,0.029052734375,-11.962889671325684,-1.4648436307907104,2.929687261581421
700313,-0.0478515625,-1.00634765625,0.0489501953125,-11.108397483825684,-1.5258787870407104,2.868652105331421
700329,-0.0450439453125,-1.00830078125,0.0518798828125,-10.620116233825684,-1.5258787870407104,3.051757574081421
700345,-0.0386962890625,-1.0440673828125,0.0604248046875,-9.58251953125,-1.6479490995407104,3.112792730331421
700365,-0.0299072265625,-1.0399169921875,0.06201171875,-8.60595703125,-1.5258787870407104,2.807616949081421
700387,-0.0205078125,-1.067138671875,0.08154296875,-7.934569835662842,-1.5869139432907104,2.929687261581421
700403,-0.0152587890625,-1.0982666015625,0.097900390625,-6.347655773162842,-1.6479490995407104,2.44140625
700420,-0.01220703125,-1.088623046875,0.1060791015625,-4.5166015625,-1.8920897245407104,1.5258787870407104
700437,-0.0118408203125,-1.05615234375,0.090087890625,-3.784179449081421,-2.0751953125,1.3427733182907104
700470,-0.021484375,-1.0931396484375,0.072998046875,-1.3427733182907104,-2.197265625,0.4272460639476776
700487,-0.027099609375,-1.0672607421875,0.0699462890625,-0.1831054538488388,-2.0751953125,0.1831054538488388
700503,-0.028076171875,-1.09716796875,0.0726318359375,0.54931640625,-2.01416015625,-0.1831054538488388
700535,-0.03076171875,-1.0849609375,0.0540771484375,1.8920897245407104,-2.0751953125,-1.0986328125
700556,-0.03369140625,-1.0762939453125,0.0498046875,2.25830078125,-2.01416015625,-1.0986328125
700572,-0.03857421875,-1.082275390625,0.0469970703125,2.868652105331421,-1.9531248807907104,-1.15966796875
700593,-0.0438232421875,-1.0927734375,0.0460205078125,3.173827886581421,-1.8920897245407104,-1.4038084745407104
700613,-0.04443359375,-1.08447265625,0.044921875,3.356933355331421,-1.8310545682907104,-1.7700194120407104
700634,-0.047119140625,-1.0462646484375,0.039306640625,3.356933355331421,-1.7089842557907104,-1.8310545682907104
700650,-0.0479736328125,-1.0382080078125,0.04248046875,3.051757574081421,-1.4648436307907104,-1.5869139432907104
700667,-0.0499267578125,-1.0316162109375,0.04736328125,2.624511480331421,-1.3427733182907104,-1.220703125
700684,-0.0540771484375,-1.0467529296875,0.0501708984375,2.3193359375,-1.3427733182907104,-0.9765624403953552
700720,-0.0528564453125,-1.060791015625,0.0521240234375,2.3193359375,-1.220703125,-0.9765624403953552
700736,-0.053466796875,-1.055908203125,0.0516357421875,2.38037109375,-1.15966796875,-0.9155272841453552
700753,-0.0565185546875,-1.0408935546875,0.0516357421875,2.563476324081421,-1.0986328125,-0.7934569716453552
700770,-0.060302734375,-1.0234375,0.059326171875,2.746581792831421,-0.9765624403953552,-0.0610351525247097
700786,-0.0618896484375,-1.05419921875,0.0596923828125,2.929687261581421,-0.9765624403953552,0.30517578125
700803,-0.060302734375,-1.082275390625,0.0565185546875,3.173827886581421,-1.03759765625,0.6713866591453552
700834,-0.055419921875,-1.0699462890625,0.072265625,4.638671875,-0.9155272841453552,1.15966796875
700856,-0.053955078125,-1.0721435546875,0.07666015625,5.065917491912842,-0.9765624403953552,1.4038084745407104
700872,-0.053466796875,-1.0885009765625,0.0673828125,5.798339366912842,-1.15966796875,1.8310545682907104
700889,-0.0484619140625,-1.097412109375,0.0645751953125,6.530761241912842,-1.15966796875,2.0751953125
700907,-0.0406494140625,-1.091796875,0.0594482421875,7.019042491912842,-1.15966796875,2.01416015625
700924,-0.034912109375,-1.0799560546875,0.069580078125,7.995604991912842,-1.15966796875,2.197265625
700953,-0.0374755859375,-1.1153564453125,0.07861328125,9.8876953125,-1.4038084745407104,2.563476324081421
700970,-0.0380859375,-1.10205078125,0.0755615234375,11.169432640075684,-1.6479490995407104,2.3193359375
700986,-0.034912109375,-1.0948486328125,0.066162109375,12.084959983825684,-1.8310545682907104,2.38037109375
701019,-0.029541015625,-1.07470703125,0.0504150390625,12.084959983825684,-1.8310545682907104,1.8920897245407104
701040,-0.033935546875,-1.054931640625,0.0439453125,11.779784202575684,-1.7089842557907104,1.8920897245407104
701056,-0.0389404296875,-1.0506591796875,0.0491943359375,11.474608421325684,-1.7089842557907104,1.7700194120407104
701071,-0.040771484375,-1.0511474609375,0.0474853515625,10.742186546325684,-1.7089842557907104,1.5258787870407104
701088,-0.0562744140625,-1.056640625,0.0418701171875,10.314940452575684,-1.7089842557907104,1.4038084745407104
701105,-0.154052734375,-0.89599609375,0.0079345703125,-0.6103515625,-0.4272460639476776,6.469726085662842
701137,-0.01513671875,-0.857177734375,0.0328369140625,-8.4228515625,0.1831054538488388,13.183592796325684
701186,-0.04345703125,-2.740966796875,-0.059326171875,0.8544921278953552,0.7324218153953552,-1.2817381620407104
701207,-0.001953125,-0.7938232421875,0.0679931640625,-0.2441406100988388,0.8544921278953552,-8.60595703125
701224,-0.009033203125,-0.3255615234375,0.0716552734375,-0.1831054538488388,0.6103515625,-6.774901866912842
701257,-0.0625,-1.525390625,0.0625,3.356933355331421,-0.1831054538488388,4.94384765625
701274,-0.0469970703125,-1.9984130859375,0.0872802734375,-0.6713866591453552,-0.30517578125,-1.5869139432907104
701290,0.023681640625,-0.5291748046875,0.0447998046875,-0.4272460639476776,-0.7324218153953552,-2.807616949081421
701306,-0.0516357421875,-1.0238037109375,-0.0111083984375,0.9765624403953552,-0.54931640625,2.197265625
701326,-0.0377197265625,-1.1456298828125,0.0076904296875,-1.220703125,-0.1220703050494194,-1.15966796875
701347,-0.0103759765625,-0.8338623046875,0.03662109375,-1.5869139432907104,-0.0610351525247097,-0.7324218153953552
701364,-0.029541015625,-1.00390625,0.04931640625,-1.3427733182907104,-0.1220703050494194,0.7324218153953552
701381,-0.036865234375,-1.0419921875,0.0472412109375,-1.7700194120407104,-0.30517578125,-0.3662109076976776
701397,-0.0284423828125,-0.9302978515625,0.02197265625,-1.7700194120407104,-0.4272460639476776,-0.0610351525247097
701430,-0.0274658203125,-0.9910888671875,0.0234375,-2.990722417831421,-0.1220703050494194,0.3662109076976776
701447,-0.0311279296875,-0.9935302734375,0.0452880859375,-3.112792730331421,-0.1220703050494194,0.54931640625
701463,-0.0350341796875,-1.0166015625,0.0474853515625,-3.173827886581421,-0.1220703050494194,0.30517578125
701492,-0.0291748046875,-1.0029296875,0.0313720703125,-3.234863042831421,-0.2441406100988388,0.4882812201976776
701547,-0.0301513671875,-0.998779296875,0.057373046875,-3.173827886581421,-0.1220703050494194,0.3662109076976776
701597,-0.0328369140625,-0.9906005859375,0.0435791015625,-2.25830078125,-0.1831054538488388,0.3662109076976776
701628,-0.030029296875,-0.9893798828125,0.05078125,-2.25830078125,-0.1831054538488388,0.2441406100988388
701645,-0.0281982421875,-0.985595703125,0.0557861328125,-2.0751953125,-0.1831054538488388,0.4272460639476776
701678,-0.0308837890625,-0.984130859375,0.0511474609375,-1.9531248807907104,-0.2441406100988388,0.4272460639476776
701694,-0.0323486328125,-0.994140625,0.0484619140625,-2.01416015625,-0.2441406100988388,0.4272460639476776
701715,-0.0308837890625,-0.994140625,0.0509033203125,-2.197265625,-0.2441406100988388,0.4272460639476776
701735,-0.0291748046875,-0.9974365234375,0.0562744140625,-2.197265625,-0.1831054538488388,0.4272460639476776
701756,-0.0313720703125,-0.9947509765625,0.05908203125,-2.01416015625,-0.1220703050494194,0.3662109076976776
701772,-0.0303955078125,-0.993896484375,0.05859375,-1.9531248807907104,-0.2441406100988388,0.30517578125
701793,-0.029052734375,-0.9910888671875,0.05419921875,-2.01416015625,-0.30517578125,0.4272460639476776
701810,-0.0301513671875,-0.996826171875,0.0557861328125,-2.01416015625,-0.1831054538488388,0.4882812201976776
701826,-0.0322265625,-0.996826171875,0.060302734375,-2.197265625,-0.1831054538488388,0.3662109076976776
701864,-0.031005859375,-0.9947509765625,0.06005859375,-2.13623046875,-0.2441406100988388,0.4272460639476776
701880,-0.028564453125,-0.9954833984375,0.059326171875,-2.25830078125,-0.1831054538488388,0.4272460639476776
701896,-0.029052734375,-0.9940185546875,0.06298828125,-2.197265625,-0.1831054538488388,0.4272460639476776
701912,-0.0303955078125,-0.9970703125,0.0665283203125,-2.197265625,-0.1831054538488388,0.4272460639476776
701976,-0.0286865234375,-0.9931640625,0.06201171875,-2.0751953125,-0.2441406100988388,0.4272460639476776
701997,-0.0283203125,-0.9964599609375,0.0682373046875,-2.197265625,-0.2441406100988388,0.4272460639476776
702013,-0.0311279296875,-0.989990234375,0.0721435546875,-2.13623046875,-0.1831054538488388,0.3662109076976776
702030,-0.0318603515625,-0.9957275390625,0.0706787109375,-2.0751953125,-0.1831054538488388,0.3662109076976776
702047,-0.03076171875,-0.9970703125,0.071044921875,-2.0751953125,-0.1831054538488388,0.30517578125
702063,-0.028076171875,-0.994873046875,0.0716552734375,-2.01416015625,-0.2441406100988388,0.4272460639476776
702097,-0.0294189453125,-0.9921875,0.0745849609375,-1.7700194120407104,-0.1831054538488388,0.4882812201976776
702113,-0.030517578125,-0.994873046875,0.0743408203125,-1.7700194120407104,-0.1831054538488388,0.4882812201976776
702129,-0.0299072265625,-0.99462890625,0.076416015625,-1.5869139432907104,-0.2441406100988388,0.3662109076976776
702145,-0.0299072265625,-0.9908447265625,0.075927734375,-1.5869139432907104,-0.1831054538488388,0.3662109076976776
702165,-0.0283203125,-0.9935302734375,0.0767822265625,-1.4648436307907104,-0.2441406100988388,0.3662109076976776
702187,-0.0274658203125,-0.9957275390625,0.076171875,-1.4648436307907104,-0.2441406100988388,0.3662109076976776
702203,-0.0306396484375,-0.9923095703125,0.0802001953125,-1.2817381620407104,-0.30517578125,0.4882812201976776
702220,-0.031005859375,-0.9931640625,0.0789794921875,-1.220703125,-0.2441406100988388,0.4882812201976776
702237,-0.02978515625,-0.9925537109375,0.078125,-1.0986328125,-0.2441406100988388,0.4272460639476776
702270,-0.0301513671875,-0.9918212890625,0.080810546875,-0.9155272841453552,-0.2441406100988388,0.4272460639476776
702287,-0.0306396484375,-0.991943359375,0.0821533203125,-0.7934569716453552,-0.2441406100988388,0.3662109076976776
702303,-0.0296630859375,-0.9927978515625,0.0843505859375,-0.54931640625,-0.30517578125,0.4272460639476776
702335,-0.0316162109375,-0.994873046875,0.0782470703125,-0.4272460639476776,-0.2441406100988388,0.4272460639476776
702351,-0.0311279296875,-0.9912109375,0.079345703125,-0.30517578125,-0.2441406100988388,0.4272460639476776
702367,-0.02978515625,-0.9912109375,0.08154296875,-0.1831054538488388,-0.2441406100988388,0.4272460639476776
702399,-0.0284423828125,-0.991455078125,0.0838623046875,0.1220703050494194,-0.2441406100988388,0.2441406100988388
702447,-0.031005859375,-0.9942626953125,0.082763671875,0.4882812201976776,-0.2441406100988388,0.1831054538488388
702469,-0.027099609375,-0.99560546875,0.086669921875,0.7934569716453552,-0.2441406100988388,0.1831054538488388
702486,-0.02783203125,-0.9935302734375,0.089111328125,1.03759765625,-0.30517578125,0.1220703050494194
702503,-0.0302734375,-0.98974609375,0.085693359375,1.220703125,-0.30517578125,0.0610351525247097
702523,-0.031005859375,-0.99462890625,0.08251953125,1.5258787870407104,-0.2441406100988388,0.0
702540,-0.0308837890625,-0.987060546875,0.0855712890625,2.0751953125,-0.2441406100988388,-0.1831054538488388
702556,-0.0316162109375,-0.98828125,0.084228515625,2.38037109375,-0.30517578125,-0.2441406100988388
702573,-0.0289306640625,-0.98095703125,0.0888671875,2.746581792831421,-0.4272460639476776,0.1220703050494194
702621,-0.01806640625,-1.0064697265625,-0.0047607421875,-2.0751953125,0.0,8.30078125
702652,0.0079345703125,-1.860595703125,0.07861328125,-0.3662109076976776,1.4038084745407104,11.901854515075684
702669,-0.01220703125,-2.1171875,0.1693115234375,8.7890625,1.4038084745407104,2.563476324081421
702686,-0.0406494140625,-2.1136474609375,0.3243408203125,22.583005905151367,-0.0610351525247097,-3.967284917831421
702706,-0.067138671875,-1.900634765625,0.1685791015625,31.005857467651367,-1.7700194120407104,-5.920409679412842
702723,-0.064453125,-1.6380615234375,0.1488037109375,34.85107421875,-0.1220703050494194,-6.103515148162842
702756,-0.0225830078125,-1.4500732421875,0.2828369140625,39.97802734375,-0.8544921278953552,-3.906249761581421
702804,-0.0462646484375,-1.5960693359375,0.175537109375,46.691890716552734,-2.197265625,-4.57763671875
702826,-0.038330078125,-1.515380859375,0.131591796875,45.166011810302734,-2.13623046875,-4.82177734375
702843,-0.037841796875,-1.427734375,0.0777587890625,44.555660247802734,-2.25830078125,-4.39453125
702873,-0.04736328125,-1.4510498046875,-0.03271484375,35.09521484375,-1.6479490995407104,-2.0751953125
702889,-0.041015625,-1.449951171875,-0.0655517578125,31.249998092651367,-1.2817381620407104,-1.8920897245407104
702905,-0.029052734375,-1.4398193359375,0.0081787109375,26.428220748901367,-1.5258787870407104,-1.4648436307907104
702934,-0.0447998046875,-1.3702392578125,-0.1217041015625,18.06640625,-1.5258787870407104,-2.929687261581421
702956,-0.0447998046875,-1.255859375,-0.1627197265625,12.084959983825684,-0.8544921278953552,-3.356933355331421
702972,-0.038330078125,-1.0941162109375,-0.164306640625,6.652831554412842,-0.6713866591453552,-3.417968511581421
702989,-0.0333251953125,-1.0225830078125,-0.1611328125,0.7324218153953552,-0.1220703050494194,-3.417968511581421
703006,-0.0303955078125,-0.9095458984375,-0.1455078125,-3.112792730331421,-0.2441406100988388,-3.417968511581421
703022,-0.0380859375,-0.7596435546875,-0.1798095703125,-9.765625,0.0610351525247097,-3.540038824081421
703053,-0.03076171875,-0.444091796875,-0.12890625,-19.04296875,1.4038084745407104,-2.990722417831421
703070,-0.02734375,-0.3944091796875,-0.0972900390625,-19.8974609375,1.2817381620407104,-2.50244140625
703086,-0.02978515625,-0.276611328125,-0.078857421875,-22.888181686401367,1.3427733182907104,-2.3193359375
703106,-0.0338134765625,-0.1318359375,-0.091796875,-24.475095748901367,1.4038084745407104,-1.8310545682907104
703126,-0.031005859375,0.00537109375,-0.093505859375,-28.137205123901367,1.8920897245407104,-0.6713866591453552
703146,-0.0267333984375,0.18896484375,-0.127197265625,-32.65380859375,2.25830078125,1.220703125
703166,-0.0283203125,0.251220703125,-0.046875,-39.97802734375,2.25830078125,3.967284917831421
703186,-0.0091552734375,0.1077880859375,-0.0054931640625,-45.349117279052734,1.0986328125,5.676269054412842
703206,-0.021240234375,-0.2125244140625,-0.0640869140625,-40.527339935302734,-1.15966796875,4.57763671875
703226,-0.0377197265625,-0.2344970703125,-0.4189453125,-22.216794967651367,-3.173827886581421,3.906249761581421
703246,-0.0614013671875,-0.3829345703125,-0.67626953125,-1.0986328125,5.065917491912842,3.662109136581421
703266,-0.0079345703125,-0.1649169921875,-0.37548828125,-9.521484375,7.995604991912842,3.479003667831421
703282,0.000244140625,-0.6102294921875,0.198486328125,1.7700194120407104,4.21142578125,6.652831554412842
703299,-0.0125732421875,-0.9012451171875,0.0887451171875,3.723144292831421,3.234863042831421,7.019042491912842
703320,-0.0220947265625,-1.2325439453125,0.07861328125,0.6713866591453552,2.25830078125,4.94384765625
703336,-0.0284423828125,-1.32177734375,0.1514892578125,0.9155272841453552,1.8310545682907104,4.150390625
703351,0.00830078125,-1.3438720703125,0.2718505859375,-0.7324218153953552,0.54931640625,2.624511480331421
703368,0.0069580078125,-1.3433837890625,0.282470703125,7.385253429412842,-0.0610351525247097,0.3662109076976776
703385,-0.02734375,-1.3333740234375,0.2607421875,17.578125,-1.5869139432907104,-2.197265625
703417,-0.01953125,-1.223876953125,0.255615234375,27.648923873901367,-2.01416015625,-4.94384765625
703434,-0.0511474609375,-1.048583984375,0.1837158203125,32.3486328125,-2.44140625,-6.469726085662842
703450,-0.0484619140625,-0.9697265625,0.1810302734375,33.50830078125,-2.746581792831421,-6.652831554412842
703498,-0.0701904296875,-0.8095703125,0.0601806640625,36.7431640625,-2.807616949081421,-5.249022960662842
703567,-0.132568359375,-0.961669921875,-0.399658203125,34.85107421875,-2.3193359375,-5.310058116912842
703612,-0.1156005859375,-1.067138671875,-0.1539306640625,35.15625,1.220703125,-5.126952648162842
703629,-0.1112060546875,-1.016845703125,-0.15673828125,32.28759765625,0.9765624403953552,-5.310058116912842
703646,-0.1019287109375,-0.95947265625,-0.1448974609375,32.3486328125,0.8544921278953552,-4.94384765625
703664,-0.0850830078125,-0.89794921875,-0.089599609375,25.817869186401367,1.03759765625,-3.295898199081421
703680,-0.083251953125,-0.8905029296875,-0.0816650390625,24.169919967651367,1.0986328125,-1.5258787870407104
703713,-0.0577392578125,-0.913330078125,-0.09814453125,18.798828125,0.9155272841453552,0.9155272841453552
703730,-0.049072265625,-0.93798828125,-0.094970703125,14.709471702575684,0.6103515625,2.25830078125
703751,-0.034423828125,-0.9359130859375,-0.1363525390625,10.986327171325684,0.7934569716453552,3.479003667831421
703767,-0.0181884765625,-0.9718017578125,-0.156494140625,9.46044921875,0.6713866591453552,3.967284917831421
703784,-0.0030517578125,-0.98876953125,-0.200927734375,5.0048828125,0.4882812201976776,4.57763671875
703801,0.00634765625,-0.9879150390625,-0.2025146484375,2.13623046875,0.6103515625,4.7607421875
703834,0.02099609375,-1.00341796875,-0.1934814453125,-3.784179449081421,0.7324218153953552,5.371093273162842
703850,0.01708984375,-1.0068359375,-0.188232421875,-8.30078125,0.6713866591453552,5.554198741912842
703866,0.0059814453125,-1.019287109375,-0.1591796875,-10.925292015075684,0.7324218153953552,5.126952648162842
703894,-0.0126953125,-1.001953125,-0.1192626953125,-14.831542015075684,0.3662109076976776,4.57763671875
703916,-0.0211181640625,-1.0108642578125,-0.113525390625,-15.441893577575684,0.2441406100988388,4.2724609375
703932,-0.0347900390625,-1.0106201171875,-0.1080322265625,-17.333984375,0.0610351525247097,3.540038824081421
703949,-0.0458984375,-0.994140625,-0.0989990234375,-17.39501953125,0.0,3.295898199081421
703966,-0.058349609375,-0.9830322265625,-0.1156005859375,-18.49365234375,-0.30517578125,2.990722417831421
703982,-0.062744140625,-0.9775390625,-0.1258544921875,-18.49365234375,-0.30517578125,2.685546636581421
704014,-0.0693359375,-1.0228271484375,-0.126953125,-17.88330078125,-0.1220703050494194,2.44140625
704036,-0.0703125,-1.026611328125,-0.134033203125,-16.90673828125,-0.30517578125,1.5258787870407104
704052,-0.06640625,-0.9996337890625,-0.138916015625,-15.869139671325684,-0.0610351525247097,0.9155272841453552
704069,-0.06298828125,-0.9716796875,-0.1341552734375,-15.075682640075684,0.0,0.6713866591453552
704086,-0.0584716796875,-0.9249267578125,-0.0977783203125,-14.099120140075684,0.30517578125,0.2441406100988388
704102,-0.05712890625,-0.9130859375,-0.0811767578125,-11.901854515075684,0.1831054538488388,-0.1220703050494194
704134,-0.0419921875,-0.820556640625,-0.06640625,-9.09423828125,-0.30517578125,-0.7324218153953552
704156,-0.038818359375,-0.80419921875,-0.06884765625,-7.629394054412842,-0.4272460639476776,-0.6103515625
704172,-0.0362548828125,-0.801025390625,-0.0745849609375,-5.676269054412842,-0.30517578125,-0.7934569716453552
704189,-0.034912109375,-0.7950439453125,-0.0645751953125,-4.94384765625,-0.30517578125,-0.9765624403953552
704206,-0.0361328125,-0.7816162109375,-0.06640625,-3.723144292831421,-0.4272460639476776,-1.2817381620407104
704223,-0.0360107421875,-0.785400390625,-0.0654296875,-2.563476324081421,-0.4272460639476776,-1.2817381620407104
704254,-0.033935546875,-0.7808837890625,-0.052734375,-1.2817381620407104,-0.3662109076976776,-1.8310545682907104
704276,-0.03369140625,-0.78076171875,-0.0491943359375,-0.8544921278953552,-0.4272460639476776,-1.6479490995407104
704292,-0.03857421875,-0.814453125,-0.0401611328125,-0.2441406100988388,-0.4882812201976776,-1.4038084745407104
704309,-0.0460205078125,-0.85400390625,-0.0394287109375,-0.1831054538488388,-0.54931640625,-1.3427733182907104
704327,-0.0504150390625,-0.90966796875,-0.028564453125,0.4882812201976776,-0.6103515625,-1.4038084745407104
704344,-0.0516357421875,-0.9039306640625,-0.027587890625,0.7324218153953552,-0.8544921278953552,-1.8920897245407104
704374,-0.0513916015625,-0.9046630859375,-0.0419921875,1.220703125,-1.0986328125,-1.4648436307907104
704396,-0.0494384765625,-0.902099609375,-0.042724609375,1.220703125,-1.03759765625,-1.3427733182907104
704412,-0.04638671875,-0.8856201171875,-0.045166015625,0.7324218153953552,-0.9155272841453552,-1.03759765625
704429,-0.0472412109375,-0.90234375,-0.0426025390625,0.4882812201976776,-0.7934569716453552,-0.6713866591453552
704446,-0.0469970703125,-0.921630859375,-0.0428466796875,0.1220703050494194,-0.8544921278953552,-0.3662109076976776
704463,-0.044677734375,-0.937744140625,-0.0491943359375,-0.1831054538488388,-0.7934569716453552,-0.4882812201976776
704493,-0.043212890625,-0.9154052734375,-0.0577392578125,-1.2817381620407104,-0.6103515625,-0.6713866591453552
704510,-0.0438232421875,-0.91748046875,-0.0592041015625,-2.197265625,-0.4272460639476776,-0.4882812201976776
704526,-0.0474853515625,-0.9244384765625,-0.0545654296875,-2.807616949081421,-0.4272460639476776,-0.4882812201976776
704546,-0.0513916015625,-0.9134521484375,-0.055419921875,-4.0283203125,-0.3662109076976776,-0.6713866591453552
704566,-0.0472412109375,-0.9117431640625,-0.0399169921875,-5.432128429412842,-0.2441406100988388,-0.6103515625
704586,-0.0501708984375,-0.92236328125,-0.03466796875,-6.530761241912842,-0.30517578125,-0.4272460639476776
704606,-0.0560302734375,-0.96142578125,-0.0377197265625,-7.507323741912842,-0.4882812201976776,-0.30517578125
704626,-0.0577392578125,-0.96630859375,-0.032958984375,-7.934569835662842,-0.54931640625,-0.6713866591453552
704642,-0.0582275390625,-0.967529296875,-0.0360107421875,-8.1787109375,-0.7324218153953552,-0.7324218153953552
704658,-0.0614013671875,-0.9735107421875,-0.03466796875,-8.4228515625,-0.7934569716453552,-0.7934569716453552
704674,-0.063720703125,-0.9676513671875,-0.0355224609375,-8.544921875,-0.7934569716453552,-0.8544921278953552
704690,-0.0648193359375,-0.94482421875,-0.030517578125,-8.6669921875,-0.8544921278953552,-0.6103515625
704706,-0.06494140625,-0.9638671875,-0.027099609375,-8.7890625,-0.8544921278953552,-0.3662109076976776
704738,-0.0579833984375,-0.9794921875,-0.0263671875,-8.36181640625,-1.03759765625,-0.1831054538488388
704754,-0.0611572265625,-0.9920654296875,-0.0257568359375,-8.11767578125,-1.03759765625,0.0
704770,-0.0673828125,-1.032470703125,-0.0181884765625,-7.202147960662842,-1.15966796875,-0.0610351525247097
704786,-0.0645751953125,-1.0633544921875,-0.0218505859375,-6.652831554412842,-1.220703125,-0.1831054538488388
704806,-0.05859375,-1.050537109375,-0.0186767578125,-5.554198741912842,-1.4038084745407104,-0.6713866591453552
704822,-0.0579833984375,-1.037109375,-0.0191650390625,-4.638671875,-1.5869139432907104,-0.7934569716453552
704838,-0.06201171875,-1.00830078125,-0.0240478515625,-3.967284917831421,-1.7089842557907104,-0.54931640625
704854,-0.0638427734375,-0.995849609375,-0.02685546875,-3.723144292831421,-1.6479490995407104,-0.30517578125
704870,-0.0628662109375,-0.9888916015625,-0.019287109375,-3.173827886581421,-1.8310545682907104,0.1831054538488388
704886,-0.061767578125,-0.9947509765625,-0.026611328125,-2.929687261581421,-1.8920897245407104,0.3662109076976776
704914,-0.052490234375,-1.0394287109375,-0.03466796875,-1.7700194120407104,-1.8310545682907104,0.9155272841453552
704936,-0.0498046875,-1.0509033203125,-0.02880859375,-0.6713866591453552,-1.7700194120407104,1.03759765625
704952,-0.0430908203125,-1.074462890625,-0.0294189453125,0.0,-1.8310545682907104,0.9155272841453552
704969,-0.0345458984375,-1.043701171875,-0.0302734375,1.4038084745407104,-1.8310545682907104,0.4272460639476776
704986,-0.031005859375,-1.0360107421875,-0.0301513671875,2.50244140625,-1.8310545682907104,0.6103515625
705002,-0.027099609375,-1.0562744140625,-0.02734375,3.051757574081421,-1.8310545682907104,0.6713866591453552
705034,-0.034912109375,-1.06103515625,-0.0167236328125,5.126952648162842,-1.8310545682907104,-0.0610351525247097
705056,-0.042724609375,-1.0556640625,-0.012939453125,6.042479991912842,-1.7700194120407104,0.0
705072,-0.0428466796875,-1.0657958984375,-0.006591796875,6.225585460662842,-1.8310545682907104,0.0610351525247097
705089,-0.0445556640625,-1.078369140625,-0.010009765625,6.347655773162842,-1.8920897245407104,-0.0610351525247097
705106,-0.0455322265625,-1.0687255859375,-0.0106201171875,6.347655773162842,-1.7700194120407104,-0.30517578125
705123,-0.0516357421875,-1.05322265625,-0.0108642578125,6.347655773162842,-1.8310545682907104,-0.0610351525247097
705153,-0.05810546875,-1.062255859375,-0.009765625,5.615233898162842,-1.9531248807907104,0.4272460639476776
705170,-0.0609130859375,-1.0513916015625,-0.0111083984375,5.0048828125,-2.01416015625,0.7934569716453552
705186,-0.0618896484375,-1.0557861328125,-0.014892578125,4.7607421875,-2.13623046875,1.220703125
705214,-0.0576171875,-1.04638671875,-0.0355224609375,3.662109136581421,-2.01416015625,1.0986328125
705236,-0.0550537109375,-1.0247802734375,-0.0303955078125,2.929687261581421,-1.7700194120407104,2.0751953125
705252,-0.057861328125,-1.06396484375,-0.029541015625,2.685546636581421,-1.8310545682907104,2.807616949081421
705269,-0.056640625,-1.1171875,-0.031494140625,2.50244140625,-1.8920897245407104,3.356933355331421
705286,-0.05322265625,-1.1312255859375,-0.0411376953125,2.50244140625,-1.8310545682907104,3.295898199081421
705302,-0.045166015625,-1.144775390625,-0.05419921875,2.563476324081421,-1.7089842557907104,3.173827886581421
705334,-0.036376953125,-1.085205078125,-0.0560302734375,2.0751953125,-1.3427733182907104,3.173827886581421
705350,-0.0379638671875,-1.0772705078125,-0.0634765625,1.4648436307907104,-1.03759765625,3.662109136581421
705414,-0.0445556640625,-1.1175537109375,-0.069580078125,0.0,-0.30517578125,3.051757574081421
705466,-0.0560302734375,-1.04052734375,-0.0643310546875,-1.7089842557907104,0.6713866591453552,2.624511480331421
705483,-0.0604248046875,-1.0252685546875,-0.0574951171875,-2.13623046875,0.7324218153953552,2.685546636581421
705513,-0.0621337890625,-1.041748046875,-0.065185546875,-3.784179449081421,1.220703125,2.13623046875
705529,-0.082275390625,-1.0009765625,-0.0604248046875,-4.08935546875,1.4038084745407104,1.7700194120407104
705546,-0.137939453125,-0.9061279296875,-0.0450439453125,-3.051757574081421,1.4648436307907104,3.601073980331421
705575,-0.08984375,-0.7916259765625,-0.0308837890625,1.8920897245407104,0.2441406100988388,12.451170921325684
705596,-0.022705078125,-0.9200439453125,-0.0472412109375,-1.15966796875,0.6103515625,12.695311546325684
705613,-0.057861328125,-2.2366943359375,-0.0552978515625,-0.2441406100988388,0.8544921278953552,11.596678733825684
705630,-0.03076171875,-2.820068359375,-0.0838623046875,-1.15966796875,1.8310545682907104,-2.0751953125
705680,-0.0279541015625,-1.2296142578125,-0.0155029296875,-1.4038084745407104,-0.54931640625,7.263183116912842
705712,0.0213623046875,-0.7410888671875,0.0087890625,-9.94873046875,0.8544921278953552,-4.638671875
705729,0.0003662109375,-0.3870849609375,0.0338134765625,-6.408690929412842,-0.30517578125,0.8544921278953552
705745,-0.088134765625,-1.2972412109375,-0.02978515625,-6.042479991912842,-0.3662109076976776,2.50244140625
705766,-0.0155029296875,-0.946533203125,-0.0206298828125,-6.896972179412842,-0.2441406100988388,-0.8544921278953552
705782,-0.0135498046875,-0.9476318359375,-0.032958984375,-6.896972179412842,0.0,0.9765624403953552
705799,-0.0347900390625,-1.0888671875,-0.0224609375,-7.080077648162842,0.1220703050494194,0.7934569716453552
705816,-0.0372314453125,-0.9617919921875,0.0048828125,-6.896972179412842,-0.0610351525247097,0.1220703050494194
705841,-0.0389404296875,-0.98486328125,0.0078125,-6.225585460662842,-0.1831054538488388,0.7934569716453552
705857,-0.0269775390625,-1.00439453125,-0.0118408203125,-6.042479991912842,-0.1831054538488388,0.30517578125
705876,-0.026123046875,-0.9859619140625,-0.0047607421875,-5.615233898162842,-0.1220703050494194,0.6103515625
705893,-0.0369873046875,-1.01025390625,0.0072021484375,-5.371093273162842,0.0,0.3662109076976776
705909,-0.034423828125,-0.9710693359375,0.0157470703125,-4.7607421875,-0.0610351525247097,0.4272460639476776
705930,-0.031005859375,-1.0042724609375,0.017333984375,-3.601073980331421,-0.2441406100988388,0.4882812201976776
705947,-0.02490234375,-0.9852294921875,0.0120849609375,-2.868652105331421,-0.30517578125,0.30517578125
705963,-0.03564453125,-0.99853515625,0.0042724609375,-2.13623046875,-0.2441406100988388,0.3662109076976776
705995,-0.031494140625,-0.9796142578125,0.0133056640625,-1.15966796875,-0.1220703050494194,0.30517578125
706016,-0.0264892578125,-1.0042724609375,0.0191650390625,-0.4272460639476776,-0.2441406100988388,0.2441406100988388
706032,-0.03125,-0.986572265625,0.0146484375,0.0,-0.30517578125,0.1831054538488388
706049,-0.0355224609375,-0.9947509765625,0.0074462890625,0.4882812201976776,-0.3662109076976776,0.2441406100988388
706115,-0.03076171875,-1.002197265625,0.0089111328125,1.15966796875,-0.30517578125,0.2441406100988388
706132,-0.0357666015625,-0.9888916015625,0.0028076171875,1.2817381620407104,-0.30517578125,0.2441406100988388
706148,-0.0352783203125,-0.9888916015625,0.00048828125,1.220703125,-0.30517578125,0.2441406100988388
706184,-0.0301513671875,-0.9915771484375,0.001953125,0.54931640625,-0.2441406100988388,0.2441406100988388
706206,-0.033447265625,-1.0001220703125,0.0040283203125,0.4272460639476776,-0.30517578125,0.2441406100988388
706222,-0.0328369140625,-0.9888916015625,-0.0001220703125,0.30517578125,-0.30517578125,0.4272460639476776
706243,-0.03271484375,-0.995361328125,-0.0029296875,-0.1220703050494194,-0.30517578125,0.4882812201976776
706260,-0.030517578125,-1.00048828125,-0.00146484375,-0.7324218153953552,-0.1831054538488388,0.30517578125
706276,-0.0321044921875,-0.9979248046875,0.0048828125,-0.9155272841453552,-0.1831054538488388,0.30517578125
706326,-0.031982421875,-0.9967041015625,0.0018310546875,-1.7089842557907104,-0.2441406100988388,0.1831054538488388
706385,-0.0330810546875,-0.9991455078125,0.0029296875,-2.01416015625,-0.30517578125,0.0
706428,-0.0291748046875,-0.988037109375,-0.0152587890625,-6.103515148162842,-0.3662109076976776,1.03759765625
706445,-0.0137939453125,-0.990478515625,-0.03076171875,-7.751464366912842,-0.54931640625,2.197265625
706478,-0.041015625,-1.056884765625,-0.1588134765625,-19.71435546875,-0.4272460639476776,12.817381858825684
706494,-0.053955078125,-1.91162109375,-0.1915283203125,-16.11328125,2.25830078125,12.817381858825684
706511,-0.0399169921875,-2.400634765625,-0.099609375,-10.253905296325684,3.479003667831421,5.615233898162842
706543,-0.0302734375,-2.1243896484375,0.1749267578125,12.329100608825684,-0.54931640625,-10.253905296325684
706605,-0.0655517578125,-1.407470703125,0.3035888671875,19.59228515625,0.6713866591453552,-3.784179449081421
706622,-0.072509765625,-1.4666748046875,0.2462158203125,21.057126998901367,-0.6713866591453552,-1.7700194120407104
706653,-0.0548095703125,-1.65625,0.11669921875,20.996091842651367,-0.2441406100988388,-2.3193359375
706669,-0.04541015625,-1.615478515625,0.1187744140625,19.1650390625,0.30517578125,-3.173827886581421
706685,-0.0489501953125,-1.5244140625,0.106201171875,17.15087890625,-0.0610351525247097,-2.868652105331421
706718,-0.0614013671875,-1.4515380859375,-0.0179443359375,11.596678733825684,0.3662109076976776,-1.9531248807907104
706750,-0.03271484375,-1.298583984375,-0.0904541015625,3.662109136581421,1.2817381620407104,-2.197265625
706792,-0.027587890625,-1.1026611328125,-0.0794677734375,-3.173827886581421,1.5258787870407104,-3.234863042831421
706809,-0.033935546875,-0.880859375,-0.1341552734375,-4.5166015625,1.5258787870407104,-3.540038824081421
706825,-0.020751953125,-0.689453125,-0.0943603515625,-8.4228515625,1.8310545682907104,-2.868652105331421
706844,-0.0238037109375,-0.563232421875,-0.1094970703125,-11.413573265075684,2.01416015625,-2.0751953125
706861,-0.021728515625,-0.502685546875,-0.0902099609375,-12.634276390075684,1.9531248807907104,-2.01416015625
706877,-0.0203857421875,-0.354736328125,-0.08740234375,-13.977049827575684,2.13623046875,-1.8310545682907104
706893,-0.0166015625,-0.2083740234375,-0.0701904296875,-14.770506858825684,2.13623046875,-1.5258787870407104
706910,-0.017333984375,-0.1431884765625,-0.070556640625,-16.845703125,2.01416015625,-0.54931640625
706931,-0.0205078125,-0.0655517578125,-0.064697265625,-18.98193359375,2.44140625,0.4882812201976776
706947,-0.01513671875,-0.01123046875,-0.045166015625,-19.95849609375,2.50244140625,1.03759765625
706964,-0.0120849609375,-0.01611328125,-0.0355224609375,-21.545408248901367,2.563476324081421,2.25830078125
706981,-0.0069580078125,-0.03271484375,-0.0274658203125,-22.705076217651367,2.50244140625,2.746581792831421
707014,-0.00390625,-0.104736328125,-0.0318603515625,-23.864744186401367,2.624511480331421,3.112792730331421
707031,-0.00390625,-0.14892578125,-0.037109375,-24.047849655151367,2.3193359375,3.784179449081421
707048,-0.0054931640625,-0.263427734375,-0.04833984375,-23.193357467651367,1.4038084745407104,4.39453125
707069,-0.0250244140625,-0.427978515625,-0.1705322265625,-22.399900436401367,0.9765624403953552,4.8828125
707085,-0.0328369140625,-0.707763671875,-0.2281494140625,-20.812986373901367,2.0751953125,5.615233898162842
707102,-0.03271484375,-0.8382568359375,-0.1785888671875,-18.4326171875,4.08935546875,4.82177734375
707135,-0.0255126953125,-1.13671875,0.1820068359375,-12.145995140075684,3.906249761581421,2.624511480331421
707185,-0.0489501953125,-1.2366943359375,0.11474609375,5.126952648162842,0.1831054538488388,-0.7324218153953552
707207,-0.0421142578125,-1.1429443359375,0.21435546875,8.11767578125,0.4272460639476776,-2.197265625
707224,-0.0411376953125,-1.0816650390625,0.253662109375,12.451170921325684,0.1831054538488388,-2.746581792831421
707257,-0.052978515625,-0.92333984375,0.164794921875,21.301267623901367,-0.6713866591453552,-3.295898199081421
707274,-0.053955078125,-0.8614501953125,0.1480712890625,24.169919967651367,-0.6713866591453552,-2.929687261581421
707291,-0.0562744140625,-0.8355712890625,0.1160888671875,26.733396530151367,-0.1831054538488388,-1.8920897245407104
707307,-0.055419921875,-0.826171875,0.1280517578125,29.968259811401367,-0.54931640625,-1.3427733182907104
707327,-0.052978515625,-0.848388671875,0.093505859375,32.71484375,-1.220703125,-0.8544921278953552
707343,-0.0560302734375,-0.8682861328125,0.031005859375,34.1796875,-1.4648436307907104,-0.6713866591453552
707359,-0.055419921875,-0.9073486328125,-0.0931396484375,35.58349609375,-0.9155272841453552,-0.30517578125
707375,-0.0521240234375,-0.937744140625,-0.1365966796875,35.58349609375,-0.2441406100988388,-0.0610351525247097
707391,-0.0457763671875,-0.9578857421875,-0.1014404296875,37.2314453125,0.8544921278953552,0.2441406100988388
707407,-0.0277099609375,-1.0390625,0.03515625,41.259761810302734,0.2441406100988388,0.0610351525247097
707439,-0.029052734375,-1.05029296875,-0.049072265625,45.043941497802734,-0.2441406100988388,-0.9765624403953552
707455,-0.017822265625,-1.0394287109375,-0.019287109375,44.616695404052734,-0.2441406100988388,-0.9765624403953552
707471,-0.0162353515625,-1.0355224609375,-0.0225830078125,44.006343841552734,-0.54931640625,-1.03759765625
707487,-0.014892578125,-1.017333984375,-0.026123046875,42.785640716552734,-0.54931640625,-1.7089842557907104
707507,-0.0145263671875,-0.9376220703125,-0.0321044921875,40.954586029052734,-0.7324218153953552,-1.5869139432907104
707529,-0.015625,-0.9266357421875,-0.038818359375,40.0390625,-0.7934569716453552,-1.3427733182907104
707545,-0.0179443359375,-0.9285888671875,-0.0662841796875,35.70556640625,-0.9155272841453552,-0.9765624403953552
707562,-0.0234375,-0.9510498046875,-0.1033935546875,32.1044921875,-0.6103515625,-1.220703125
707579,-0.0308837890625,-0.936279296875,-0.141845703125,28.930662155151367,-0.4272460639476776,-1.3427733182907104
707612,-0.0360107421875,-0.938232421875,-0.1705322265625,17.88330078125,0.6103515625,-1.0986328125
707629,-0.040283203125,-0.9290771484375,-0.160400390625,13.244627952575684,1.220703125,-1.3427733182907104
707645,-0.0406494140625,-0.9278564453125,-0.1361083984375,10.803221702575684,1.3427733182907104,-1.4038084745407104
707677,-0.0496826171875,-0.91650390625,-0.123291015625,1.7089842557907104,1.15966796875,-0.9155272841453552
707693,-0.0509033203125,-0.9229736328125,-0.1297607421875,-0.4882812201976776,1.15966796875,-1.03759765625
707713,-0.0491943359375,-0.8980712890625,-0.13525390625,-3.784179449081421,1.4648436307907104,-1.5258787870407104
707729,-0.0447998046875,-0.83935546875,-0.12109375,-7.568358898162842,1.4038084745407104,-1.5869139432907104
707746,-0.043212890625,-0.8218994140625,-0.1148681640625,-9.33837890625,1.3427733182907104,-1.5869139432907104
707771,-0.0430908203125,-0.7708740234375,-0.1092529296875,-14.038084983825684,1.220703125,-1.5258787870407104
707787,-0.0491943359375,-0.7100830078125,-0.0992431640625,-18.310546875,1.3427733182907104,-0.8544921278953552
707804,-0.0526123046875,-0.7315673828125,-0.1004638671875,-22.460935592651367,1.0986328125,0.3662109076976776
707825,-0.056396484375,-0.7935791015625,-0.0947265625,-25.634763717651367,0.9765624403953552,0.54931640625
707858,-0.061279296875,-0.8681640625,-0.0821533203125,-29.052732467651367,0.6103515625,1.4648436307907104
707879,-0.0655517578125,-0.9215087890625,-0.0799560546875,-28.991697311401367,0.4882812201976776,1.6479490995407104
707895,-0.065673828125,-0.94189453125,-0.075927734375,-28.686521530151367,0.4272460639476776,1.5869139432907104
707911,-0.0660400390625,-0.941162109375,-0.0665283203125,-27.770994186401367,0.3662109076976776,1.4648436307907104
707928,-0.0635986328125,-0.9178466796875,-0.0509033203125,-26.855466842651367,0.2441406100988388,1.5258787870407104
707949,-0.0621337890625,-0.9095458984375,-0.0457763671875,-25.085447311401367,0.0,1.9531248807907104
707965,-0.059814453125,-0.9022216796875,-0.037841796875,-23.071287155151367,-0.2441406100988388,2.38037109375
707982,-0.0582275390625,-0.903076171875,-0.03759765625,-22.033689498901367,-0.4272460639476776,2.44140625
707999,-0.05224609375,-0.8995361328125,-0.02783203125,-19.775390625,-0.4882812201976776,2.685546636581421
708032,-0.046630859375,-0.9246826171875,-0.0223388671875,-14.770506858825684,-0.9155272841453552,2.746581792831421
708049,-0.0462646484375,-0.928466796875,-0.019775390625,-12.145995140075684,-1.0986328125,2.624511480331421
708065,-0.048828125,-0.9305419921875,-0.0189208984375,-10.925292015075684,-1.15966796875,2.624511480331421
708097,-0.0487060546875,-0.9444580078125,-0.008544921875,-7.141112804412842,-1.4648436307907104,2.3193359375
708113,-0.0484619140625,-0.942626953125,-0.00927734375,-4.638671875,-1.7089842557907104,2.13623046875
708129,-0.04736328125,-0.94482421875,-0.0052490234375,-2.44140625,-1.8920897245407104,2.01416015625
708145,-0.0460205078125,-0.940673828125,-0.0009765625,-1.4648436307907104,-2.01416015625,1.8920897245407104
708165,-0.0445556640625,-0.9246826171875,-0.0008544921875,0.3662109076976776,-2.197265625,1.8920897245407104
708187,-0.0394287109375,-0.92626953125,0.0025634765625,2.01416015625,-2.38037109375,2.13623046875
708203,-0.03369140625,-0.9578857421875,0.0087890625,2.868652105331421,-2.38037109375,2.197265625
708220,-0.03515625,-0.978515625,0.0142822265625,4.57763671875,-2.624511480331421,2.01416015625
708237,-0.0394287109375,-0.9825439453125,0.0087890625,5.920409679412842,-2.990722417831421,1.8310545682907104
708270,-0.0400390625,-1.016357421875,-0.0135498046875,7.446288585662842,-3.112792730331421,1.7089842557907104
708287,-0.0372314453125,-1.0089111328125,-0.01220703125,7.690429210662842,-3.173827886581421,1.6479490995407104
708303,-0.0416259765625,-0.9945068359375,-0.0155029296875,7.995604991912842,-3.356933355331421,1.9531248807907104
708335,-0.0411376953125,-1.0224609375,-0.02783203125,7.812499523162842,-3.540038824081421,2.685546636581421
708351,-0.0355224609375,-1.0472412109375,-0.03173828125,7.690429210662842,-3.601073980331421,2.563476324081421
708367,-0.0343017578125,-1.0545654296875,-0.031494140625,7.568358898162842,-3.662109136581421,2.44140625
708400,-0.018310546875,-1.0362548828125,-0.0389404296875,6.103515148162842,-3.601073980331421,2.50244140625
708421,-0.01513671875,-1.0418701171875,-0.0419921875,5.615233898162842,-3.540038824081421,2.44140625
708437,-0.0093994140625,-1.0443115234375,-0.043212890625,4.57763671875,-3.601073980331421,2.50244140625
708453,-0.0091552734375,-1.0936279296875,-0.0478515625,4.150390625,-3.662109136581421,2.44140625
708469,-0.0013427734375,-1.115234375,-0.0487060546875,3.417968511581421,-3.540038824081421,1.7089842557907104
708486,0.001708984375,-1.1171875,-0.0548095703125,2.868652105331421,-3.479003667831421,0.9765624403953552
708519,-0.00146484375,-1.106689453125,-0.0538330078125,1.8920897245407104,-3.295898199081421,0.0610351525247097
708535,-0.0030517578125,-1.1009521484375,-0.0526123046875,1.220703125,-3.234863042831421,-0.4882812201976776
708551,-0.0081787109375,-1.09130859375,-0.0596923828125,0.6103515625,-3.051757574081421,-1.0986328125
708567,-0.008544921875,-1.076416015625,-0.05908203125,0.1831054538488388,-3.051757574081421,-1.2817381620407104
708591,-0.0096435546875,-1.058837890625,-0.0577392578125,-0.3662109076976776,-2.868652105331421,-1.220703125
708607,-0.0159912109375,-1.0819091796875,-0.0540771484375,-0.8544921278953552,-2.746581792831421,-1.3427733182907104
708624,-0.024169921875,-1.0875244140625,-0.0595703125,-1.03759765625,-2.624511480331421,-1.5258787870407104
708641,-0.0277099609375,-1.069580078125,-0.0623779296875,-1.2817381620407104,-2.563476324081421,-1.7700194120407104
708657,-0.028076171875,-1.0518798828125,-0.0615234375,-1.5258787870407104,-2.3193359375,-1.9531248807907104
708691,-0.0345458984375,-1.0228271484375,-0.0491943359375,-1.5258787870407104,-2.01416015625,-1.220703125
708708,-0.0355224609375,-1.0213623046875,-0.0518798828125,-1.4038084745407104,-2.01416015625,-1.03759765625
708729,-0.038330078125,-1.0333251953125,-0.0550537109375,-1.15966796875,-1.8920897245407104,-0.6713866591453552
708745,-0.0416259765625,-1.0386962890625,-0.054443359375,-0.9155272841453552,-1.7700194120407104,-0.6103515625
708762,-0.04541015625,-1.010986328125,-0.0516357421875,-0.7324218153953552,-1.7089842557907104,-0.54931640625
708779,-0.0458984375,-1.0069580078125,-0.0482177734375,-0.30517578125,-1.6479490995407104,0.0
708812,-0.0421142578125,-1.000732421875,-0.05029296875,0.0610351525247097,-1.4038084745407104,0.54931640625
708829,-0.0413818359375,-0.99853515625,-0.048828125,0.1831054538488388,-1.2817381620407104,0.7324218153953552
708845,-0.0413818359375,-0.983154296875,-0.0386962890625,0.4882812201976776,-1.0986328125,0.9765624403953552
708877,-0.035888671875,-0.9595947265625,-0.040771484375,0.6103515625,-0.9155272841453552,1.4648436307907104
708898,-0.03173828125,-0.9898681640625,-0.0367431640625,0.6103515625,-0.6103515625,1.7700194120407104
708914,-0.0352783203125,-1.0155029296875,-0.02783203125,0.6713866591453552,-0.4882812201976776,1.6479490995407104
708931,-0.0386962890625,-1.0208740234375,-0.0211181640625,0.9765624403953552,-0.1831054538488388,1.4038084745407104
708948,-0.0433349609375,-1.0299072265625,-0.01611328125,1.5869139432907104,-0.0610351525247097,1.2817381620407104
708964,-0.040771484375,-1.06103515625,-0.0277099609375,1.8310545682907104,0.0610351525247097,1.3427733182907104
708998,-0.0377197265625,-1.0924072265625,-0.0128173828125,3.051757574081421,0.9155272841453552,0.2441406100988388
709014,-0.0419921875,-1.071533203125,0.0003662109375,3.845214605331421,1.03759765625,-0.1220703050494194
709030,-0.046630859375,-1.064697265625,0.0023193359375,4.21142578125,1.0986328125,-0.1831054538488388
709046,-0.04833984375,-1.0657958984375,-0.004150390625,4.57763671875,1.0986328125,-0.30517578125
709066,-0.05224609375,-1.0740966796875,-0.0125732421875,4.7607421875,1.2817381620407104,-0.30517578125
709083,-0.0555419921875,-1.074951171875,-0.02001953125,5.0048828125,1.3427733182907104,-0.1831054538488388
709104,-0.058349609375,-1.08837890625,-0.025634765625,5.187987804412842,1.4648436307907104,-0.1220703050494194
709122,-0.0606689453125,-1.1041259765625,-0.0369873046875,5.676269054412842,1.6479490995407104,-0.54931640625
709138,-0.05712890625,-1.0751953125,-0.04345703125,6.347655773162842,1.8310545682907104,-0.54931640625
709171,-0.0543212890625,-1.074462890625,-0.046142578125,7.934569835662842,2.01416015625,-0.1220703050494194
709188,-0.0738525390625,-0.98046875,-0.03955078125,10.925292015075684,1.6479490995407104,1.15966796875
709205,-0.069580078125,-0.717041015625,-0.0186767578125,18.310546875,0.3662109076976776,10.253905296325684
709237,-0.0242919921875,-2.322998046875,-0.0748291015625,9.33837890625,0.1831054538488388,5.493163585662842
709258,0.0216064453125,-1.3712158203125,-0.0377197265625,0.6103515625,0.6713866591453552,-5.371093273162842
709274,-0.0032958984375,-0.479248046875,-0.024169921875,-0.1831054538488388,0.1220703050494194,-3.723144292831421
709291,-0.01171875,-0.6456298828125,-0.0478515625,-3.540038824081421,0.0,-1.7089842557907104
709308,-0.0145263671875,-0.80078125,-0.0450439453125,-1.4038084745407104,-0.0610351525247097,-1.6479490995407104
709324,-0.074462890625,-1.2578125,-0.113525390625,2.868652105331421,-0.30517578125,-1.15966796875
709357,-0.005615234375,-0.8770751953125,-0.085693359375,4.82177734375,-0.6103515625,-1.15966796875
709374,-0.0355224609375,-0.861083984375,-0.1092529296875,3.540038824081421,-0.1220703050494194,-0.6103515625
709390,-0.05615234375,-1.0484619140625,-0.1097412109375,2.746581792831421,0.30517578125,0.0
709406,-0.0430908203125,-1.05029296875,-0.053466796875,1.9531248807907104,-0.1220703050494194,-0.30517578125
709426,-0.018310546875,-0.8997802734375,-0.0238037109375,2.685546636581421,-0.3662109076976776,0.4272460639476776
709442,-0.029052734375,-1.0657958984375,-0.0869140625,2.624511480331421,-0.6103515625,0.2441406100988388
709458,-0.0299072265625,-1.0062255859375,-0.0908203125,2.197265625,-0.3662109076976776,-0.30517578125
709474,-0.0411376953125,-0.9638671875,-0.0869140625,1.7700194120407104,-0.1831054538488388,0.3662109076976776
709490,-0.04345703125,-0.998291015625,-0.074951171875,1.5869139432907104,0.0,0.3662109076976776
709506,-0.03076171875,-0.9927978515625,-0.0474853515625,1.7089842557907104,-0.2441406100988388,0.1220703050494194
709538,-0.02978515625,-0.9896240234375,-0.0679931640625,1.8920897245407104,-0.54931640625,0.1220703050494194
709554,-0.0369873046875,-0.9913330078125,-0.0919189453125,0.9765624403953552,-0.30517578125,0.1831054538488388
709570,-0.036376953125,-0.9937744140625,-0.088623046875,0.4882812201976776,-0.2441406100988388,0.1831054538488388
709586,-0.033935546875,-0.99462890625,-0.074951171875,-0.30517578125,-0.1220703050494194,0.1220703050494194
709606,-0.0330810546875,-0.986328125,-0.066650390625,-0.9155272841453552,-0.2441406100988388,0.0610351525247097
709628,-0.03271484375,-0.9888916015625,-0.070556640625,-1.15966796875,-0.2441406100988388,0.0
709644,-0.0335693359375,-0.9951171875,-0.083740234375,-1.8920897245407104,-0.2441406100988388,0.0
709661,-0.033447265625,-0.9908447265625,-0.0791015625,-2.685546636581421,-0.1220703050494194,0.0610351525247097
709711,-0.029541015625,-0.97412109375,-0.0596923828125,-3.723144292831421,-0.54931640625,3.417968511581421
709728,-0.0240478515625,-1.010986328125,-0.0849609375,-5.126952648162842,-2.01416015625,8.6669921875
709744,-0.03857421875,-1.53369140625,-0.265380859375,-4.7607421875,-1.4038084745407104,15.197752952575684
709776,-0.0467529296875,-2.669189453125,-0.1103515625,8.72802734375,2.624511480331421,-4.150390625
709792,-0.0283203125,-2.526123046875,0.0357666015625,14.831542015075684,1.5869139432907104,-8.23974609375
709808,-0.0377197265625,-2.02099609375,0.0430908203125,22.766111373901367,-0.7324218153953552,-10.925292015075684
709844,-0.0706787109375,-1.4674072265625,0.0869140625,28.198240280151367,-0.2441406100988388,-6.469726085662842
709892,-0.0623779296875,-1.64599609375,0.00439453125,32.77587890625,-1.7700194120407104,-4.5166015625
709909,-0.0736083984375,-1.6568603515625,-0.10400390625,33.02001953125,-2.01416015625,-6.225585460662842
709930,-0.0777587890625,-1.4912109375,-0.181396484375,31.005857467651367,-0.54931640625,-6.347655773162842
709946,-0.0560302734375,-1.369140625,-0.1715087890625,29.357908248901367,-0.3662109076976776,-5.615233898162842
709963,-0.052490234375,-1.3555908203125,-0.16943359375,25.329587936401367,-0.1831054538488388,-4.2724609375
709980,-0.055908203125,-1.288330078125,-0.18310546875,20.874021530151367,-0.6713866591453552,-4.638671875
710013,-0.0501708984375,-1.10595703125,-0.2642822265625,12.084959983825684,-0.30517578125,-4.150390625
710030,-0.036865234375,-0.9510498046875,-0.26806640625,4.8828125,0.7934569716453552,-3.723144292831421
710046,-0.026611328125,-0.7608642578125,-0.2186279296875,-0.8544921278953552,1.03759765625,-3.112792730331421
710079,-0.030029296875,-0.5687255859375,-0.1512451171875,-7.507323741912842,0.6103515625,-1.4648436307907104
710100,-0.02685546875,-0.45263671875,-0.1456298828125,-11.108397483825684,0.7934569716453552,-0.2441406100988388
710116,-0.0179443359375,-0.3690185546875,-0.128173828125,-12.817381858825684,0.7934569716453552,0.30517578125
710132,-0.0152587890625,-0.334716796875,-0.1121826171875,-14.648436546325684,0.8544921278953552,1.5258787870407104
710148,-0.0140380859375,-0.3250732421875,-0.0975341796875,-15.319823265075684,0.7324218153953552,2.01416015625
710165,-0.0107421875,-0.2486572265625,-0.0831298828125,-16.29638671875,0.8544921278953552,1.9531248807907104
710199,-0.009765625,-0.143798828125,-0.0555419921875,-18.1884765625,0.9765624403953552,3.356933355331421
