tMillis,ax,ay,az,gx,gy,gz
195602,0.045288086,0.016723633,1.022827148,0.7934569716453552,-0.24414061,0.2441406100988388
195619,0.044677734,0.017089844,1.024169922,0.8544921278953552,-0.305175781,0.2441406100988388
195635,0.044555664,0.016601563,1.022338867,0.8544921278953552,-0.305175781,0.2441406100988388
195652,0.045043945,0.015869141,1.023193359,0.8544921278953552,-0.24414061,0.2441406100988388
195668,0.044067383,0.01574707,1.024414063,0.7934569716453552,-0.183105454,0.2441406100988388
195719,0.044433594,0.015625,1.025146484,0.7934569716453552,-0.24414061,0.2441406100988388
195756,0.044799805,0.016845703,1.024291992,0.7934569716453552,-0.24414061,0.2441406100988388
195844,0.044433594,0.017211914,1.024414063,0.7934569716453552,-0.183105454,0.1831054538488388
195861,0.043945313,0.016357422,1.025024414,0.8544921278953552,-0.24414061,0.305175781
195894,0.044799805,0.017211914,1.024658203,0.7934569716453552,-0.24414061,0.1831054538488388
195915,0.044921875,0.015869141,1.023925781,0.7934569716453552,-0.305175781,0.2441406100988388
195931,0.045288086,0.016113281,1.025024414,0.7934569716453552,-0.305175781,0.2441406100988388
195951,0.044799805,0.015991211,1.024291992,0.8544921278953552,-0.24414061,0.2441406100988388
195973,0.044799805,0.016113281,1.023193359,0.8544921278953552,-0.24414061,0.1831054538488388
195989,0.044677734,0.016723633,1.023681641,0.8544921278953552,-0.183105454,0.1220703050494194
196008,0.044799805,0.017089844,1.024291992,0.8544921278953552,-0.24414061,0.1831054538488388
196074,0.043579102,0.016601563,1.025146484,0.7934569716453552,-0.24414061,0.2441406100988388
196146,0.044555664,0.017333984,1.024414063,0.7934569716453552,-0.305175781,0.1831054538488388
196163,0.044189453,0.016479492,1.023925781,0.7934569716453552,-0.305175781,0.2441406100988388
196199,0.044311523,0.015869141,1.0234375,0.8544921278953552,-0.24414061,0.305175781
196216,0.043945313,0.016357422,1.024536133,0.8544921278953552,-0.24414061,0.2441406100988388
196232,0.044311523,0.016723633,1.025024414,0.8544921278953552,-0.24414061,0.2441406100988388
196248,0.044799805,0.016479492,1.025268555,0.8544921278953552,-0.24414061,0.2441406100988388
196265,0.044555664,0.015258789,1.024780273,0.8544921278953552,-0.24414061,0.2441406100988388
196286,0.044189453,0.015991211,1.024169922,0.8544921278953552,-0.24414061,0.2441406100988388
196302,0.043945313,0.016601563,1.024414063,0.7934569716453552,-0.305175781,0.2441406100988388
196369,0.044433594,0.016723633,1.023071289,0.8544921278953552,-0.24414061,0.1831054538488388
196385,0.044799805,0.016357422,1.025024414,0.7934569716453552,-0.183105454,0.1220703050494194
196402,0.044921875,0.015869141,1.024414063,0.7934569716453552,-0.24414061,0.2441406100988388
196434,0.044921875,0.016235352,1.022338867,0.7934569716453552,-0.24414061,0.1831054538488388
196498,0.044555664,0.016601563,1.0234375,0.8544921278953552,-0.305175781,0.1831054538488388
196560,0.043823242,0.015625,1.024291992,0.8544921278953552,-0.305175781,0.2441406100988388
196577,0.043945313,0.016967773,1.024047852,0.9155272841453552,-0.24414061,0.1831054538488388
196610,0.043701172,0.016845703,1.023925781,0.8544921278953552,-0.24414061,0.305175781
196626,0.045410156,0.016967773,1.022705078,0.8544921278953552,-0.305175781,0.1831054538488388
196642,0.044677734,0.016723633,1.024414063,0.8544921278953552,-0.305175781,0.2441406100988388
196675,0.045410156,0.016113281,1.022094727,0.7934569716453552,-0.183105454,0.2441406100988388
196723,0.044067383,0.016113281,1.024780273,0.7934569716453552,-0.305175781,0.2441406100988388
196803,0.043823242,0.016601563,1.024902344,0.9155272841453552,-0.24414061,0.1831054538488388
196820,0.043945313,0.017456055,1.023925781,0.9155272841453552,-0.24414061,0.1831054538488388
196853,0.044311523,0.016845703,1.023071289,0.8544921278953552,-0.305175781,0.1831054538488388
196886,0.044799805,0.017089844,1.024658203,0.7934569716453552,-0.24414061,0.1831054538488388
196929,0.044921875,0.015380859,1.022216797,0.9155272841453552,-0.305175781,0.2441406100988388
196946,0.044189453,0.015380859,1.0234375,0.8544921278953552,-0.24414061,0.2441406100988388
196963,0.043579102,0.01574707,1.026367188,0.8544921278953552,-0.24414061,0.1831054538488388
197012,0.044799805,0.016235352,1.025024414,0.8544921278953552,-0.24414061,0.2441406100988388
197045,0.043701172,0.016723633,1.025390625,0.7324218153953552,-0.24414061,0.1831054538488388
197062,0.045043945,0.017456055,1.024414063,0.7934569716453552,-0.24414061,0.1831054538488388
197096,0.044677734,0.016479492,1.025146484,0.8544921278953552,-0.305175781,0.1831054538488388
197161,0.044433594,0.015991211,1.024536133,0.7934569716453552,-0.305175781,0.1831054538488388
197177,0.044433594,0.015625,1.024536133,0.8544921278953552,-0.305175781,0.1831054538488388
197210,0.045166016,0.016479492,1.024536133,0.7934569716453552,-0.183105454,0.305175781
197226,0.044921875,0.016845703,1.024902344,0.8544921278953552,-0.24414061,0.1831054538488388
197243,0.044799805,0.015991211,1.025146484,0.8544921278953552,-0.305175781,0.2441406100988388
197275,0.044189453,0.016967773,1.0234375,0.9155272841453552,-0.24414061,0.2441406100988388
197291,0.044067383,0.016845703,1.024780273,0.8544921278953552,-0.24414061,0.2441406100988388
197307,0.044189453,0.016845703,1.024169922,0.8544921278953552,-0.24414061,0.2441406100988388
197323,0.044799805,0.016235352,1.024047852,0.7934569716453552,-0.24414061,0.2441406100988388
197397,0.044433594,0.017700195,1.024169922,0.7934569716453552,-0.24414061,0.1831054538488388
197413,0.044433594,0.016967773,1.024536133,0.7934569716453552,-0.24414061,0.1831054538488388
197430,0.044799805,0.016601563,1.023803711,0.7934569716453552,-0.24414061,0.1831054538488388
197444,0.043945313,0.016357422,1.024169922,0.7934569716453552,-0.305175781,0.2441406100988388
197495,0.044067383,0.017333984,1.023925781,0.7934569716453552,-0.24414061,0.2441406100988388
197545,0.044067383,0.016845703,1.024169922,0.8544921278953552,-0.24414061,0.1831054538488388
197597,0.044677734,0.017944336,1.025634766,0.7934569716453552,-0.305175781,0.2441406100988388
197642,0.044921875,0.015869141,1.022338867,0.7934569716453552,-0.24414061,0.2441406100988388
197659,0.044433594,0.016723633,1.024536133,0.7934569716453552,-0.305175781,0.305175781
197692,0.044555664,0.016235352,1.027709961,0.8544921278953552,-0.305175781,0.1831054538488388
197726,0.04675293,0.017333984,1.060668945,0.9155272841453552,-0.305175781,0.2441406100988388
197844,0.04284668,0.017578125,1.024902344,0.7934569716453552,-0.183105454,0.1831054538488388
197957,0.044799805,0.016235352,1.024902344,0.8544921278953552,-0.305175781,0.2441406100988388
198002,0.044921875,0.016357422,1.025756836,0.8544921278953552,-0.24414061,0.1831054538488388
198019,0.044799805,0.015991211,1.028076172,0.8544921278953552,-0.305175781,0.2441406100988388
198052,0.044677734,0.015869141,1.024902344,0.7934569716453552,-0.24414061,0.2441406100988388
198069,0.044311523,0.016235352,1.025146484,0.7934569716453552,-0.305175781,0.2441406100988388
198085,0.044555664,0.016235352,1.021972656,0.8544921278953552,-0.24414061,0.2441406100988388
198102,0.043945313,0.016723633,1.025146484,0.8544921278953552,-0.305175781,0.1831054538488388
198122,0.044677734,0.017089844,1.024658203,0.8544921278953552,-0.305175781,0.1831054538488388
198144,0.044555664,0.017333984,1.02331543,0.8544921278953552,-0.24414061,0.1831054538488388
198160,0.044799805,0.016235352,1.024414063,0.7934569716453552,-0.24414061,0.1831054538488388
198177,0.044555664,0.016235352,1.02331543,0.7934569716453552,-0.24414061,0.2441406100988388
198194,0.043579102,0.015625,1.023071289,0.8544921278953552,-0.24414061,0.1831054538488388
198227,0.045410156,0.016235352,1.024780273,0.7934569716453552,-0.24414061,0.1831054538488388
198244,0.044921875,0.016967773,1.024780273,0.7934569716453552,-0.24414061,0.1831054538488388
198260,0.044555664,0.016479492,1.026245117,0.7934569716453552,-0.305175781,0.1831054538488388
198292,0.044067383,0.017333984,1.025878906,0.7934569716453552,-0.305175781,0.1831054538488388
198308,0.044067383,0.017089844,1.024658203,0.8544921278953552,-0.305175781,0.1831054538488388
198324,0.043579102,0.015625,1.022705078,0.8544921278953552,-0.24414061,0.2441406100988388
198360,0.043823242,0.016235352,1.024414063,0.8544921278953552,-0.305175781,0.2441406100988388
198376,0.043823242,0.016113281,1.024047852,0.7934569716453552,-0.24414061,0.1831054538488388
198392,0.044799805,0.016723633,1.023803711,0.8544921278953552,-0.305175781,0.1831054538488388
198408,0.044555664,0.017944336,1.024169922,0.8544921278953552,-0.305175781,0.2441406100988388
198425,0.044067383,0.016723633,1.02331543,0.8544921278953552,-0.24414061,0.2441406100988388
198446,0.044555664,0.016479492,1.022094727,0.8544921278953552,-0.305175781,0.2441406100988388
198462,0.044311523,0.016357422,1.024047852,0.8544921278953552,-0.305175781,0.2441406100988388
198479,0.043945313,0.016723633,1.024536133,0.8544921278953552,-0.24414061,0.305175781
198560,0.044311523,0.016357422,1.024658203,0.8544921278953552,-0.24414061,0.1831054538488388
198603,0.043945313,0.017211914,1.025268555,0.8544921278953552,-0.24414061,0.2441406100988388
198620,0.044067383,0.016845703,1.024169922,0.8544921278953552,-0.24414061,0.1831054538488388
198653,0.045288086,0.016845703,1.022094727,0.7934569716453552,-0.24414061,0.1831054538488388
198670,0.044799805,0.017089844,1.024169922,0.8544921278953552,-0.305175781,0.1831054538488388
198687,0.044311523,0.015869141,1.024414063,0.8544921278953552,-0.305175781,0.1831054538488388
198703,0.044067383,0.017089844,1.022216797,0.8544921278953552,-0.24414061,0.2441406100988388
198723,0.044189453,0.016479492,1.023803711,0.8544921278953552,-0.183105454,0.2441406100988388
198739,0.044555664,0.016357422,1.024169922,0.8544921278953552,-0.24414061,0.2441406100988388
198755,0.044433594,0.015258789,1.022216797,0.9155272841453552,-0.305175781,0.2441406100988388
198771,0.044677734,0.01550293,1.023193359,0.8544921278953552,-0.305175781,0.2441406100988388
198819,0.044067383,0.017333984,1.020996094,0.7934569716453552,-0.24414061,0.2441406100988388
198902,0.043945313,0.017333984,1.025024414,0.7934569716453552,-0.24414061,0.2441406100988388
198918,0.044311523,0.017333984,1.024414063,0.7934569716453552,-0.24414061,0.1831054538488388
198949,0.044555664,0.01574707,1.022705078,0.8544921278953552,-0.24414061,0.1831054538488388
198965,0.044433594,0.015258789,1.023071289,0.7934569716453552,-0.305175781,0.2441406100988388
199017,0.043823242,0.016723633,1.025390625,0.9155272841453552,-0.305175781,0.1831054538488388
199033,0.044189453,0.016845703,1.025512695,0.7934569716453552,-0.24414061,0.1831054538488388
199054,0.043701172,0.016113281,1.024414063,0.7934569716453552,-0.24414061,0.1831054538488388
199071,0.044555664,0.016723633,1.024169922,0.9155272841453552,-0.24414061,0.2441406100988388
199124,0.044921875,0.017211914,1.025146484,0.7934569716453552,-0.24414061,0.1831054538488388
199145,0.043945313,0.016967773,1.023681641,0.8544921278953552,-0.305175781,0.2441406100988388
199161,0.043701172,0.016601563,1.024047852,0.9155272841453552,-0.24414061,0.305175781
199192,0.044555664,0.016601563,1.02355957,0.7934569716453552,-0.24414061,0.2441406100988388
199213,0.045043945,0.017089844,1.025146484,0.8544921278953552,-0.305175781,0.2441406100988388
199229,0.045166016,0.016479492,1.0234375,0.8544921278953552,-0.305175781,0.1831054538488388
199243,0.044799805,0.01550293,1.024047852,0.7934569716453552,-0.305175781,0.2441406100988388
199260,0.044555664,0.015625,1.025634766,0.7934569716453552,-0.305175781,0.305175781
199276,0.044433594,0.016601563,1.026123047,0.7934569716453552,-0.305175781,0.2441406100988388
199310,0.044067383,0.016479492,1.025634766,0.8544921278953552,-0.24414061,0.2441406100988388
199326,0.044311523,0.017089844,1.023681641,0.8544921278953552,-0.24414061,0.2441406100988388
199342,0.044433594,0.016601563,1.022949219,0.7934569716453552,-0.24414061,0.2441406100988388
199374,0.044799805,0.015869141,1.024414063,0.8544921278953552,-0.305175781,0.2441406100988388
199390,0.043701172,0.016113281,1.025146484,0.7934569716453552,-0.24414061,0.2441406100988388
199422,0.044189453,0.016357422,1.022827148,0.8544921278953552,-0.305175781,0.1831054538488388
199441,0.044189453,0.016723633,1.027099609,0.8544921278953552,-0.183105454,0.1831054538488388
199478,0.045654297,0.01550293,1.022827148,0.8544921278953552,-0.183105454,0.2441406100988388
199498,0.044555664,0.015625,1.025024414,0.8544921278953552,-0.24414061,0.1831054538488388
199514,0.044433594,0.016967773,1.023681641,0.7934569716453552,-0.24414061,0.1831054538488388
199531,0.045776367,0.017578125,1.024658203,0.7934569716453552,-0.24414061,0.2441406100988388
199548,0.045043945,0.015991211,1.024414063,0.8544921278953552,-0.305175781,0.2441406100988388
199612,0.044555664,0.017333984,1.02331543,0.8544921278953552,-0.305175781,0.1831054538488388
199633,0.044555664,0.017211914,1.025024414,0.8544921278953552,-0.24414061,0.1831054538488388
199649,0.045043945,0.016357422,1.022460938,0.8544921278953552,-0.24414061,0.2441406100988388
199666,0.045410156,0.01550293,1.022705078,0.8544921278953552,-0.183105454,0.1831054538488388
199683,0.044067383,0.015991211,1.024902344,0.7934569716453552,-0.24414061,0.305175781
199699,0.043457031,0.014892578,1.0234375,0.7934569716453552,-0.305175781,0.305175781
199732,0.044433594,0.016479492,1.02331543,0.8544921278953552,-0.305175781,0.305175781
199801,0.044555664,0.016601563,1.024414063,0.8544921278953552,-0.24414061,0.2441406100988388
199817,0.044921875,0.016601563,1.026245117,0.8544921278953552,-0.24414061,0.2441406100988388
199833,0.044311523,0.016723633,1.024780273,0.8544921278953552,-0.24414061,0.1831054538488388
199849,0.043945313,0.016967773,1.023803711,0.7934569716453552,-0.24414061,0.2441406100988388
199866,0.043945313,0.016601563,1.023803711,0.8544921278953552,-0.305175781,0.305175781
199887,0.044189453,0.016357422,1.022949219,0.7934569716453552,-0.24414061,0.2441406100988388
199953,0.044677734,0.015869141,1.025146484,0.8544921278953552,-0.24414061,0.2441406100988388
199987,0.044189453,0.017089844,1.024536133,0.7934569716453552,-0.305175781,0.2441406100988388
200004,0.043701172,0.015380859,1.024536133,0.8544921278953552,-0.24414061,0.1220703050494194
200021,0.043701172,0.014892578,1.024536133,0.8544921278953552,-0.24414061,0.1831054538488388
200041,0.045410156,0.01574707,1.025390625,0.9155272841453552,-0.305175781,0.305175781
200058,0.043823242,0.01550293,1.0234375,0.8544921278953552,-0.183105454,0.1831054538488388
200075,0.043823242,0.016113281,1.024536133,0.8544921278953552,-0.24414061,0.1831054538488388
200107,0.045410156,0.016357422,1.023193359,0.7934569716453552,-0.366210908,0.1831054538488388
200169,0.044189453,0.015380859,1.0234375,0.9155272841453552,-0.305175781,0.305175781
200186,0.043945313,0.015380859,1.023071289,0.8544921278953552,-0.24414061,0.1831054538488388
200203,0.044433594,0.015869141,1.023681641,0.8544921278953552,-0.24414061,0.1831054538488388
200219,0.044189453,0.016235352,1.024658203,0.7934569716453552,-0.24414061,0.1831054538488388
200236,0.044189453,0.016357422,1.025756836,0.8544921278953552,-0.24414061,0.1831054538488388
200269,0.045166016,0.015869141,1.023925781,0.7934569716453552,-0.366210908,0.2441406100988388
200286,0.044555664,0.015869141,1.021606445,0.7934569716453552,-0.366210908,0.1831054538488388
200307,0.043823242,0.016723633,1.023193359,0.8544921278953552,-0.24414061,0.1831054538488388
200323,0.044311523,0.01550293,1.024536133,0.9155272841453552,-0.24414061,0.1831054538488388
200340,0.045166016,0.015869141,1.024047852,0.8544921278953552,-0.24414061,0.2441406100988388
200422,0.044677734,0.01574707,1.024902344,0.8544921278953552,-0.24414061,0.1831054538488388
200464,0.044433594,0.016845703,1.024902344,0.8544921278953552,-0.24414061,0.2441406100988388
200481,0.044433594,0.016357422,1.024902344,0.7934569716453552,-0.183105454,0.2441406100988388
200516,0.044433594,0.015869141,1.022583008,0.8544921278953552,-0.305175781,0.2441406100988388
200533,0.043334961,0.016235352,1.023681641,0.7934569716453552,-0.24414061,0.2441406100988388
200550,0.045776367,0.015258789,1.02746582,0.7934569716453552,-0.183105454,0.2441406100988388
200566,0.046264648,0.015625,1.025512695,0.8544921278953552,-0.183105454,0.2441406100988388
200583,0.044921875,0.016113281,1.0234375,0.9155272841453552,-0.24414061,0.305175781
200604,0.043945313,0.016601563,1.023071289,0.9155272841453552,-0.24414061,0.2441406100988388
200620,0.044677734,0.016357422,1.025512695,0.8544921278953552,-0.24414061,0.1831054538488388
200686,0.044799805,0.016601563,1.027709961,0.9155272841453552,-0.24414061,0.1831054538488388
200709,0.045532227,0.016113281,1.022338867,0.9155272841453552,-0.305175781,0.305175781
200730,0.045043945,0.016601563,1.026123047,0.8544921278953552,-0.305175781,0.2441406100988388
200747,0.045410156,0.016845703,1.024902344,0.7934569716453552,-0.24414061,0.1831054538488388
200763,0.044677734,0.016113281,1.020141602,0.7934569716453552,-0.24414061,0.2441406100988388
200780,0.043945313,0.016479492,1.027587891,0.7934569716453552,-0.305175781,0.2441406100988388
200813,0.044555664,0.017211914,1.022216797,0.8544921278953552,-0.24414061,0.305175781
200881,0.045166016,0.016479492,1.022460938,0.8544921278953552,-0.24414061,0.1831054538488388
200897,0.044067383,0.016479492,1.024780273,0.7934569716453552,-0.24414061,0.1831054538488388
200913,0.043823242,0.015991211,1.02722168,0.8544921278953552,-0.305175781,0.1831054538488388
200929,0.044799805,0.01574707,1.026367188,0.8544921278953552,-0.24414061,0.2441406100988388
200977,0.043823242,0.016845703,1.024902344,0.7934569716453552,-0.24414061,0.2441406100988388
201009,0.044555664,0.016235352,1.022094727,0.7934569716453552,-0.366210908,0.2441406100988388
201026,0.04309082,0.015869141,1.025634766,0.8544921278953552,-0.366210908,0.2441406100988388
201043,0.044311523,0.015869141,1.022949219,0.7934569716453552,-0.24414061,0.2441406100988388
201060,0.044921875,0.015991211,1.022949219,0.8544921278953552,-0.24414061,0.2441406100988388
201076,0.044677734,0.01550293,1.024169922,0.8544921278953552,-0.24414061,0.2441406100988388
201109,0.044799805,0.016113281,1.024169922,0.7934569716453552,-0.183105454,0.1831054538488388
201126,0.044799805,0.016967773,1.024902344,0.7934569716453552,-0.24414061,0.1831054538488388
201147,0.044311523,0.017456055,1.024169922,0.8544921278953552,-0.24414061,0.2441406100988388
201163,0.044433594,0.018066406,1.026733398,0.8544921278953552,-0.24414061,0.305175781
201180,0.044067383,0.017456055,1.023803711,0.9155272841453552,-0.24414061,0.2441406100988388
201197,0.043945313,0.015991211,1.023193359,0.8544921278953552,-0.24414061,0.305175781
201230,0.045898438,0.016235352,1.025268555,0.8544921278953552,-0.24414061,0.1831054538488388
201247,0.044311523,0.016723633,1.022338867,0.9765624403953552,-0.305175781,0.305175781
201263,0.044189453,0.016967773,1.024780273,0.9155272841453552,-0.305175781,0.2441406100988388
201295,0.044311523,0.016601563,1.022460938,0.9765624403953552,-0.305175781,0.2441406100988388
201343,0.045043945,0.015991211,1.025024414,0.9765624403953552,-0.24414061,0.1831054538488388
201364,0.044189453,0.015869141,1.021728516,0.9155272841453552,-0.24414061,0.2441406100988388
201381,0.043334961,0.015625,1.022094727,0.8544921278953552,-0.24414061,0.1831054538488388
201414,0.045532227,0.017089844,1.027954102,0.9765624403953552,-0.24414061,0.2441406100988388
201431,0.045776367,0.016723633,1.028442383,0.9155272841453552,-0.305175781,0.2441406100988388
201447,0.045288086,0.016601563,1.024414063,0.9155272841453552,-0.305175781,0.2441406100988388
201463,0.044189453,0.016235352,1.026367188,0.9155272841453552,-0.305175781,0.2441406100988388
201488,0.044555664,0.015869141,1.025146484,0.9155272841453552,-0.305175781,0.305175781
201504,0.043823242,0.015869141,1.016723633,0.8544921278953552,-0.305175781,0.2441406100988388
201521,0.043579102,0.016845703,1.018798828,0.8544921278953552,-0.183105454,0.1831054538488388
201538,0.044921875,0.01550293,1.02722168,0.9155272841453552,-0.183105454,0.1831054538488388
201588,0.044555664,0.01574707,1.024291992,0.8544921278953552,-0.305175781,0.1831054538488388
201605,0.044433594,0.01574707,1.025634766,0.7934569716453552,-0.24414061,0.2441406100988388
201626,0.045288086,0.015258789,1.023803711,0.7934569716453552,-0.24414061,0.2441406100988388
201642,0.045776367,0.015869141,1.023803711,0.7934569716453552,-0.305175781,0.1831054538488388
201709,0.043701172,0.015380859,1.02355957,0.7324218153953552,-0.24414061,0.2441406100988388
201782,0.044067383,0.01574707,1.025634766,0.610351563,-0.24414061,0.2441406100988388
201799,0.045043945,0.016845703,1.029418945,0.6713866591453552,-0.24414061,0.2441406100988388
201830,0.047363281,0.017700195,1.056762695,0.7934569716453552,-0.305175781,0.1831054538488388
201846,0.042480469,0.015991211,0.994018555,0.8544921278953552,-0.305175781,0.2441406100988388
201863,0.040405273,0.016113281,0.997436523,0.7934569716453552,-0.305175781,0.2441406100988388
201895,0.044433594,0.016723633,1.011108398,0.8544921278953552,-0.366210908,0.2441406100988388
201911,0.045776367,0.016967773,1.009033203,0.9155272841453552,-0.366210908,0.305175781
201927,0.044555664,0.014770508,1.030761719,0.9155272841453552,-0.24414061,0.2441406100988388
201943,0.04309082,0.015625,1.017944336,0.9155272841453552,-0.24414061,0.1831054538488388
201968,0.045898438,0.016113281,1.018554688,0.8544921278953552,-0.24414061,0.2441406100988388
201984,0.043823242,0.016113281,1.018554688,0.9155272841453552,-0.305175781,0.2441406100988388
202001,0.042724609,0.01574707,1.015014648,0.9155272841453552,-0.305175781,0.2441406100988388
202020,0.043701172,0.015625,1.030395508,0.8544921278953552,-0.24414061,0.2441406100988388
202036,0.044921875,0.016479492,1.020385742,0.9155272841453552,-0.305175781,0.1831054538488388
202070,0.04309082,0.016479492,1.025268555,0.9155272841453552,-0.305175781,0.2441406100988388
202090,0.043457031,0.016357422,1.023681641,0.9155272841453552,-0.24414061,0.1831054538488388
202110,0.045898438,0.015380859,1.025756836,0.9155272841453552,-0.183105454,0.1831054538488388
202126,0.045532227,0.015625,1.025268555,0.9155272841453552,-0.305175781,0.2441406100988388
202180,0.044189453,0.015380859,1.023193359,0.7934569716453552,-0.24414061,0.1831054538488388
202200,0.044067383,0.015258789,1.024536133,0.8544921278953552,-0.24414061,0.2441406100988388
202216,0.044433594,0.01574707,1.022705078,0.7934569716453552,-0.305175781,0.1831054538488388
202233,0.045043945,0.016601563,1.022949219,0.7934569716453552,-0.24414061,0.1831054538488388
202250,0.044189453,0.016601563,1.025512695,0.7934569716453552,-0.183105454,0.2441406100988388
202266,0.045166016,0.015014648,1.025268555,0.7934569716453552,-0.24414061,0.2441406100988388
202283,0.045410156,0.014770508,1.021972656,0.7934569716453552,-0.24414061,0.2441406100988388
202316,0.045288086,0.016479492,1.025512695,0.7324218153953552,-0.305175781,0.1831054538488388
202364,0.04309082,0.015258789,1.019897461,0.6713866591453552,-0.24414061,0.2441406100988388
202385,0.044555664,0.016479492,1.029663086,0.7324218153953552,-0.24414061,0.2441406100988388
202402,0.045532227,0.016601563,1.021850586,0.7934569716453552,-0.24414061,0.2441406100988388
202435,0.04309082,0.01550293,1.025634766,0.7324218153953552,-0.24414061,0.2441406100988388
202468,0.04675293,0.016113281,1.020141602,0.7934569716453552,-0.305175781,0.305175781
202510,0.043212891,0.015869141,1.022583008,0.7934569716453552,-0.24414061,0.305175781
202527,0.047241211,0.017089844,1.031005859,0.7934569716453552,-0.183105454,0.1831054538488388
202544,0.047851563,0.016479492,1.029174805,0.7934569716453552,-0.305175781,0.1831054538488388
202560,0.042358398,0.015869141,1.019775391,0.7934569716453552,-0.305175781,0.1831054538488388
202577,0.042358398,0.016723633,1.028198242,0.7324218153953552,-0.305175781,0.305175781
202610,0.04675293,0.01574707,1.021484375,0.7934569716453552,-0.24414061,0.2441406100988388
202627,0.043457031,0.016845703,1.024780273,0.7934569716453552,-0.305175781,0.2441406100988388
202648,0.041992188,0.016357422,1.02355957,0.7934569716453552,-0.305175781,0.2441406100988388
202664,0.044555664,0.016357422,1.0234375,0.7934569716453552,-0.24414061,0.2441406100988388
202727,0.044799805,0.015991211,1.02355957,0.7934569716453552,-0.305175781,0.2441406100988388
202817,0.045043945,0.015869141,1.025024414,0.7934569716453552,-0.24414061,0.1831054538488388
202862,0.044555664,0.016113281,1.0234375,0.9155272841453552,-0.24414061,0.1831054538488388
202911,0.044433594,0.015258789,1.02331543,0.7934569716453552,-0.24414061,0.1831054538488388
202927,0.044311523,0.015991211,1.025634766,0.8544921278953552,-0.183105454,0.1831054538488388
202943,0.043701172,0.016235352,1.023681641,0.9155272841453552,-0.305175781,0.1831054538488388
202976,0.043823242,0.016235352,1.024291992,0.7934569716453552,-0.305175781,0.2441406100988388
203008,0.044433594,0.017456055,1.024291992,0.8544921278953552,-0.305175781,0.1831054538488388
203041,0.043701172,0.01574707,1.022460938,0.8544921278953552,-0.24414061,0.1220703050494194
203057,0.044189453,0.016113281,1.024414063,0.8544921278953552,-0.24414061,0.2441406100988388
203090,0.043701172,0.016601563,1.02331543,0.9155272841453552,-0.24414061,0.2441406100988388
203107,0.044433594,0.015625,1.024169922,0.7934569716453552,-0.305175781,0.2441406100988388
203156,0.045043945,0.015991211,1.0234375,0.8544921278953552,-0.24414061,0.2441406100988388
203172,0.044067383,0.015625,1.023803711,0.8544921278953552,-0.305175781,0.2441406100988388
203188,0.044433594,0.016845703,1.024902344,0.8544921278953552,-0.24414061,0.2441406100988388
203204,0.044433594,0.015625,1.0234375,0.8544921278953552,-0.24414061,0.2441406100988388
203227,0.044189453,0.016113281,1.024047852,0.8544921278953552,-0.24414061,0.2441406100988388
203243,0.044067383,0.01574707,1.022094727,0.8544921278953552,-0.183105454,0.2441406100988388
203310,0.04309082,0.016601563,1.028808594,0.8544921278953552,-0.305175781,0.2441406100988388
203360,0.044189453,0.016723633,1.020263672,0.8544921278953552,-0.24414061,0.1831054538488388
203404,0.045532227,0.016723633,1.029052734,0.8544921278953552,-0.305175781,0.2441406100988388
203421,0.045410156,0.017211914,1.028076172,0.9155272841453552,-0.305175781,0.2441406100988388
203454,0.043334961,0.01574707,1.02355957,0.9155272841453552,-0.24414061,0.2441406100988388
203487,0.044799805,0.015625,1.018554688,0.9765624403953552,-0.305175781,0.1831054538488388
203529,0.043823242,0.015625,1.025512695,0.9155272841453552,-0.24414061,0.2441406100988388
203563,0.044189453,0.015991211,1.026000977,0.9155272841453552,-0.305175781,0.1220703050494194
203587,0.043945313,0.016601563,1.024536133,0.9155272841453552,-0.24414061,0.2441406100988388
203604,0.044799805,0.016723633,1.024291992,0.9155272841453552,-0.24414061,0.305175781
203621,0.044311523,0.01574707,1.025024414,0.9765624403953552,-0.305175781,0.2441406100988388
203641,0.044067383,0.016479492,1.024536133,0.9155272841453552,-0.24414061,0.2441406100988388
203658,0.044189453,0.016235352,1.023681641,0.7934569716453552,-0.24414061,0.1831054538488388
203674,0.045043945,0.015625,1.024780273,0.7324218153953552,-0.24414061,0.2441406100988388
203691,0.044433594,0.016235352,1.023193359,0.7934569716453552,-0.24414061,0.2441406100988388
203707,0.043457031,0.016845703,1.02355957,0.8544921278953552,-0.24414061,0.2441406100988388
203723,0.044067383,0.016113281,1.024902344,0.7934569716453552,-0.24414061,0.2441406100988388
203756,0.044921875,0.016235352,1.025146484,0.8544921278953552,-0.24414061,0.1831054538488388
203777,0.043945313,0.015625,1.02331543,0.7934569716453552,-0.305175781,0.2441406100988388
203793,0.044067383,0.015014648,1.022216797,0.7324218153953552,-0.305175781,0.2441406100988388
203808,0.044311523,0.015380859,1.023193359,0.7934569716453552,-0.305175781,0.1831054538488388
203825,0.044555664,0.016723633,1.025634766,0.8544921278953552,-0.24414061,0.1831054538488388
203842,0.044799805,0.015991211,1.024536133,0.7324218153953552,-0.24414061,0.2441406100988388
203862,0.044799805,0.016113281,1.024414063,0.7934569716453552,-0.305175781,0.2441406100988388
203882,0.044311523,0.016845703,1.0234375,0.7934569716453552,-0.24414061,0.2441406100988388
203904,0.044189453,0.016601563,1.024536133,0.7934569716453552,-0.24414061,0.2441406100988388
203920,0.044311523,0.015136719,1.023681641,0.7934569716453552,-0.305175781,0.2441406100988388
203937,0.045043945,0.016601563,1.024169922,0.7324218153953552,-0.305175781,0.2441406100988388
204003,0.043334961,0.016113281,1.025024414,0.7324218153953552,-0.24414061,0.1831054538488388
204066,0.044311523,0.015991211,1.025390625,0.7934569716453552,-0.183105454,0.1831054538488388
204083,0.044067383,0.016601563,1.016113281,0.8544921278953552,-0.183105454,0.2441406100988388
204100,0.045043945,0.016601563,1.016357422,0.9155272841453552,-0.24414061,0.2441406100988388
204120,0.045776367,0.017211914,1.036010742,0.9155272841453552,-0.24414061,0.2441406100988388
204137,0.044189453,0.017456055,1.023681641,0.9155272841453552,-0.24414061,0.305175781
204153,0.046630859,0.016479492,1.030151367,0.9155272841453552,-0.305175781,0.305175781
204170,0.046264648,0.016113281,1.031005859,0.9155272841453552,-0.305175781,0.305175781
204187,0.042602539,0.014770508,1.01171875,0.9765624403953552,-0.24414061,0.2441406100988388
204208,0.042480469,0.016479492,1.018920898,0.9155272841453552,-0.24414061,0.1220703050494194
204224,0.045043945,0.017456055,1.037719727,0.9155272841453552,-0.24414061,0.1831054538488388
204241,0.046630859,0.016845703,1.027709961,0.9155272841453552,-0.24414061,0.1831054538488388
204258,0.045410156,0.015991211,1.023071289,0.9765624403953552,-0.305175781,0.1831054538488388
204288,0.043212891,0.01550293,1.023925781,0.9155272841453552,-0.24414061,0.2441406100988388
204353,0.043212891,0.01574707,1.024536133,0.9155272841453552,-0.24414061,0.2441406100988388
204424,0.043945313,0.014892578,1.022460938,0.7934569716453552,-0.24414061,0.2441406100988388
204441,0.044555664,0.015136719,1.02355957,0.7324218153953552,-0.305175781,0.2441406100988388
204474,0.043945313,0.015869141,1.025146484,0.7324218153953552,-0.183105454,0.2441406100988388
204491,0.044189453,0.015991211,1.023803711,0.6713866591453552,-0.183105454,0.2441406100988388
204507,0.044067383,0.016479492,1.025512695,0.6713866591453552,-0.24414061,0.2441406100988388
204523,0.043579102,0.016235352,1.023925781,0.7934569716453552,-0.24414061,0.2441406100988388
204543,0.044311523,0.017089844,1.022338867,0.7934569716453552,-0.305175781,0.2441406100988388
204563,0.043579102,0.016845703,1.018798828,0.7324218153953552,-0.305175781,0.2441406100988388
204579,0.045166016,0.016479492,1.022216797,0.7324218153953552,-0.366210908,0.2441406100988388
204600,0.048217773,0.016479492,1.052978516,0.7934569716453552,-0.366210908,0.2441406100988388
204617,0.042480469,0.015991211,1.006347656,0.7934569716453552,-0.305175781,0.2441406100988388
204633,0.046142578,0.016723633,1.026123047,0.7934569716453552,-0.366210908,0.1831054538488388
204650,0.046142578,0.015869141,1.037597656,0.8544921278953552,-0.305175781,0.1831054538488388
204713,0.044555664,0.016235352,1.024414063,0.8544921278953552,-0.24414061,0.2441406100988388
204733,0.044921875,0.016357422,1.016967773,0.9155272841453552,-0.24414061,0.2441406100988388
204749,0.045043945,0.016235352,1.028442383,0.8544921278953552,-0.24414061,0.2441406100988388
204766,0.041870117,0.015380859,1.02355957,0.7934569716453552,-0.24414061,0.305175781
204783,0.04296875,0.016479492,1.0234375,0.8544921278953552,-0.24414061,0.2441406100988388
204799,0.045410156,0.016845703,1.024169922,0.7934569716453552,-0.24414061,0.2441406100988388
204832,0.043701172,0.014770508,1.025146484,0.7324218153953552,-0.183105454,0.2441406100988388
204848,0.043945313,0.017211914,1.024658203,0.7324218153953552,-0.24414061,0.1831054538488388
204912,0.043945313,0.016967773,1.021850586,0.7324218153953552,-0.24414061,0.1831054538488388
204981,0.044677734,0.016235352,1.026367188,0.8544921278953552,-0.305175781,0.2441406100988388
205085,0.045288086,0.016601563,1.024414063,0.7934569716453552,-0.24414061,0.2441406100988388
205102,0.045288086,0.016967773,1.025634766,0.7934569716453552,-0.305175781,0.305175781
205134,0.043457031,0.016601563,1.017578125,0.7934569716453552,-0.183105454,0.1220703050494194
205151,0.044189453,0.01574707,1.020019531,0.7934569716453552,-0.24414061,0.2441406100988388
205167,0.044189453,0.016357422,1.026489258,0.7934569716453552,-0.24414061,0.2441406100988388
205183,0.044189453,0.01550293,1.019165039,0.7934569716453552,-0.24414061,0.2441406100988388
205208,0.045654297,0.014770508,1.028564453,0.7934569716453552,-0.24414061,0.305175781
205224,0.046386719,0.016113281,1.043457031,0.7934569716453552,-0.24414061,0.2441406100988388
205241,0.041992188,0.01574707,1.0078125,0.7324218153953552,-0.305175781,0.1831054538488388
205258,0.044555664,0.015380859,1.025634766,0.6713866591453552,-0.305175781,0.1831054538488388
205274,0.043334961,0.015991211,1.02722168,0.610351563,-0.24414061,0.2441406100988388
205308,0.046630859,0.016357422,1.029052734,0.4882812201976776,-0.24414061,0.2441406100988388
205325,0.043701172,0.01550293,1.031005859,0.4882812201976776,-0.24414061,0.2441406100988388
205346,0.042480469,0.016601563,1.019287109,0.4882812201976776,-0.24414061,0.2441406100988388
205362,0.046386719,0.017578125,1.026367188,0.549316406,-0.183105454,0.2441406100988388
205429,0.044799805,0.017700195,1.021728516,0.549316406,-0.24414061,0.2441406100988388
205446,0.044433594,0.018676758,1.0234375,0.610351563,-0.24414061,0.305175781
205463,0.043701172,0.018676758,1.023925781,0.610351563,-0.24414061,0.305175781
205495,0.044189453,0.019165039,1.02734375,0.610351563,-0.305175781,0.2441406100988388
205543,0.044189453,0.018676758,1.021484375,0.7324218153953552,-0.305175781,0.2441406100988388
205568,0.045288086,0.019042969,1.028564453,0.8544921278953552,-0.24414061,0.1831054538488388
205584,0.044677734,0.017822266,1.021484375,0.7934569716453552,-0.24414061,0.2441406100988388
205601,0.045166016,0.018554688,1.025268555,0.8544921278953552,-0.305175781,0.2441406100988388
205618,0.044433594,0.018310547,1.024780273,0.9155272841453552,-0.305175781,0.1831054538488388
205634,0.043579102,0.018066406,1.022827148,0.9765624403953552,-0.24414061,0.1220703050494194
205667,0.044555664,0.018920898,1.021728516,0.9765624403953552,-0.24414061,0.2441406100988388
205716,0.043823242,0.01940918,1.022705078,1.037597656,-0.305175781,0.2441406100988388
205804,0.045288086,0.016601563,1.028686523,1.037597656,-0.24414061,0.2441406100988388
205821,0.043701172,0.016235352,1.020263672,1.037597656,-0.24414061,0.2441406100988388
205850,0.043823242,0.016723633,1.01965332,0.9765624403953552,-0.24414061,0.2441406100988388
205867,0.043579102,0.016479492,1.014892578,0.9765624403953552,-0.305175781,0.2441406100988388
205883,0.044311523,0.01574707,1.027587891,0.9155272841453552,-0.305175781,0.1831054538488388
205915,0.044311523,0.017333984,1.022827148,0.8544921278953552,-0.183105454,0.2441406100988388
205947,0.043823242,0.016723633,1.022827148,0.7934569716453552,-0.183105454,0.2441406100988388
206048,0.044067383,0.016723633,1.022949219,0.6713866591453552,-0.24414061,0.2441406100988388
206082,0.044799805,0.017822266,1.022949219,0.7324218153953552,-0.24414061,0.2441406100988388
206123,0.044677734,0.017456055,1.026733398,0.6713866591453552,-0.305175781,0.305175781
206168,0.04309082,0.016845703,1.022949219,0.6713866591453552,-0.24414061,0.2441406100988388
206202,0.045043945,0.018676758,1.024902344,0.610351563,-0.305175781,0.2441406100988388
206226,0.043823242,0.018066406,1.024658203,0.7324218153953552,-0.24414061,0.1831054538488388
206243,0.044433594,0.017578125,1.02355957,0.7324218153953552,-0.24414061,0.2441406100988388
206278,0.044433594,0.018066406,1.021362305,0.7324218153953552,-0.24414061,0.2441406100988388
206310,0.043579102,0.018310547,1.025146484,0.7934569716453552,-0.24414061,0.305175781
206343,0.044677734,0.017944336,1.024169922,0.8544921278953552,-0.305175781,0.2441406100988388
206360,0.044677734,0.018676758,1.02355957,0.9155272841453552,-0.24414061,0.2441406100988388
206393,0.045166016,0.018310547,1.023925781,0.8544921278953552,-0.305175781,0.1831054538488388
206426,0.043823242,0.017211914,1.024658203,0.9765624403953552,-0.305175781,0.1831054538488388
206469,0.045532227,0.017822266,1.025268555,0.9155272841453552,-0.24414061,0.305175781
206486,0.043334961,0.017944336,1.02331543,0.9765624403953552,-0.24414061,0.305175781
206503,0.044189453,0.017211914,1.024291992,0.9765624403953552,-0.24414061,0.2441406100988388
206523,0.044677734,0.017578125,1.025512695,0.9155272841453552,-0.305175781,0.2441406100988388
206540,0.044555664,0.017700195,1.022705078,0.9765624403953552,-0.24414061,0.2441406100988388
206573,0.044433594,0.017456055,1.024780273,0.9155272841453552,-0.305175781,0.2441406100988388
206621,0.04296875,0.016479492,1.024047852,0.8544921278953552,-0.305175781,0.2441406100988388
206643,0.043823242,0.016235352,1.024169922,0.8544921278953552,-0.305175781,0.2441406100988388
206664,0.043945313,0.016601563,1.022949219,0.7934569716453552,-0.24414061,0.2441406100988388
206684,0.045043945,0.017700195,1.024169922,0.8544921278953552,-0.305175781,0.2441406100988388
206701,0.045288086,0.017089844,1.026000977,0.8544921278953552,-0.24414061,0.2441406100988388
206721,0.045043945,0.017211914,1.023071289,0.7934569716453552,-0.24414061,0.1831054538488388
206753,0.045043945,0.017333984,1.026611328,0.7934569716453552,-0.24414061,0.2441406100988388
206770,0.044433594,0.017211914,1.02355957,0.7934569716453552,-0.24414061,0.2441406100988388
206821,0.044921875,0.017700195,1.026000977,0.7934569716453552,-0.24414061,0.1831054538488388
206858,0.044189453,0.017211914,1.023925781,0.7324218153953552,-0.305175781,0.1831054538488388
206901,0.044555664,0.019042969,1.024536133,0.7324218153953552,-0.305175781,0.2441406100988388
206945,0.043701172,0.016601563,1.024047852,0.7934569716453552,-0.305175781,0.1831054538488388
206962,0.044311523,0.016967773,1.024169922,0.7934569716453552,-0.305175781,0.305175781
206995,0.044433594,0.017333984,1.022949219,0.7324218153953552,-0.24414061,0.1831054538488388
207012,0.044799805,0.017578125,1.025146484,0.7934569716453552,-0.24414061,0.2441406100988388
207028,0.044189453,0.017822266,1.025634766,0.8544921278953552,-0.24414061,0.1831054538488388
207044,0.044067383,0.018798828,1.024658203,0.8544921278953552,-0.24414061,0.2441406100988388
207069,0.044311523,0.018066406,1.024169922,0.7934569716453552,-0.24414061,0.2441406100988388
207085,0.043701172,0.017578125,1.022827148,0.8544921278953552,-0.24414061,0.305175781
207102,0.044921875,0.016967773,1.022827148,0.7934569716453552,-0.24414061,0.1831054538488388
207119,0.045410156,0.018066406,1.024291992,0.8544921278953552,-0.24414061,0.2441406100988388
207135,0.044677734,0.018554688,1.025390625,0.9155272841453552,-0.24414061,0.2441406100988388
207169,0.043823242,0.017333984,1.023681641,0.8544921278953552,-0.305175781,0.1831054538488388
207217,0.044921875,0.017700195,1.024536133,0.8544921278953552,-0.24414061,0.1220703050494194
207249,0.044555664,0.017944336,1.024536133,0.9155272841453552,-0.305175781,0.1831054538488388
207266,0.044189453,0.016723633,1.026000977,0.9155272841453552,-0.305175781,0.2441406100988388
207283,0.043823242,0.016357422,1.024047852,0.9155272841453552,-0.305175781,0.2441406100988388
207299,0.044067383,0.016113281,1.023925781,0.9155272841453552,-0.24414061,0.1831054538488388
207316,0.044067383,0.017456055,1.024780273,0.8544921278953552,-0.24414061,0.1220703050494194
207349,0.044555664,0.017211914,1.023803711,0.9155272841453552,-0.305175781,0.2441406100988388
207366,0.044921875,0.017211914,1.024414063,0.8544921278953552,-0.24414061,0.1831054538488388
207387,0.045043945,0.017700195,1.023193359,0.8544921278953552,-0.24414061,0.1831054538488388
207403,0.046508789,0.017089844,1.024414063,0.7934569716453552,-0.24414061,0.1831054538488388
207420,0.045776367,0.017333984,1.024536133,0.8544921278953552,-0.24414061,0.1831054538488388
207437,0.044555664,0.018554688,1.024291992,0.8544921278953552,-0.24414061,0.1831054538488388
207470,0.043212891,0.018310547,1.024658203,0.8544921278953552,-0.24414061,0.1831054538488388
207536,0.044067383,0.017333984,1.024291992,0.7934569716453552,-0.305175781,0.1831054538488388
207557,0.044189453,0.016113281,1.02355957,0.7934569716453552,-0.305175781,0.2441406100988388
207573,0.045898438,0.018554688,1.02331543,0.8544921278953552,-0.305175781,0.2441406100988388
207590,0.045043945,0.019042969,1.024536133,0.7934569716453552,-0.24414061,0.2441406100988388
207640,0.044311523,0.018066406,1.02355957,0.7324218153953552,-0.24414061,0.1831054538488388
207663,0.044433594,0.017578125,1.024414063,0.7934569716453552,-0.24414061,0.1220703050494194
207680,0.044555664,0.018310547,1.024780273,0.7934569716453552,-0.305175781,0.1831054538488388
207713,0.043701172,0.017211914,1.024169922,0.7934569716453552,-0.24414061,0.305175781
207746,0.045532227,0.018066406,1.02331543,0.7934569716453552,-0.305175781,0.1831054538488388
207789,0.045043945,0.017333984,1.024169922,0.8544921278953552,-0.24414061,0.1831054538488388
207806,0.044311523,0.018310547,1.024780273,0.8544921278953552,-0.24414061,0.1831054538488388
207822,0.044799805,0.018310547,1.024902344,0.7934569716453552,-0.24414061,0.2441406100988388
207843,0.044189453,0.017578125,1.02355957,0.7934569716453552,-0.24414061,0.1831054538488388
207859,0.044555664,0.017944336,1.023681641,0.8544921278953552,-0.24414061,0.2441406100988388
207876,0.045043945,0.018798828,1.022827148,0.8544921278953552,-0.305175781,0.1831054538488388
207905,0.043823242,0.017822266,1.025390625,0.8544921278953552,-0.24414061,0.2441406100988388
207967,0.044433594,0.017089844,1.025268555,0.7934569716453552,-0.305175781,0.2441406100988388
207984,0.043823242,0.017822266,1.025756836,0.8544921278953552,-0.305175781,0.2441406100988388
208001,0.044921875,0.019042969,1.025146484,0.8544921278953552,-0.24414061,0.1831054538488388
208018,0.044433594,0.017700195,1.0234375,0.8544921278953552,-0.24414061,0.2441406100988388
208068,0.044677734,0.017822266,1.022827148,0.8544921278953552,-0.305175781,0.2441406100988388
208144,0.044677734,0.017822266,1.023681641,0.9155272841453552,-0.183105454,0.2441406100988388
208161,0.044555664,0.017822266,1.025878906,0.8544921278953552,-0.24414061,0.2441406100988388
208182,0.045166016,0.017700195,1.02355957,0.7934569716453552,-0.24414061,0.2441406100988388
208202,0.044921875,0.016723633,1.023681641,0.8544921278953552,-0.305175781,0.1831054538488388
208219,0.043579102,0.016723633,1.024169922,0.8544921278953552,-0.24414061,0.2441406100988388
208235,0.043457031,0.018310547,1.024414063,0.8544921278953552,-0.24414061,0.2441406100988388
208254,0.044189453,0.017578125,1.024902344,0.7934569716453552,-0.24414061,0.2441406100988388
208270,0.043823242,0.016967773,1.025512695,0.7934569716453552,-0.305175781,0.2441406100988388
208286,0.044555664,0.016723633,1.024414063,0.8544921278953552,-0.305175781,0.305175781
208302,0.044677734,0.017333984,1.024169922,0.8544921278953552,-0.305175781,0.305175781
208376,0.043212891,0.017211914,1.024536133,0.7934569716453552,-0.24414061,0.305175781
208441,0.043579102,0.017211914,1.022827148,0.8544921278953552,-0.24414061,0.2441406100988388
208458,0.043701172,0.017333984,1.023071289,0.8544921278953552,-0.24414061,0.1831054538488388
208490,0.044433594,0.017333984,1.025024414,0.7934569716453552,-0.24414061,0.2441406100988388
208506,0.045043945,0.016357422,1.024291992,0.7934569716453552,-0.24414061,0.305175781
208523,0.044555664,0.016723633,1.023071289,0.8544921278953552,-0.305175781,0.305175781
208551,0.04309082,0.018310547,1.023193359,0.8544921278953552,-0.122070305,0.1831054538488388
208573,0.044067383,0.017211914,1.023681641,0.9155272841453552,-0.24414061,0.2441406100988388
208589,0.043701172,0.017578125,1.024902344,0.8544921278953552,-0.24414061,0.2441406100988388
208606,0.043945313,0.018066406,1.025390625,0.8544921278953552,-0.305175781,0.2441406100988388
208623,0.043701172,0.016967773,1.023925781,0.9155272841453552,-0.305175781,0.2441406100988388
208639,0.044555664,0.017089844,1.024536133,0.9155272841453552,-0.24414061,0.2441406100988388
208672,0.044677734,0.017822266,1.025146484,0.8544921278953552,-0.305175781,0.305175781
208689,0.044921875,0.017333984,1.024780273,0.8544921278953552,-0.305175781,0.2441406100988388
,0.044677734,0.017456055,1.02355957,0.8544921278953552,-0.24414061,0.2441406100988388
208741,0.044677734,0.017456055,1.024291992,0.7934569716453552,-0.24414061,0.2441406100988388
208757,0.044555664,0.015991211,1.023193359,0.8544921278953552,-0.24414061,0.2441406100988388
208787,0.043823242,0.016723633,1.025634766,0.9155272841453552,-0.24414061,0.2441406100988388
208811,0.043334961,0.017456055,1.026489258,0.9155272841453552,-0.24414061,0.1831054538488388
208827,0.043701172,0.017700195,1.022949219,0.8544921278953552,-0.305175781,0.1220703050494194
208844,0.043457031,0.017211914,1.023193359,0.8544921278953552,-0.305175781,0.305175781
208861,0.044067383,0.017578125,1.024658203,0.8544921278953552,-0.305175781,0.305175781
208877,0.043212891,0.017211914,1.024291992,0.7934569716453552,-0.24414061,0.2441406100988388
208911,0.044433594,0.018066406,1.0234375,0.8544921278953552,-0.24414061,0.305175781
208927,0.044067383,0.017700195,1.026000977,0.8544921278953552,-0.305175781,0.2441406100988388
208943,0.044189453,0.017700195,1.025268555,0.8544921278953552,-0.305175781,0.1831054538488388
208971,0.044799805,0.016113281,1.024414063,0.7934569716453552,-0.24414061,0.1831054538488388
208993,0.045410156,0.016967773,1.023681641,0.7934569716453552,-0.24414061,0.2441406100988388
209009,0.044555664,0.018066406,1.022705078,0.8544921278953552,-0.305175781,0.1831054538488388
209026,0.043823242,0.018310547,1.023681641,0.7934569716453552,-0.24414061,0.1831054538488388
209043,0.044067383,0.017456055,1.024291992,0.8544921278953552,-0.305175781,0.1831054538488388
209059,0.044921875,0.016845703,1.023681641,0.8544921278953552,-0.24414061,0.1831054538488388
209091,0.044311523,0.017089844,1.024047852,0.7934569716453552,-0.24414061,0.2441406100988388
209113,0.045410156,0.017333984,1.024780273,0.7934569716453552,-0.24414061,0.2441406100988388
209129,0.043945313,0.016845703,1.022827148,0.8544921278953552,-0.24414061,0.2441406100988388
209146,0.044189453,0.017089844,1.02331543,0.8544921278953552,-0.305175781,0.1831054538488388
209163,0.045043945,0.017578125,1.025756836,0.8544921278953552,-0.305175781,0.1831054538488388
209179,0.044189453,0.018798828,1.024780273,0.7934569716453552,-0.24414061,0.2441406100988388
209212,0.044555664,0.017578125,1.02331543,0.7934569716453552,-0.24414061,0.1831054538488388
209234,0.043945313,0.018066406,1.025268555,0.8544921278953552,-0.24414061,0.2441406100988388
209254,0.043945313,0.017456055,1.024414063,0.8544921278953552,-0.24414061,0.2441406100988388
209272,0.044067383,0.017578125,1.024169922,0.7934569716453552,-0.305175781,0.1831054538488388
209289,0.044799805,0.017089844,1.024902344,0.7934569716453552,-0.24414061,0.1831054538488388
209306,0.043457031,0.017822266,1.023803711,0.7934569716453552,-0.24414061,0.305175781
209322,0.045166016,0.016723633,1.023681641,0.8544921278953552,-0.24414061,0.2441406100988388
209343,0.044555664,0.016967773,1.025512695,0.8544921278953552,-0.24414061,0.1831054538488388
209359,0.043579102,0.018310547,1.025146484,0.7934569716453552,-0.24414061,0.2441406100988388
209376,0.043579102,0.018554688,1.025268555,0.8544921278953552,-0.24414061,0.2441406100988388
209392,0.044311523,0.017700195,1.023803711,0.8544921278953552,-0.24414061,0.2441406100988388
209408,0.043701172,0.017944336,1.02355957,0.7934569716453552,-0.24414061,0.2441406100988388
209472,0.044189453,0.017578125,1.023681641,0.8544921278953552,-0.305175781,0.2441406100988388
209524,0.045043945,0.018310547,1.02355957,0.8544921278953552,-0.305175781,0.2441406100988388
209541,0.044067383,0.018310547,1.023681641,0.8544921278953552,-0.183105454,0.1831054538488388
209574,0.045043945,0.016723633,1.02355957,0.8544921278953552,-0.305175781,0.2441406100988388
209591,0.044067383,0.017944336,1.023193359,0.8544921278953552,-0.305175781,0.2441406100988388
209607,0.043701172,0.018432617,1.023925781,0.8544921278953552,-0.24414061,0.2441406100988388
209640,0.045410156,0.016723633,1.02331543,0.8544921278953552,-0.24414061,0.2441406100988388
209702,0.045410156,0.017333984,1.025146484,0.9155272841453552,-0.305175781,0.2441406100988388
209719,0.045043945,0.017700195,1.024780273,0.8544921278953552,-0.24414061,0.2441406100988388
209752,0.044067383,0.015625,1.025024414,0.7934569716453552,-0.24414061,0.1831054538488388
209769,0.044433594,0.015625,1.024047852,0.7934569716453552,-0.24414061,0.2441406100988388
209802,0.043945313,0.017333984,1.022949219,0.7934569716453552,-0.305175781,0.2441406100988388
209824,0.043701172,0.017578125,1.025024414,0.7324218153953552,-0.305175781,0.2441406100988388
209841,0.044433594,0.018066406,1.024536133,0.8544921278953552,-0.305175781,0.1831054538488388
209874,0.043334961,0.016967773,1.025024414,0.8544921278953552,-0.24414061,0.2441406100988388
209891,0.044311523,0.018066406,1.022705078,0.8544921278953552,-0.305175781,0.1831054538488388
209908,0.044799805,0.017822266,1.022949219,0.7934569716453552,-0.305175781,0.2441406100988388
209924,0.044677734,0.017211914,1.024780273,0.7934569716453552,-0.305175781,0.2441406100988388
209978,0.044311523,0.017822266,1.024047852,0.8544921278953552,-0.24414061,0.2441406100988388
210063,0.043945313,0.016479492,1.024169922,0.8544921278953552,-0.305175781,0.1831054538488388
210112,0.044433594,0.018066406,1.023925781,0.8544921278953552,-0.24414061,0.1831054538488388
210186,0.045043945,0.016601563,1.024291992,0.8544921278953552,-0.24414061,0.1831054538488388
210203,0.044433594,0.017456055,1.0234375,0.7934569716453552,-0.305175781,0.1831054538488388
210237,0.044311523,0.017822266,1.02355957,0.8544921278953552,-0.305175781,0.2441406100988388
210301,0.044921875,0.017700195,1.022705078,0.8544921278953552,-0.24414061,0.2441406100988388
210351,0.044433594,0.017333984,1.024291992,0.9155272841453552,-0.24414061,0.1831054538488388
210368,0.045166016,0.016845703,1.022583008,0.7934569716453552,-0.305175781,0.2441406100988388
210385,0.044067383,0.016845703,1.024658203,0.7324218153953552,-0.24414061,0.2441406100988388
210421,0.044189453,0.018066406,1.023681641,0.7934569716453552,-0.24414061,0.2441406100988388
210443,0.044799805,0.016967773,1.023803711,0.7934569716453552,-0.24414061,0.2441406100988388
210459,0.044311523,0.017578125,1.023925781,0.7934569716453552,-0.183105454,0.1831054538488388
210480,0.043701172,0.017578125,1.02331543,0.7934569716453552,-0.24414061,0.1831054538488388
210497,0.044067383,0.016845703,1.024902344,0.7934569716453552,-0.24414061,0.1831054538488388
210513,0.043701172,0.017700195,1.025024414,0.8544921278953552,-0.24414061,0.305175781
210530,0.043457031,0.018066406,1.02331543,0.8544921278953552,-0.305175781,0.1831054538488388
210547,0.044555664,0.017578125,1.02355957,0.7934569716453552,-0.305175781,0.2441406100988388
210563,0.044433594,0.018310547,1.024902344,0.7934569716453552,-0.305175781,0.2441406100988388
210595,0.043701172,0.017211914,1.025512695,0.9155272841453552,-0.24414061,0.2441406100988388
210611,0.043945313,0.017944336,1.025268555,0.8544921278953552,-0.305175781,0.2441406100988388
210627,0.043701172,0.017456055,1.024536133,0.7934569716453552,-0.305175781,0.2441406100988388
210643,0.044433594,0.017700195,1.024536133,0.7934569716453552,-0.305175781,0.2441406100988388
210668,0.043945313,0.018066406,1.024169922,0.7934569716453552,-0.24414061,0.2441406100988388
210684,0.044555664,0.018188477,1.024414063,0.7934569716453552,-0.24414061,0.305175781
210701,0.044067383,0.018188477,1.024658203,0.8544921278953552,-0.305175781,0.2441406100988388
210718,0.043334961,0.016479492,1.024047852,0.8544921278953552,-0.366210908,0.2441406100988388
210735,0.044433594,0.017456055,1.024414063,0.8544921278953552,-0.24414061,0.1831054538488388
210767,0.044311523,0.016723633,1.024414063,0.7934569716453552,-0.24414061,0.1831054538488388
210784,0.043945313,0.018066406,1.023681641,0.8544921278953552,-0.305175781,0.2441406100988388
210800,0.043945313,0.018554688,1.022949219,0.9155272841453552,-0.305175781,0.2441406100988388
210832,0.045166016,0.016845703,1.02355957,0.8544921278953552,-0.305175781,0.305175781
210848,0.044677734,0.016967773,1.023193359,0.7934569716453552,-0.305175781,0.2441406100988388
210864,0.044067383,0.016845703,1.024047852,0.7934569716453552,-0.24414061,0.1831054538488388
210896,0.044433594,0.017944336,1.025756836,0.7934569716453552,-0.24414061,0.2441406100988388
210948,0.043823242,0.018920898,1.023803711,0.7934569716453552,-0.24414061,0.1831054538488388
210969,0.044677734,0.017944336,1.022460938,0.8544921278953552,-0.24414061,0.1831054538488388
210986,0.044067383,0.017089844,1.022338867,0.7934569716453552,-0.305175781,0.2441406100988388
211002,0.044067383,0.016967773,1.023193359,0.8544921278953552,-0.24414061,0.1831054538488388
211051,0.045776367,0.017700195,1.023925781,0.9155272841453552,-0.305175781,0.2441406100988388
211084,0.043823242,0.017944336,1.024658203,0.7934569716453552,-0.24414061,0.1831054538488388
211101,0.045410156,0.016967773,1.02355957,0.8544921278953552,-0.24414061,0.2441406100988388
211134,0.044189453,0.018554688,1.024780273,0.7934569716453552,-0.305175781,0.1831054538488388
211151,0.043701172,0.018432617,1.025024414,0.8544921278953552,-0.305175781,0.1831054538488388
211167,0.044921875,0.017089844,1.023193359,0.8544921278953552,-0.305175781,0.1831054538488388
211184,0.045288086,0.017456055,1.023193359,0.8544921278953552,-0.24414061,0.2441406100988388
211238,0.043701172,0.017456055,1.024414063,0.8544921278953552,-0.24414061,0.2441406100988388
211344,0.043579102,0.016723633,1.025024414,0.7934569716453552,-0.183105454,0.1831054538488388
211389,0.044067383,0.016967773,1.023681641,0.7934569716453552,-0.305175781,0.1831054538488388
211406,0.043823242,0.016967773,1.024047852,0.9155272841453552,-0.305175781,0.2441406100988388
211423,0.043701172,0.017211914,1.025390625,0.8544921278953552,-0.24414061,0.2441406100988388
211473,0.045043945,0.017456055,1.025390625,0.7934569716453552,-0.24414061,0.1831054538488388
211505,0.044433594,0.018066406,1.024169922,0.7934569716453552,-0.24414061,0.2441406100988388
211559,0.045166016,0.017578125,1.024047852,0.8544921278953552,-0.24414061,0.1831054538488388
211576,0.044067383,0.018676758,1.023193359,0.7934569716453552,-0.24414061,0.2441406100988388
211592,0.043457031,0.017822266,1.023193359,0.8544921278953552,-0.183105454,0.305175781
211609,0.044189453,0.016967773,1.024169922,0.7934569716453552,-0.24414061,0.2441406100988388
211626,0.043945313,0.016967773,1.0234375,0.7934569716453552,-0.24414061,0.2441406100988388
211647,0.044067383,0.017211914,1.023193359,0.8544921278953552,-0.183105454,0.305175781
211663,0.044799805,0.017944336,1.025512695,0.8544921278953552,-0.24414061,0.305175781
211680,0.044555664,0.019042969,1.022338867,0.7934569716453552,-0.24414061,0.2441406100988388
211697,0.045043945,0.018188477,1.022460938,0.7934569716453552,-0.24414061,0.1220703050494194
211729,0.043945313,0.017700195,1.025390625,0.7934569716453552,-0.24414061,0.1831054538488388
211746,0.044799805,0.017700195,1.022949219,0.8544921278953552,-0.24414061,0.1831054538488388
211793,0.043334961,0.017700195,1.024902344,0.7934569716453552,-0.24414061,0.2441406100988388
211814,0.043701172,0.017700195,1.023071289,0.8544921278953552,-0.24414061,0.1831054538488388
211830,0.045166016,0.017456055,1.023925781,0.8544921278953552,-0.24414061,0.1831054538488388
211847,0.044921875,0.017822266,1.022827148,0.8544921278953552,-0.24414061,0.305175781
211864,0.044433594,0.017944336,1.024536133,0.7934569716453552,-0.24414061,0.1831054538488388
211880,0.045532227,0.017944336,1.02331543,0.7934569716453552,-0.24414061,0.2441406100988388
211913,0.044189453,0.017700195,1.023803711,0.8544921278953552,-0.24414061,0.1831054538488388
211930,0.044311523,0.017944336,1.024169922,0.8544921278953552,-0.305175781,0.2441406100988388
211946,0.044799805,0.017822266,1.024902344,0.8544921278953552,-0.24414061,0.2441406100988388
211962,0.044555664,0.017456055,1.024658203,0.8544921278953552,-0.183105454,0.2441406100988388
211982,0.043701172,0.017578125,1.024291992,0.7934569716453552,-0.24414061,0.2441406100988388
212004,0.044433594,0.017822266,1.0234375,0.7934569716453552,-0.24414061,0.305175781
212020,0.044311523,0.018188477,1.024047852,0.7934569716453552,-0.305175781,0.305175781
212041,0.044555664,0.017944336,1.024291992,0.7934569716453552,-0.24414061,0.2441406100988388
212058,0.044677734,0.018676758,1.024902344,0.7934569716453552,-0.305175781,0.2441406100988388
212090,0.043823242,0.016967773,1.023925781,0.7934569716453552,-0.24414061,0.1831054538488388
212156,0.044067383,0.018188477,1.023681641,0.7934569716453552,-0.24414061,0.1831054538488388
212177,0.043701172,0.018554688,1.025024414,0.8544921278953552,-0.305175781,0.1831054538488388
212193,0.043701172,0.018432617,1.0234375,0.8544921278953552,-0.305175781,0.2441406100988388
212210,0.044189453,0.016845703,1.0234375,0.8544921278953552,-0.24414061,0.305175781
212227,0.044189453,0.017333984,1.024414063,0.7934569716453552,-0.24414061,0.2441406100988388
212243,0.044433594,0.017944336,1.024658203,0.7934569716453552,-0.24414061,0.305175781
212281,0.044311523,0.017700195,1.024291992,0.8544921278953552,-0.24414061,0.305175781
212329,0.044067383,0.017700195,1.022583008,0.7934569716453552,-0.24414061,0.2441406100988388
212402,0.043823242,0.017944336,1.024291992,0.8544921278953552,-0.24414061,0.305175781
212418,0.044311523,0.017944336,1.024047852,0.7934569716453552,-0.305175781,0.2441406100988388
212451,0.044433594,0.018310547,1.023193359,0.8544921278953552,-0.24414061,0.2441406100988388
212468,0.043945313,0.017944336,1.023071289,0.8544921278953552,-0.24414061,0.2441406100988388
212485,0.044311523,0.017700195,1.025878906,0.8544921278953552,-0.24414061,0.1831054538488388
212518,0.045166016,0.017944336,1.0234375,0.7934569716453552,-0.24414061,0.1220703050494194
212539,0.043579102,0.017333984,1.0234375,0.8544921278953552,-0.305175781,0.1831054538488388
212555,0.043457031,0.017089844,1.023681641,0.8544921278953552,-0.24414061,0.1831054538488388
212572,0.044189453,0.018676758,1.023681641,0.8544921278953552,-0.183105454,0.2441406100988388
212589,0.044067383,0.018676758,1.022949219,0.8544921278953552,-0.24414061,0.2441406100988388
212655,0.044677734,0.018676758,1.023193359,0.8544921278953552,-0.305175781,0.2441406100988388
212707,0.044433594,0.017700195,1.02331543,0.7934569716453552,-0.24414061,0.1831054538488388
212724,0.043945313,0.018188477,1.02355957,0.8544921278953552,-0.24414061,0.1831054538488388
212741,0.044067383,0.018432617,1.024658203,0.8544921278953552,-0.24414061,0.1831054538488388
212791,0.043579102,0.017456055,1.025878906,0.8544921278953552,-0.305175781,0.2441406100988388
212904,0.045410156,0.017456055,1.023071289,0.8544921278953552,-0.183105454,0.2441406100988388
213008,0.044677734,0.016601563,1.025024414,0.7934569716453552,-0.24414061,0.1831054538488388
213029,0.045043945,0.017211914,1.02331543,0.8544921278953552,-0.24414061,0.2441406100988388
213046,0.044067383,0.017700195,1.024536133,0.7934569716453552,-0.24414061,0.2441406100988388
213062,0.044433594,0.017211914,1.025512695,0.7934569716453552,-0.305175781,0.2441406100988388
213079,0.044433594,0.018066406,1.024902344,0.8544921278953552,-0.305175781,0.2441406100988388
213109,0.043579102,0.017944336,1.023803711,0.9155272841453552,-0.305175781,0.1831054538488388
213164,0.044311523,0.017456055,1.024902344,0.7934569716453552,-0.24414061,0.1831054538488388
213181,0.044311523,0.017333984,1.025024414,0.7934569716453552,-0.24414061,0.2441406100988388
213198,0.045410156,0.017333984,1.025268555,0.7934569716453552,-0.305175781,0.1831054538488388
213231,0.043945313,0.019165039,1.023071289,0.8544921278953552,-0.24414061,0.305175781
213247,0.043212891,0.017944336,1.024169922,0.8544921278953552,-0.24414061,0.305175781
213263,0.044555664,0.016723633,1.024169922,0.8544921278953552,-0.183105454,0.2441406100988388
213293,0.044067383,0.017089844,1.023193359,0.7934569716453552,-0.305175781,0.2441406100988388
213314,0.043945313,0.016479492,1.024414063,0.8544921278953552,-0.305175781,0.2441406100988388
213331,0.044311523,0.016845703,1.024780273,0.7934569716453552,-0.24414061,0.2441406100988388
213348,0.044921875,0.017822266,1.023803711,0.7934569716453552,-0.305175781,0.1831054538488388
213414,0.043701172,0.017333984,1.024169922,0.8544921278953552,-0.24414061,0.2441406100988388
213430,0.044189453,0.018066406,1.024780273,0.9155272841453552,-0.24414061,0.2441406100988388
213446,0.044311523,0.017822266,1.024658203,0.9155272841453552,-0.24414061,0.2441406100988388
213462,0.043212891,0.017822266,1.024047852,0.8544921278953552,-0.24414061,0.2441406100988388
213482,0.044433594,0.018798828,1.024414063,0.9155272841453552,-0.183105454,0.1831054538488388
213504,0.044555664,0.018432617,1.025512695,0.9155272841453552,-0.24414061,0.2441406100988388
213520,0.043457031,0.017822266,1.025146484,0.7934569716453552,-0.305175781,0.1831054538488388
213541,0.043579102,0.018554688,1.024291992,0.8544921278953552,-0.24414061,0.1831054538488388
213558,0.043945313,0.018188477,1.024780273,0.8544921278953552,-0.183105454,0.1831054538488388
213591,0.044555664,0.017089844,1.02355957,0.7934569716453552,-0.24414061,0.1831054538488388
213608,0.045043945,0.016967773,1.023803711,0.7934569716453552,-0.24414061,0.2441406100988388
213624,0.044555664,0.016845703,1.023803711,0.8544921278953552,-0.305175781,0.1831054538488388
213656,0.044555664,0.018310547,1.023193359,0.7934569716453552,-0.24414061,0.1831054538488388
213672,0.044067383,0.018310547,1.02355957,0.7934569716453552,-0.24414061,0.1831054538488388
213688,0.043823242,0.017211914,1.025390625,0.7934569716453552,-0.24414061,0.305175781
213704,0.044677734,0.017211914,1.024169922,0.7934569716453552,-0.305175781,0.2441406100988388
213724,0.044433594,0.017822266,1.022949219,0.8544921278953552,-0.24414061,0.1831054538488388
213740,0.044067383,0.018188477,1.023925781,0.9155272841453552,-0.24414061,0.2441406100988388
213756,0.043457031,0.016723633,1.023925781,0.7934569716453552,-0.24414061,0.2441406100988388
213770,0.043579102,0.017211914,1.024536133,0.7934569716453552,-0.305175781,0.2441406100988388
213841,0.044555664,0.018066406,1.023925781,0.8544921278953552,-0.183105454,0.1831054538488388
213906,0.045043945,0.017822266,1.024658203,0.9155272841453552,-0.305175781,0.1831054538488388
213923,0.044189453,0.018432617,1.02331543,0.8544921278953552,-0.24414061,0.1831054538488388
213940,0.043701172,0.017211914,1.024169922,0.8544921278953552,-0.24414061,0.2441406100988388
213960,0.044189453,0.017456055,1.023193359,0.8544921278953552,-0.24414061,0.2441406100988388
213977,0.044189453,0.017944336,1.022949219,0.8544921278953552,-0.24414061,0.1831054538488388
214010,0.043823242,0.017822266,1.025512695,0.8544921278953552,-0.24414061,0.2441406100988388
214027,0.043212891,0.018066406,1.02331543,0.7934569716453552,-0.24414061,0.2441406100988388
214048,0.04296875,0.018432617,1.02331543,0.8544921278953552,-0.24414061,0.2441406100988388
214064,0.044067383,0.017944336,1.024291992,0.8544921278953552,-0.305175781,0.1831054538488388
214081,0.044799805,0.017578125,1.024658203,0.7934569716453552,-0.305175781,0.2441406100988388
214098,0.044311523,0.017456055,1.023681641,0.7934569716453552,-0.305175781,0.2441406100988388
214131,0.045043945,0.017700195,1.026245117,0.8544921278953552,-0.305175781,0.305175781
214148,0.044921875,0.016845703,1.023803711,0.7934569716453552,-0.305175781,0.305175781
214164,0.043212891,0.017578125,1.023925781,0.7934569716453552,-0.305175781,0.2441406100988388
214196,0.044799805,0.017089844,1.024169922,0.8544921278953552,-0.305175781,0.2441406100988388
214212,0.044921875,0.017211914,1.024658203,0.7934569716453552,-0.305175781,0.2441406100988388
214228,0.043701172,0.017211914,1.024536133,0.7934569716453552,-0.24414061,0.2441406100988388
214244,0.043823242,0.017456055,1.024047852,0.8544921278953552,-0.24414061,0.2441406100988388
214268,0.043945313,0.017211914,1.024780273,0.9155272841453552,-0.183105454,0.2441406100988388
214284,0.044433594,0.018310547,1.023925781,0.8544921278953552,-0.305175781,0.2441406100988388
214301,0.044067383,0.017456055,1.022827148,0.7934569716453552,-0.366210908,0.2441406100988388
214322,0.044311523,0.017333984,1.024291992,0.7934569716453552,-0.24414061,0.1831054538488388
214338,0.044677734,0.016723633,1.024658203,0.7934569716453552,-0.24414061,0.1831054538488388
214372,0.043945313,0.016967773,1.024780273,0.8544921278953552,-0.24414061,0.1831054538488388
214388,0.044433594,0.016967773,1.024780273,0.8544921278953552,-0.24414061,0.2441406100988388
214404,0.044921875,0.017089844,1.024780273,0.8544921278953552,-0.24414061,0.2441406100988388
214436,0.043334961,0.019042969,1.024047852,0.7934569716453552,-0.183105454,0.1831054538488388
214452,0.044189453,0.018066406,1.025024414,0.7934569716453552,-0.183105454,0.1831054538488388
214468,0.044921875,0.017700195,1.024536133,0.7934569716453552,-0.24414061,0.2441406100988388
214484,0.044921875,0.017700195,1.024536133,0.7934569716453552,-0.305175781,0.2441406100988388
214504,0.043701172,0.017822266,1.024169922,0.8544921278953552,-0.24414061,0.2441406100988388
214520,0.044067383,0.018310547,1.025024414,0.8544921278953552,-0.24414061,0.2441406100988388
214536,0.044799805,0.017333984,1.024780273,0.7934569716453552,-0.24414061,0.1831054538488388
214553,0.045654297,0.017211914,1.024169922,0.8544921278953552,-0.305175781,0.305175781
214574,0.044189453,0.016967773,1.024780273,0.7934569716453552,-0.24414061,0.305175781
214590,0.044189453,0.017822266,1.025512695,0.7934569716453552,-0.24414061,0.2441406100988388
214607,0.044799805,0.017700195,1.024902344,0.8544921278953552,-0.366210908,0.2441406100988388
214624,0.044433594,0.018066406,1.024169922,0.9155272841453552,-0.305175781,0.2441406100988388
214640,0.044433594,0.017700195,1.024780273,0.9155272841453552,-0.305175781,0.2441406100988388
214674,0.044067383,0.016967773,1.025024414,0.7934569716453552,-0.24414061,0.2441406100988388
214742,0.043701172,0.018310547,1.0234375,0.7934569716453552,-0.305175781,0.1831054538488388
214758,0.044433594,0.017944336,1.023193359,0.7934569716453552,-0.305175781,0.2441406100988388
214774,0.044433594,0.016723633,1.023681641,0.7934569716453552,-0.366210908,0.1831054538488388
214790,0.044799805,0.017456055,1.024414063,0.7934569716453552,-0.305175781,0.1831054538488388
214811,0.044799805,0.018066406,1.02355957,0.7934569716453552,-0.183105454,0.1831054538488388
214832,0.044311523,0.017944336,1.025512695,0.7934569716453552,-0.183105454,0.1831054538488388
214848,0.045288086,0.017211914,1.024536133,0.7934569716453552,-0.24414061,0.2441406100988388
214865,0.045532227,0.017456055,1.024291992,0.8544921278953552,-0.24414061,0.2441406100988388
214882,0.045410156,0.018432617,1.023803711,0.8544921278953552,-0.305175781,0.2441406100988388
214915,0.044799805,0.017700195,1.023803711,0.8544921278953552,-0.24414061,0.305175781
214932,0.043823242,0.017333984,1.024291992,0.8544921278953552,-0.24414061,0.2441406100988388
214948,0.044433594,0.017456055,1.024291992,0.8544921278953552,-0.24414061,0.1831054538488388
214964,0.045043945,0.018066406,1.024780273,0.8544921278953552,-0.24414061,0.2441406100988388
214984,0.044921875,0.017333984,1.024169922,0.8544921278953552,-0.24414061,0.2441406100988388
215000,0.044555664,0.018920898,1.024658203,0.8544921278953552,-0.24414061,0.1831054538488388
215016,0.044921875,0.018920898,1.023803711,0.7934569716453552,-0.24414061,0.1831054538488388
215032,0.044921875,0.017456055,1.024536133,0.7934569716453552,-0.24414061,0.2441406100988388
215053,0.044067383,0.017944336,1.02355957,0.8544921278953552,-0.305175781,0.2441406100988388
215069,0.044067383,0.018066406,1.021728516,0.7934569716453552,-0.305175781,0.2441406100988388
215086,0.044433594,0.018066406,1.02331543,0.7934569716453552,-0.24414061,0.2441406100988388
215103,0.043579102,0.017944336,1.025634766,0.8544921278953552,-0.24414061,0.2441406100988388
215119,0.045288086,0.018432617,1.024169922,0.7934569716453552,-0.305175781,0.2441406100988388
215153,0.044067383,0.017944336,1.023925781,0.9155272841453552,-0.305175781,0.2441406100988388
215169,0.044067383,0.016845703,1.024536133,0.8544921278953552,-0.305175781,0.2441406100988388
215185,0.044067383,0.017578125,1.02355957,0.8544921278953552,-0.305175781,0.2441406100988388
215221,0.044433594,0.017700195,1.024536133,0.8544921278953552,-0.24414061,0.1831054538488388
215237,0.043945313,0.017578125,1.024536133,0.7934569716453552,-0.24414061,0.1831054538488388
215253,0.044311523,0.017333984,1.023681641,0.8544921278953552,-0.24414061,0.2441406100988388
215269,0.044677734,0.016723633,1.023681641,0.7934569716453552,-0.24414061,0.1831054538488388
215291,0.044433594,0.016967773,1.024169922,0.7934569716453552,-0.24414061,0.1831054538488388
215307,0.043823242,0.017456055,1.024902344,0.8544921278953552,-0.305175781,0.305175781
215324,0.045166016,0.016723633,1.024169922,0.7934569716453552,-0.24414061,0.305175781
215390,0.044433594,0.017333984,1.02331543,0.8544921278953552,-0.305175781,0.2441406100988388
215407,0.044067383,0.017700195,1.024780273,0.9155272841453552,-0.305175781,0.305175781
215423,0.044799805,0.018798828,1.023803711,0.8544921278953552,-0.24414061,0.305175781
215453,0.045166016,0.016967773,1.023803711,0.8544921278953552,-0.305175781,0.2441406100988388
215475,0.043823242,0.017333984,1.025756836,0.7934569716453552,-0.305175781,0.2441406100988388
215491,0.044189453,0.017333984,1.024169922,0.7934569716453552,-0.305175781,0.2441406100988388
215508,0.044677734,0.017089844,1.023925781,0.7934569716453552,-0.305175781,0.2441406100988388
215525,0.044067383,0.017578125,1.024414063,0.7934569716453552,-0.305175781,0.1831054538488388
215541,0.044433594,0.017456055,1.024902344,0.7934569716453552,-0.24414061,0.1831054538488388
215572,0.044311523,0.018066406,1.023803711,0.7934569716453552,-0.24414061,0.1831054538488388
215588,0.044555664,0.018554688,1.024169922,0.7934569716453552,-0.24414061,0.2441406100988388
215604,0.043945313,0.018066406,1.024658203,0.8544921278953552,-0.24414061,0.2441406100988388
215636,0.044311523,0.018310547,1.023925781,0.7934569716453552,-0.305175781,0.2441406100988388
215652,0.045532227,0.018554688,1.024780273,0.7934569716453552,-0.24414061,0.1831054538488388
215668,0.045654297,0.017822266,1.024780273,0.8544921278953552,-0.24414061,0.1831054538488388
215684,0.044799805,0.016845703,1.023803711,0.8544921278953552,-0.305175781,0.1831054538488388
215708,0.043945313,0.017944336,1.023803711,0.9155272841453552,-0.305175781,0.1831054538488388
215724,0.044921875,0.017944336,1.023681641,0.8544921278953552,-0.305175781,0.1831054538488388
215741,0.043579102,0.016357422,1.025146484,0.7934569716453552,-0.305175781,0.2441406100988388
215758,0.043579102,0.017700195,1.024414063,0.7934569716453552,-0.24414061,0.1831054538488388
215808,0.044677734,0.017089844,1.024902344,0.7934569716453552,-0.24414061,0.1831054538488388
215825,0.044067383,0.017578125,1.023803711,0.7934569716453552,-0.305175781,0.2441406100988388
215846,0.043945313,0.017700195,1.024780273,0.7934569716453552,-0.24414061,0.1831054538488388
215862,0.044067383,0.018798828,1.024047852,0.7934569716453552,-0.183105454,0.1831054538488388
215879,0.044067383,0.018432617,1.024291992,0.7934569716453552,-0.24414061,0.305175781
215929,0.043945313,0.016845703,1.024414063,0.8544921278953552,-0.24414061,0.305175781
215945,0.044067383,0.016845703,1.02355957,0.7934569716453552,-0.24414061,0.1831054538488388
215962,0.043579102,0.017700195,1.023071289,0.7934569716453552,-0.24414061,0.1220703050494194
215994,0.044311523,0.018066406,1.024414063,0.8544921278953552,-0.305175781,0.305175781
216062,0.043334961,0.016967773,1.025146484,0.8544921278953552,-0.24414061,0.2441406100988388
216078,0.044555664,0.017089844,1.025390625,0.7934569716453552,-0.24414061,0.2441406100988388
216094,0.044311523,0.018188477,1.024536133,0.7934569716453552,-0.183105454,0.2441406100988388
216110,0.044677734,0.018798828,1.024536133,0.7934569716453552,-0.183105454,0.2441406100988388
216132,0.044067383,0.017700195,1.024047852,0.7934569716453552,-0.24414061,0.1831054538488388
216148,0.044677734,0.018310547,1.024780273,0.8544921278953552,-0.24414061,0.2441406100988388
216165,0.044799805,0.017944336,1.023803711,0.9155272841453552,-0.24414061,0.305175781
216182,0.044067383,0.017944336,1.024414063,0.9155272841453552,-0.24414061,0.305175781
216198,0.043701172,0.018798828,1.024291992,0.8544921278953552,-0.305175781,0.2441406100988388
216229,0.045288086,0.017333984,1.025024414,0.7934569716453552,-0.24414061,0.2441406100988388
216293,0.044433594,0.017944336,1.024169922,0.7934569716453552,-0.305175781,0.2441406100988388
216314,0.044189453,0.016845703,1.024414063,0.7934569716453552,-0.305175781,0.2441406100988388
216330,0.044555664,0.015625,1.023803711,0.8544921278953552,-0.24414061,0.305175781
216347,0.044189453,0.018310547,1.02331543,0.8544921278953552,-0.24414061,0.305175781
216364,0.044311523,0.018432617,1.025268555,0.8544921278953552,-0.24414061,0.1831054538488388
216380,0.044921875,0.017578125,1.025512695,0.7934569716453552,-0.24414061,0.2441406100988388
216412,0.043334961,0.018432617,1.024658203,0.8544921278953552,-0.24414061,0.2441406100988388
216428,0.043334961,0.018432617,1.025634766,0.9155272841453552,-0.24414061,0.2441406100988388
216444,0.044799805,0.017211914,1.023681641,0.7934569716453552,-0.183105454,0.2441406100988388
216476,0.042724609,0.017333984,1.024169922,0.8544921278953552,-0.24414061,0.2441406100988388
216492,0.044799805,0.018188477,1.025268555,0.8544921278953552,-0.305175781,0.2441406100988388
216508,0.044677734,0.017211914,1.025634766,0.8544921278953552,-0.24414061,0.2441406100988388
216524,0.044677734,0.016967773,1.023193359,0.7934569716453552,-0.24414061,0.1831054538488388
216544,0.043823242,0.017333984,1.024658203,0.7934569716453552,-0.305175781,0.305175781
216560,0.044067383,0.017456055,1.025268555,0.8544921278953552,-0.305175781,0.305175781
216576,0.044921875,0.017333984,1.024414063,0.8544921278953552,-0.305175781,0.1831054538488388
216592,0.044677734,0.015869141,1.023925781,0.8544921278953552,-0.305175781,0.1220703050494194
216608,0.043945313,0.016601563,1.024414063,0.8544921278953552,-0.305175781,0.2441406100988388
216624,0.04296875,0.019165039,1.024780273,0.8544921278953552,-0.305175781,0.2441406100988388
216656,0.044555664,0.017456055,1.02355957,0.7934569716453552,-0.24414061,0.1831054538488388
216672,0.044433594,0.017700195,1.023193359,0.7934569716453552,-0.24414061,0.1831054538488388
216688,0.043701172,0.016357422,1.024658203,0.8544921278953552,-0.24414061,0.2441406100988388
216704,0.043823242,0.017456055,1.023681641,0.7934569716453552,-0.305175781,0.2441406100988388
216728,0.044433594,0.016967773,1.024780273,0.7934569716453552,-0.24414061,0.2441406100988388
216744,0.044799805,0.017822266,1.024780273,0.7934569716453552,-0.183105454,0.1831054538488388
216761,0.044799805,0.017944336,1.024902344,0.8544921278953552,-0.305175781,0.1831054538488388
216782,0.045043945,0.017822266,1.023925781,0.8544921278953552,-0.24414061,0.2441406100988388
216798,0.044555664,0.017333984,1.0234375,0.8544921278953552,-0.183105454,0.305175781
216831,0.045410156,0.017822266,1.024536133,0.8544921278953552,-0.24414061,0.1831054538488388
216896,0.043945313,0.016845703,1.02355957,0.8544921278953552,-0.305175781,0.1831054538488388
216912,0.044189453,0.016479492,1.023681641,0.8544921278953552,-0.305175781,0.1831054538488388
216928,0.044677734,0.018310547,1.023925781,0.7934569716453552,-0.305175781,0.1831054538488388
216944,0.043945313,0.018676758,1.024047852,0.7934569716453552,-0.305175781,0.1831054538488388
216998,0.043945313,0.018554688,1.02355957,0.8544921278953552,-0.24414061,0.305175781
217030,0.045166016,0.016357422,1.023193359,0.8544921278953552,-0.24414061,0.2441406100988388
217047,0.044921875,0.017456055,1.023803711,0.8544921278953552,-0.24414061,0.2441406100988388
217064,0.045043945,0.017822266,1.0234375,0.8544921278953552,-0.305175781,0.305175781
217081,0.045043945,0.017456055,1.023071289,0.8544921278953552,-0.24414061,0.305175781
217097,0.044555664,0.016845703,1.0234375,0.7934569716453552,-0.24414061,0.2441406100988388
217130,0.044433594,0.018188477,1.024536133,0.8544921278953552,-0.24414061,0.2441406100988388
217152,0.044067383,0.017700195,1.0234375,0.9155272841453552,-0.305175781,0.1831054538488388
217168,0.043823242,0.017089844,1.02355957,0.9155272841453552,-0.305175781,0.1831054538488388
217185,0.043823242,0.018310547,1.023925781,0.8544921278953552,-0.305175781,0.2441406100988388
217202,0.044555664,0.018188477,1.024536133,0.7934569716453552,-0.24414061,0.2441406100988388
217218,0.044555664,0.017822266,1.024414063,0.7934569716453552,-0.24414061,0.2441406100988388
217252,0.044311523,0.016845703,1.024780273,0.7934569716453552,-0.183105454,0.1831054538488388
217268,0.044433594,0.017700195,1.024536133,0.8544921278953552,-0.24414061,0.1831054538488388
217284,0.044067383,0.017456055,1.02331543,0.8544921278953552,-0.24414061,0.2441406100988388
217316,0.043457031,0.016479492,1.026000977,0.8544921278953552,-0.183105454,0.2441406100988388
217332,0.043701172,0.016845703,1.024414063,0.7934569716453552,-0.24414061,0.1831054538488388
217348,0.044799805,0.018310547,1.023925781,0.7934569716453552,-0.305175781,0.2441406100988388
217364,0.044799805,0.018066406,1.024414063,0.7934569716453552,-0.305175781,0.2441406100988388
217388,0.044311523,0.017578125,1.024780273,0.8544921278953552,-0.305175781,0.305175781
217404,0.044311523,0.018188477,1.024902344,0.9155272841453552,-0.305175781,0.1831054538488388
217421,0.045654297,0.016113281,1.023681641,0.9155272841453552,-0.24414061,0.2441406100988388
217442,0.044433594,0.016845703,1.024658203,0.8544921278953552,-0.24414061,0.2441406100988388
217458,0.044311523,0.018188477,1.022827148,0.8544921278953552,-0.24414061,0.2441406100988388
217491,0.045654297,0.017456055,1.023925781,0.8544921278953552,-0.305175781,0.2441406100988388
217508,0.043945313,0.016601563,1.02331543,0.9155272841453552,-0.305175781,0.2441406100988388
217524,0.043945313,0.017333984,1.023925781,0.8544921278953552,-0.305175781,0.2441406100988388
217556,0.044311523,0.018188477,1.023925781,0.7934569716453552,-0.24414061,0.1831054538488388
217572,0.044555664,0.018798828,1.024780273,0.7934569716453552,-0.305175781,0.1831054538488388
217588,0.044189453,0.017578125,1.024780273,0.7934569716453552,-0.305175781,0.2441406100988388
217604,0.044433594,0.017578125,1.023925781,0.8544921278953552,-0.305175781,0.2441406100988388
217624,0.043823242,0.017333984,1.022705078,0.8544921278953552,-0.305175781,0.305175781
217640,0.045166016,0.017700195,1.024291992,0.8544921278953552,-0.24414061,0.305175781
217656,0.045043945,0.017700195,1.023681641,0.8544921278953552,-0.24414061,0.305175781
217672,0.044433594,0.017944336,1.022949219,0.7934569716453552,-0.305175781,0.2441406100988388
217697,0.043823242,0.017333984,1.024780273,0.7324218153953552,-0.24414061,0.1831054538488388
217717,0.044311523,0.017456055,1.025268555,0.7934569716453552,-0.24414061,0.1831054538488388
217737,0.044433594,0.018310547,1.022583008,0.8544921278953552,-0.24414061,0.2441406100988388
217753,0.043457031,0.017944336,1.025024414,0.7324218153953552,-0.24414061,0.305175781
217770,0.043579102,0.017944336,1.024780273,0.7934569716453552,-0.24414061,0.305175781
217787,0.043945313,0.017822266,1.024414063,0.8544921278953552,-0.24414061,0.1831054538488388
217803,0.044555664,0.017578125,1.023193359,0.7934569716453552,-0.24414061,0.2441406100988388
217820,0.043945313,0.017211914,1.024414063,0.8544921278953552,-0.24414061,0.2441406100988388
217852,0.044555664,0.017822266,1.022949219,0.7934569716453552,-0.183105454,0.1831054538488388
217873,0.043457031,0.017456055,1.02355957,0.8544921278953552,-0.24414061,0.1831054538488388
217889,0.043579102,0.017944336,1.024047852,0.8544921278953552,-0.24414061,0.2441406100988388
217906,0.044067383,0.017700195,1.023681641,0.8544921278953552,-0.24414061,0.2441406100988388
217923,0.044799805,0.017211914,1.023681641,0.8544921278953552,-0.24414061,0.2441406100988388
217939,0.044677734,0.018188477,1.022949219,0.8544921278953552,-0.24414061,0.2441406100988388
217973,0.044189453,0.016723633,1.023193359,0.8544921278953552,-0.24414061,0.1831054538488388
217989,0.044677734,0.018920898,1.022827148,0.7934569716453552,-0.24414061,0.1831054538488388
218005,0.044677734,0.019042969,1.022583008,0.8544921278953552,-0.24414061,0.1831054538488388
218041,0.044067383,0.018066406,1.024291992,0.8544921278953552,-0.24414061,0.1831054538488388
218058,0.045410156,0.01953125,1.023193359,0.7934569716453552,-0.305175781,0.2441406100988388
218079,0.044921875,0.018920898,1.023681641,0.7934569716453552,-0.305175781,0.2441406100988388
218098,0.043945313,0.017333984,1.024780273,0.8544921278953552,-0.183105454,0.2441406100988388
218115,0.044921875,0.016235352,1.02355957,0.8544921278953552,-0.24414061,0.2441406100988388
218131,0.044555664,0.017456055,1.023681641,0.7934569716453552,-0.24414061,0.1831054538488388
218148,0.044311523,0.017333984,1.025146484,0.8544921278953552,-0.183105454,0.2441406100988388
218164,0.043823242,0.016601563,1.024536133,0.9155272841453552,-0.183105454,0.2441406100988388
218181,0.045288086,0.017578125,1.022827148,0.7934569716453552,-0.305175781,0.305175781
218213,0.044555664,0.017700195,1.024658203,0.8544921278953552,-0.305175781,0.1831054538488388
218229,0.043579102,0.018066406,1.02355957,0.8544921278953552,-0.24414061,0.1831054538488388
218245,0.043701172,0.017822266,1.02355957,0.8544921278953552,-0.305175781,0.2441406100988388
218281,0.043701172,0.018188477,1.024169922,0.7934569716453552,-0.24414061,0.1831054538488388
218338,0.04309082,0.017456055,1.024780273,0.7934569716453552,-0.305175781,0.2441406100988388
218354,0.043945313,0.018188477,1.023803711,0.7934569716453552,-0.305175781,0.2441406100988388
218385,0.045166016,0.015991211,1.023071289,0.7934569716453552,-0.305175781,0.1831054538488388
218404,0.044921875,0.017944336,1.025878906,0.8544921278953552,-0.305175781,0.2441406100988388
218420,0.045166016,0.017211914,1.024780273,0.9155272841453552,-0.183105454,0.2441406100988388
218453,0.043701172,0.017700195,1.0234375,0.7934569716453552,-0.305175781,0.305175781
218501,0.045043945,0.017456055,1.024536133,0.8544921278953552,-0.24414061,0.2441406100988388
218523,0.043334961,0.017700195,1.023681641,0.8544921278953552,-0.24414061,0.2441406100988388
218540,0.044067383,0.018432617,1.022949219,0.8544921278953552,-0.24414061,0.2441406100988388
218571,0.044067383,0.017456055,1.025146484,0.8544921278953552,-0.305175781,0.1831054538488388
218587,0.043823242,0.017578125,1.024658203,0.7934569716453552,-0.305175781,0.1831054538488388
218603,0.044555664,0.017822266,1.024291992,0.9155272841453552,-0.24414061,0.2441406100988388
218636,0.044799805,0.017944336,1.02331543,0.8544921278953552,-0.24414061,0.2441406100988388
218652,0.044677734,0.016723633,1.025146484,0.7934569716453552,-0.305175781,0.2441406100988388
218668,0.044677734,0.016845703,1.025634766,0.8544921278953552,-0.305175781,0.2441406100988388
218684,0.044555664,0.018066406,1.022949219,0.8544921278953552,-0.24414061,0.2441406100988388
218709,0.044311523,0.016845703,1.024780273,0.7934569716453552,-0.24414061,0.305175781
218725,0.043823242,0.017700195,1.025024414,0.8544921278953552,-0.305175781,0.2441406100988388
218742,0.045043945,0.018066406,1.022705078,0.8544921278953552,-0.305175781,0.2441406100988388
218759,0.044555664,0.017700195,1.02331543,0.7934569716453552,-0.24414061,0.2441406100988388
218775,0.043945313,0.017333984,1.023681641,0.7934569716453552,-0.24414061,0.2441406100988388
218809,0.045532227,0.017578125,1.02331543,0.7934569716453552,-0.305175781,0.1831054538488388
218826,0.044189453,0.016967773,1.023803711,0.7934569716453552,-0.24414061,0.2441406100988388
218847,0.043823242,0.016845703,1.024658203,0.7934569716453552,-0.24414061,0.1831054538488388
218863,0.044555664,0.017944336,1.024414063,0.7324218153953552,-0.183105454,0.1831054538488388
218880,0.045043945,0.019042969,1.023803711,0.7934569716453552,-0.24414061,0.2441406100988388
218901,0.044189453,0.019165039,1.022949219,0.8544921278953552,-0.24414061,0.1831054538488388
218934,0.044555664,0.017944336,1.024658203,0.7934569716453552,-0.305175781,0.2441406100988388
218955,0.045166016,0.016723633,1.025512695,0.8544921278953552,-0.24414061,0.2441406100988388
218971,0.044799805,0.018066406,1.024414063,0.7934569716453552,-0.183105454,0.1831054538488388
218987,0.044189453,0.018676758,1.023803711,0.7934569716453552,-0.24414061,0.1831054538488388
219009,0.044677734,0.016845703,1.02355957,0.7934569716453552,-0.305175781,0.1831054538488388
219025,0.044433594,0.017211914,1.023925781,0.7934569716453552,-0.366210908,0.1831054538488388
219042,0.044921875,0.017578125,1.024169922,0.7934569716453552,-0.305175781,0.1831054538488388
219062,0.044677734,0.017700195,1.024291992,0.8544921278953552,-0.305175781,0.305175781
219078,0.044067383,0.016967773,1.024047852,0.8544921278953552,-0.24414061,0.1831054538488388
219111,0.044555664,0.019042969,1.023803711,0.8544921278953552,-0.305175781,0.1831054538488388
219128,0.044677734,0.018188477,1.023803711,0.7934569716453552,-0.24414061,0.1831054538488388
219144,0.045166016,0.016357422,1.023803711,0.8544921278953552,-0.183105454,0.1831054538488388
219176,0.04309082,0.018188477,1.024169922,0.7934569716453552,-0.24414061,0.2441406100988388
219192,0.043945313,0.017089844,1.024169922,0.8544921278953552,-0.24414061,0.1831054538488388
219208,0.044189453,0.017578125,1.023681641,0.8544921278953552,-0.24414061,0.1831054538488388
219224,0.044067383,0.017211914,1.02331543,0.8544921278953552,-0.24414061,0.1831054538488388
219249,0.044189453,0.017700195,1.0234375,0.7934569716453552,-0.305175781,0.2441406100988388
219265,0.044189453,0.018920898,1.0234375,0.7934569716453552,-0.24414061,0.1831054538488388
219282,0.043457031,0.018554688,1.02331543,0.8544921278953552,-0.24414061,0.2441406100988388
219299,0.042480469,0.017700195,1.0234375,0.7934569716453552,-0.305175781,0.2441406100988388
219315,0.043945313,0.017456055,1.024536133,0.8544921278953552,-0.24414061,0.2441406100988388
219348,0.044677734,0.017822266,1.024780273,0.7324218153953552,-0.305175781,0.1831054538488388
219413,0.043701172,0.018554688,1.024658203,0.7934569716453552,-0.24414061,0.1831054538488388
219485,0.044433594,0.018432617,1.024291992,0.8544921278953552,-0.305175781,0.2441406100988388
219502,0.044677734,0.017944336,1.024536133,0.7934569716453552,-0.305175781,0.305175781
219535,0.043701172,0.018066406,1.022827148,0.8544921278953552,-0.24414061,0.2441406100988388
219552,0.043579102,0.017822266,1.024291992,0.7934569716453552,-0.305175781,0.2441406100988388
219568,0.044067383,0.016845703,1.024658203,0.7934569716453552,-0.305175781,0.2441406100988388
219584,0.043334961,0.017333984,1.0234375,0.7934569716453552,-0.24414061,0.1831054538488388
219609,0.044433594,0.017944336,1.024536133,0.7934569716453552,-0.183105454,0.305175781
219625,0.044921875,0.018310547,1.024414063,0.7934569716453552,-0.183105454,0.305175781
219642,0.044677734,0.017944336,1.024291992,0.9155272841453552,-0.305175781,0.2441406100988388
219659,0.043457031,0.018432617,1.024169922,0.7324218153953552,-0.24414061,0.2441406100988388
219675,0.044921875,0.017456055,1.024414063,0.7324218153953552,-0.305175781,0.2441406100988388
219709,0.043579102,0.017822266,1.023925781,0.7934569716453552,-0.305175781,0.2441406100988388
219757,0.045043945,0.018066406,1.024047852,0.8544921278953552,-0.24414061,0.1831054538488388
219848,0.043579102,0.017578125,1.02355957,0.8544921278953552,-0.24414061,0.2441406100988388
219865,0.043579102,0.016601563,1.024169922,0.8544921278953552,-0.305175781,0.2441406100988388
219882,0.044555664,0.017456055,1.024658203,0.7934569716453552,-0.305175781,0.2441406100988388
219902,0.045043945,0.018554688,1.024902344,0.8544921278953552,-0.24414061,0.2441406100988388
219918,0.044555664,0.017700195,1.025268555,0.7934569716453552,-0.24414061,0.1831054538488388
219935,0.044677734,0.018554688,1.024414063,0.7934569716453552,-0.24414061,0.1220703050494194
219951,0.044555664,0.017822266,1.023193359,0.8544921278953552,-0.24414061,0.1831054538488388
219973,0.044433594,0.016113281,1.022827148,0.8544921278953552,-0.305175781,0.2441406100988388
219989,0.043823242,0.017456055,1.024536133,0.8544921278953552,-0.305175781,0.2441406100988388
220006,0.044067383,0.018432617,1.024780273,0.7934569716453552,-0.24414061,0.305175781
220023,0.043945313,0.018188477,1.023681641,0.7324218153953552,-0.24414061,0.1831054538488388
220072,0.044799805,0.018066406,1.024047852,0.8544921278953552,-0.305175781,0.2441406100988388
220094,0.044189453,0.018066406,1.023925781,0.7934569716453552,-0.305175781,0.305175781
220110,0.044433594,0.017944336,1.024169922,0.7934569716453552,-0.305175781,0.1831054538488388
220127,0.044067383,0.017700195,1.023925781,0.8544921278953552,-0.24414061,0.1831054538488388
220148,0.044433594,0.017211914,1.023925781,0.8544921278953552,-0.24414061,0.1831054538488388
220168,0.044067383,0.017578125,1.024169922,0.7934569716453552,-0.24414061,0.2441406100988388
220185,0.043579102,0.017211914,1.024780273,0.7934569716453552,-0.24414061,0.2441406100988388
220202,0.043945313,0.017700195,1.023925781,0.8544921278953552,-0.305175781,0.2441406100988388
220222,0.044189453,0.018554688,1.024536133,0.7934569716453552,-0.24414061,0.2441406100988388
220254,0.044433594,0.018066406,1.024169922,0.7934569716453552,-0.24414061,0.1831054538488388
220274,0.044799805,0.017211914,1.022827148,0.7934569716453552,-0.24414061,0.2441406100988388
220290,0.045043945,0.016601563,1.023803711,0.7934569716453552,-0.305175781,0.305175781
220306,0.044067383,0.017333984,1.025146484,0.9155272841453552,-0.183105454,0.2441406100988388
220323,0.043945313,0.016967773,1.025634766,0.8544921278953552,-0.24414061,0.1831054538488388
220344,0.04296875,0.016845703,1.024291992,0.7934569716453552,-0.24414061,0.2441406100988388
220360,0.043945313,0.017211914,1.024047852,0.7934569716453552,-0.305175781,0.1831054538488388
220381,0.045166016,0.018432617,1.024902344,0.7934569716453552,-0.183105454,0.1831054538488388
220397,0.044433594,0.019287109,1.024169922,0.7934569716453552,-0.183105454,0.2441406100988388
220414,0.045043945,0.018676758,1.02355957,0.8544921278953552,-0.305175781,0.2441406100988388
220430,0.044799805,0.017700195,1.02355957,0.7934569716453552,-0.24414061,0.2441406100988388
220447,0.044067383,0.018310547,1.024536133,0.7934569716453552,-0.24414061,0.2441406100988388
220463,0.043945313,0.018798828,1.024291992,0.7934569716453552,-0.24414061,0.1831054538488388
220495,0.044067383,0.017822266,1.024536133,0.9155272841453552,-0.183105454,0.2441406100988388
220511,0.044433594,0.017456055,1.024902344,0.7934569716453552,-0.24414061,0.1831054538488388
220527,0.044067383,0.018310547,1.024047852,0.7934569716453552,-0.24414061,0.1831054538488388
220543,0.043701172,0.018432617,1.0234375,0.8544921278953552,-0.305175781,0.2441406100988388
220563,0.044799805,0.017700195,1.024536133,0.7934569716453552,-0.305175781,0.2441406100988388
220585,0.044677734,0.017700195,1.024536133,0.7934569716453552,-0.24414061,0.1831054538488388
220601,0.044311523,0.019042969,1.023803711,0.8544921278953552,-0.24414061,0.2441406100988388
220618,0.045043945,0.018554688,1.025268555,0.8544921278953552,-0.305175781,0.305175781
220635,0.045043945,0.018188477,1.024536133,0.7324218153953552,-0.24414061,0.2441406100988388
220668,0.044433594,0.017822266,1.022094727,0.9155272841453552,-0.305175781,0.1831054538488388
220685,0.043823242,0.017944336,1.0234375,0.8544921278953552,-0.305175781,0.1831054538488388
220701,0.044311523,0.017822266,1.024658203,0.7934569716453552,-0.24414061,0.2441406100988388
220732,0.045166016,0.017333984,1.022216797,0.8544921278953552,-0.305175781,0.305175781
220753,0.044677734,0.017211914,1.023925781,0.7934569716453552,-0.305175781,0.1831054538488388
220769,0.043212891,0.019287109,1.023803711,0.7324218153953552,-0.305175781,0.2441406100988388
220786,0.043823242,0.018920898,1.023681641,0.8544921278953552,-0.366210908,0.2441406100988388
220803,0.044433594,0.018310547,1.02355957,0.8544921278953552,-0.305175781,0.2441406100988388
220819,0.045043945,0.017944336,1.024536133,0.7934569716453552,-0.305175781,0.1831054538488388
220851,0.044921875,0.017700195,1.024047852,0.9155272841453552,-0.305175781,0.2441406100988388
220873,0.044433594,0.017700195,1.022583008,0.9765624403953552,-0.24414061,0.1831054538488388
220889,0.04296875,0.017333984,1.024414063,0.8544921278953552,-0.24414061,0.1831054538488388
220939,0.044555664,0.017944336,1.023803711,0.8544921278953552,-0.24414061,0.305175781
220983,0.044189453,0.017456055,1.023681641,0.8544921278953552,-0.24414061,0.2441406100988388
221000,0.045166016,0.018554688,1.025390625,0.7934569716453552,-0.24414061,0.305175781
221031,0.044799805,0.017211914,1.023071289,0.7934569716453552,-0.305175781,0.305175781
221047,0.044433594,0.016357422,1.02355957,0.8544921278953552,-0.24414061,0.305175781
221064,0.044067383,0.016723633,1.025024414,0.8544921278953552,-0.24414061,0.2441406100988388
221096,0.044677734,0.017700195,1.023803711,0.7934569716453552,-0.24414061,0.2441406100988388
221112,0.045166016,0.017578125,1.0234375,0.8544921278953552,-0.24414061,0.2441406100988388
221128,0.044799805,0.017211914,1.023681641,0.8544921278953552,-0.24414061,0.2441406100988388
221144,0.044189453,0.017822266,1.024658203,0.7934569716453552,-0.24414061,0.2441406100988388
221169,0.044677734,0.018554688,1.024291992,0.8544921278953552,-0.305175781,0.2441406100988388
221185,0.044189453,0.017700195,1.023803711,0.7934569716453552,-0.24414061,0.1831054538488388
221202,0.044433594,0.018676758,1.024536133,0.7324218153953552,-0.24414061,0.1831054538488388
221219,0.044677734,0.017822266,1.024414063,0.7934569716453552,-0.305175781,0.2441406100988388
221235,0.043457031,0.017700195,1.023803711,0.7934569716453552,-0.24414061,0.2441406100988388
221269,0.045288086,0.016967773,1.025024414,0.7934569716453552,-0.24414061,0.1831054538488388
221323,0.04309082,0.017822266,1.023803711,0.7934569716453552,-0.305175781,0.2441406100988388
221349,0.045654297,0.018188477,1.024169922,0.8544921278953552,-0.24414061,0.2441406100988388
221366,0.045532227,0.018676758,1.023681641,0.7934569716453552,-0.305175781,0.305175781
221383,0.044677734,0.017211914,1.024414063,0.7934569716453552,-0.24414061,0.2441406100988388
221402,0.044433594,0.016967773,1.024658203,0.7934569716453552,-0.305175781,0.2441406100988388
221418,0.043701172,0.018066406,1.024291992,0.7934569716453552,-0.305175781,0.1831054538488388
221435,0.043334961,0.01953125,1.024536133,0.7934569716453552,-0.183105454,0.1831054538488388
221451,0.043579102,0.018676758,1.025390625,0.8544921278953552,-0.24414061,0.2441406100988388
221473,0.044311523,0.017944336,1.024902344,0.8544921278953552,-0.305175781,0.2441406100988388
221489,0.044921875,0.016601563,1.023681641,0.7934569716453552,-0.24414061,0.2441406100988388
221506,0.043457031,0.017456055,1.022705078,0.8544921278953552,-0.183105454,0.2441406100988388
221523,0.044067383,0.017700195,1.023681641,0.8544921278953552,-0.24414061,0.2441406100988388
221539,0.045776367,0.017700195,1.023803711,0.8544921278953552,-0.24414061,0.305175781
221573,0.043334961,0.017700195,1.024414063,0.8544921278953552,-0.183105454,0.305175781
221638,0.044189453,0.017211914,1.021972656,0.7324218153953552,-0.24414061,0.2441406100988388
221659,0.044555664,0.016357422,1.024902344,0.7934569716453552,-0.24414061,0.1831054538488388
221675,0.044921875,0.017578125,1.02331543,0.7934569716453552,-0.305175781,0.1831054538488388
221689,0.044067383,0.018066406,1.02355957,0.7934569716453552,-0.305175781,0.1831054538488388
221706,0.044067383,0.017700195,1.024291992,0.7934569716453552,-0.24414061,0.2441406100988388
221723,0.044677734,0.017333984,1.024169922,0.9155272841453552,-0.24414061,0.2441406100988388
221756,0.045288086,0.017211914,1.023925781,0.9155272841453552,-0.24414061,0.2441406100988388
221804,0.045288086,0.017211914,1.024536133,0.8544921278953552,-0.305175781,0.2441406100988388
221825,0.043579102,0.017089844,1.023925781,0.8544921278953552,-0.24414061,0.2441406100988388
221842,0.043334961,0.019042969,1.024291992,0.8544921278953552,-0.24414061,0.2441406100988388
221875,0.043823242,0.017700195,1.024414063,0.7934569716453552,-0.305175781,0.1831054538488388
221892,0.044677734,0.017456055,1.022338867,0.8544921278953552,-0.24414061,0.2441406100988388
221908,0.044677734,0.017578125,1.024169922,0.7934569716453552,-0.24414061,0.2441406100988388
221924,0.044311523,0.018554688,1.025024414,0.7934569716453552,-0.305175781,0.305175781
221944,0.044677734,0.018066406,1.022583008,0.8544921278953552,-0.305175781,0.2441406100988388
221960,0.043701172,0.018310547,1.024414063,0.8544921278953552,-0.305175781,0.1831054538488388
221976,0.043945313,0.018554688,1.024902344,0.7934569716453552,-0.24414061,0.1831054538488388
221992,0.044433594,0.017333984,1.023193359,0.7934569716453552,-0.24414061,0.1220703050494194
222012,0.043945313,0.017456055,1.022583008,0.8544921278953552,-0.183105454,0.2441406100988388
222032,0.043945313,0.017333984,1.024169922,0.7934569716453552,-0.24414061,0.1831054538488388
222048,0.044189453,0.016723633,1.024780273,0.7934569716453552,-0.305175781,0.1831054538488388
222065,0.044921875,0.017700195,1.024780273,0.7934569716453552,-0.305175781,0.1831054538488388
222090,0.043334961,0.017089844,1.023803711,0.8544921278953552,-0.305175781,0.1831054538488388
222106,0.043823242,0.017578125,1.025268555,0.8544921278953552,-0.305175781,0.1831054538488388
222123,0.045166016,0.018432617,1.02355957,0.7934569716453552,-0.305175781,0.2441406100988388
222140,0.044799805,0.018188477,1.022705078,0.8544921278953552,-0.24414061,0.2441406100988388
222171,0.044189453,0.016601563,1.025268555,0.8544921278953552,-0.305175781,0.305175781
222188,0.044433594,0.017211914,1.024780273,0.8544921278953552,-0.24414061,0.2441406100988388
222204,0.044067383,0.017822266,1.022705078,0.7934569716453552,-0.24414061,0.2441406100988388
222235,0.044311523,0.017456055,1.024169922,0.8544921278953552,-0.24414061,0.305175781
222289,0.043212891,0.016479492,1.024780273,0.7934569716453552,-0.183105454,0.2441406100988388
222306,0.043945313,0.017578125,1.024658203,0.8544921278953552,-0.183105454,0.2441406100988388
222322,0.044799805,0.018432617,1.0234375,0.9155272841453552,-0.24414061,0.2441406100988388
222356,0.043945313,0.018066406,1.022949219,0.7934569716453552,-0.183105454,0.2441406100988388
222372,0.044311523,0.017700195,1.024780273,0.8544921278953552,-0.183105454,0.1831054538488388
222388,0.044921875,0.017944336,1.024780273,0.7934569716453552,-0.24414061,0.1831054538488388
222404,0.044555664,0.017822266,1.0234375,0.8544921278953552,-0.366210908,0.1831054538488388
222424,0.043579102,0.018310547,1.024047852,0.8544921278953552,-0.305175781,0.2441406100988388
222440,0.043334961,0.017700195,1.024291992,0.7934569716453552,-0.24414061,0.1831054538488388
222456,0.045288086,0.017333984,1.024536133,0.7934569716453552,-0.305175781,0.2441406100988388
222472,0.044921875,0.018188477,1.025024414,0.7934569716453552,-0.305175781,0.2441406100988388
222493,0.044677734,0.018554688,1.025024414,0.7324218153953552,-0.24414061,0.1831054538488388
222509,0.044677734,0.017578125,1.024414063,0.7324218153953552,-0.305175781,0.305175781
222526,0.043457031,0.017578125,1.024291992,0.7934569716453552,-0.305175781,0.305175781
222543,0.04309082,0.018310547,1.023803711,0.7934569716453552,-0.24414061,0.2441406100988388
222593,0.044555664,0.017822266,1.023681641,0.7934569716453552,-0.24414061,0.305175781
222609,0.044311523,0.017578125,1.0234375,0.7324218153953552,-0.24414061,0.2441406100988388
222625,0.045166016,0.017822266,1.024291992,0.7324218153953552,-0.24414061,0.2441406100988388
222657,0.044799805,0.018188477,1.023681641,0.7934569716453552,-0.24414061,0.2441406100988388
222673,0.044555664,0.018920898,1.02355957,0.7324218153953552,-0.24414061,0.2441406100988388
222689,0.043945313,0.019165039,1.024291992,0.7324218153953552,-0.24414061,0.2441406100988388
222705,0.044189453,0.018920898,1.022583008,0.7934569716453552,-0.24414061,0.2441406100988388
222726,0.043823242,0.018432617,1.023681641,0.8544921278953552,-0.305175781,0.2441406100988388
222747,0.044311523,0.018188477,1.024658203,0.8544921278953552,-0.305175781,0.2441406100988388
222763,0.045043945,0.017822266,1.02331543,0.8544921278953552,-0.305175781,0.1831054538488388
222780,0.044555664,0.018676758,1.023681641,0.7934569716453552,-0.24414061,0.2441406100988388
222797,0.043457031,0.018188477,1.024414063,0.7934569716453552,-0.24414061,0.2441406100988388
222830,0.045288086,0.017333984,1.024169922,0.7934569716453552,-0.183105454,0.2441406100988388
222847,0.043457031,0.017822266,1.023071289,0.8544921278953552,-0.183105454,0.2441406100988388
222863,0.044433594,0.017333984,1.024780273,0.9155272841453552,-0.24414061,0.2441406100988388
222895,0.04309082,0.017944336,1.024169922,0.9155272841453552,-0.183105454,0.2441406100988388
222911,0.043579102,0.018432617,1.024047852,0.9155272841453552,-0.24414061,0.2441406100988388
222927,0.044799805,0.018432617,1.024414063,0.8544921278953552,-0.24414061,0.1831054538488388
222943,0.045043945,0.018432617,1.024169922,0.8544921278953552,-0.24414061,0.2441406100988388
222968,0.045410156,0.018066406,1.024414063,0.9765624403953552,-0.305175781,0.305175781
222984,0.044677734,0.017456055,1.024291992,0.9155272841453552,-0.24414061,0.305175781
223001,0.044555664,0.017700195,1.024902344,0.9155272841453552,-0.24414061,0.2441406100988388
223021,0.045898438,0.017089844,1.025024414,0.8544921278953552,-0.24414061,0.1831054538488388
223042,0.044067383,0.017456055,1.023803711,0.7934569716453552,-0.24414061,0.2441406100988388
223062,0.043945313,0.017822266,1.02355957,0.7934569716453552,-0.24414061,0.2441406100988388
223083,0.044311523,0.017211914,1.025146484,0.8544921278953552,-0.183105454,0.1831054538488388
223099,0.045166016,0.017333984,1.024414063,0.9155272841453552,-0.24414061,0.1831054538488388
223115,0.043823242,0.017333984,1.020996094,0.8544921278953552,-0.305175781,0.2441406100988388
223131,0.043945313,0.016479492,1.022705078,0.7934569716453552,-0.305175781,0.305175781
223151,0.044555664,0.016845703,1.024780273,0.8544921278953552,-0.24414061,0.2441406100988388
223171,0.044921875,0.018066406,1.024169922,0.8544921278953552,-0.24414061,0.2441406100988388
223187,0.044921875,0.017333984,1.022949219,0.8544921278953552,-0.24414061,0.1831054538488388
223204,0.044189453,0.016967773,1.024414063,0.8544921278953552,-0.24414061,0.1831054538488388
223225,0.043823242,0.016723633,1.024169922,0.8544921278953552,-0.305175781,0.2441406100988388
223241,0.044677734,0.017578125,1.024291992,0.8544921278953552,-0.24414061,0.2441406100988388
223262,0.044189453,0.017700195,1.024414063,0.8544921278953552,-0.24414061,0.2441406100988388
223279,0.043823242,0.017578125,1.024169922,0.8544921278953552,-0.305175781,0.2441406100988388
223295,0.045288086,0.017822266,1.024047852,0.9155272841453552,-0.24414061,0.1831054538488388
223345,0.04309082,0.017211914,1.025756836,0.7934569716453552,-0.305175781,0.1831054538488388
223387,0.044555664,0.017333984,1.027709961,0.8544921278953552,-0.24414061,0.2441406100988388
223404,0.044677734,0.016601563,1.025634766,0.7934569716453552,-0.305175781,0.2441406100988388
223421,0.045532227,0.01550293,1.021240234,0.7934569716453552,-0.24414061,0.2441406100988388
223441,0.044799805,0.017089844,1.025268555,0.7934569716453552,-0.183105454,0.2441406100988388
223458,0.044555664,0.017089844,1.026611328,0.8544921278953552,-0.24414061,0.2441406100988388
223474,0.044677734,0.018066406,1.024902344,0.8544921278953552,-0.24414061,0.2441406100988388
223490,0.044921875,0.016967773,1.022460938,0.8544921278953552,-0.24414061,0.2441406100988388
223512,0.044067383,0.017700195,1.024902344,0.8544921278953552,-0.24414061,0.2441406100988388
223528,0.044555664,0.018066406,1.024291992,0.7934569716453552,-0.24414061,0.2441406100988388
223545,0.044189453,0.017822266,1.01940918,0.7934569716453552,-0.24414061,0.2441406100988388
223562,0.043945313,0.017456055,1.023193359,0.7934569716453552,-0.24414061,0.2441406100988388
223578,0.044189453,0.016235352,1.021972656,0.7324218153953552,-0.24414061,0.2441406100988388
223611,0.045898438,0.017578125,1.027099609,0.8544921278953552,-0.122070305,0.1831054538488388
223627,0.044433594,0.018066406,1.025512695,0.7934569716453552,-0.183105454,0.2441406100988388
223643,0.043579102,0.017700195,1.024536133,0.7324218153953552,-0.24414061,0.2441406100988388
223675,0.045654297,0.017822266,1.025878906,0.7934569716453552,-0.24414061,0.1831054538488388
223691,0.043823242,0.016967773,1.022216797,0.8544921278953552,-0.305175781,0.1831054538488388
223707,0.044067383,0.017944336,1.024169922,0.7934569716453552,-0.24414061,0.1831054538488388
223723,0.043823242,0.018188477,1.024780273,0.7934569716453552,-0.183105454,0.1831054538488388
223748,0.044311523,0.017822266,1.0234375,0.7934569716453552,-0.24414061,0.1831054538488388
223764,0.045166016,0.017456055,1.028564453,0.8544921278953552,-0.24414061,0.1831054538488388
223781,0.043823242,0.018554688,1.026733398,0.8544921278953552,-0.305175781,0.1831054538488388
223802,0.045288086,0.018920898,1.024536133,0.8544921278953552,-0.24414061,0.2441406100988388
223818,0.044311523,0.018310547,1.022216797,0.7934569716453552,-0.24414061,0.2441406100988388
223852,0.044555664,0.017333984,1.025390625,0.8544921278953552,-0.24414061,0.2441406100988388
223868,0.045410156,0.017333984,1.023193359,0.8544921278953552,-0.305175781,0.1831054538488388
223884,0.044677734,0.016967773,1.02355957,0.8544921278953552,-0.305175781,0.1831054538488388
223912,0.043701172,0.016601563,1.023803711,0.8544921278953552,-0.305175781,0.1831054538488388
223934,0.046020508,0.016235352,1.020996094,0.9155272841453552,-0.305175781,0.2441406100988388
223950,0.043945313,0.016845703,1.02722168,0.9155272841453552,-0.305175781,0.2441406100988388
223967,0.043334961,0.016845703,1.027832031,0.9155272841453552,-0.305175781,0.2441406100988388
223984,0.044433594,0.017944336,1.022338867,0.8544921278953552,-0.24414061,0.2441406100988388
224000,0.045288086,0.017456055,1.023071289,0.8544921278953552,-0.24414061,0.2441406100988388
224034,0.044799805,0.018432617,1.024658203,0.8544921278953552,-0.24414061,0.2441406100988388
224050,0.045532227,0.016723633,1.023193359,0.7934569716453552,-0.24414061,0.1831054538488388
224066,0.045776367,0.017333984,1.023803711,0.7934569716453552,-0.24414061,0.1831054538488388
224102,0.044677734,0.016845703,1.022338867,0.8544921278953552,-0.24414061,0.2441406100988388
224124,0.045288086,0.017089844,1.026123047,0.8544921278953552,-0.305175781,0.2441406100988388
224140,0.044433594,0.016357422,1.025512695,0.7934569716453552,-0.366210908,0.2441406100988388
224161,0.043701172,0.016113281,1.024291992,0.7934569716453552,-0.24414061,0.2441406100988388
224178,0.043945313,0.016967773,1.023925781,0.7934569716453552,-0.24414061,0.2441406100988388
224211,0.043579102,0.015991211,1.024902344,0.7324218153953552,-0.24414061,0.1831054538488388
224227,0.043457031,0.016235352,1.024414063,0.7324218153953552,-0.24414061,0.1831054538488388
224244,0.044311523,0.017944336,1.025512695,0.7934569716453552,-0.305175781,0.2441406100988388
224277,0.044433594,0.016601563,1.023681641,0.7934569716453552,-0.305175781,0.2441406100988388
224298,0.04309082,0.017944336,1.024414063,0.7324218153953552,-0.24414061,0.2441406100988388
224314,0.04309082,0.017089844,1.024169922,0.7324218153953552,-0.24414061,0.2441406100988388
224331,0.045043945,0.017578125,1.0234375,0.7324218153953552,-0.24414061,0.2441406100988388
224348,0.045043945,0.017211914,1.022460938,0.7934569716453552,-0.24414061,0.305175781
224364,0.044799805,0.018310547,1.024658203,0.7934569716453552,-0.24414061,0.2441406100988388
224402,0.044677734,0.018432617,1.022949219,0.8544921278953552,-0.24414061,0.2441406100988388
224418,0.043945313,0.018920898,1.023681641,0.7934569716453552,-0.24414061,0.2441406100988388
224434,0.044311523,0.017211914,1.024047852,0.7934569716453552,-0.305175781,0.1831054538488388
224450,0.045166016,0.017333984,1.024414063,0.7934569716453552,-0.24414061,0.1831054538488388
224468,0.045288086,0.017456055,1.024047852,0.7934569716453552,-0.24414061,0.2441406100988388
224489,0.044555664,0.018066406,1.024658203,0.7934569716453552,-0.24414061,0.1831054538488388
224505,0.044433594,0.016967773,1.024169922,0.7934569716453552,-0.24414061,0.2441406100988388
224522,0.044555664,0.017089844,1.024780273,0.7324218153953552,-0.24414061,0.2441406100988388
224539,0.043945313,0.017700195,1.025146484,0.7934569716453552,-0.305175781,0.1831054538488388
224572,0.044189453,0.017089844,1.02331543,0.8544921278953552,-0.24414061,0.2441406100988388
224589,0.044311523,0.016967773,1.023803711,0.8544921278953552,-0.24414061,0.1831054538488388
224605,0.043823242,0.018920898,1.023681641,0.9155272841453552,-0.24414061,0.2441406100988388
224637,0.044311523,0.017700195,1.0234375,0.7934569716453552,-0.24414061,0.1831054538488388
224653,0.045288086,0.018310547,1.024658203,0.8544921278953552,-0.24414061,0.1831054538488388
224669,0.044677734,0.017089844,1.023925781,0.9155272841453552,-0.183105454,0.2441406100988388
224685,0.044067383,0.016235352,1.024291992,0.9155272841453552,-0.24414061,0.305175781
224704,0.045898438,0.017211914,1.025390625,0.8544921278953552,-0.24414061,0.1831054538488388
224729,0.044799805,0.017944336,1.013549805,0.8544921278953552,-0.24414061,0.1831054538488388
224745,0.043823242,0.017578125,1.032348633,0.8544921278953552,-0.24414061,0.1831054538488388
224762,0.044677734,0.019287109,1.01965332,0.8544921278953552,-0.24414061,0.2441406100988388
224779,0.042602539,0.018432617,0.979248047,0.8544921278953552,-0.24414061,0.1831054538488388
224811,0.039916992,0.018188477,1.010742188,1.037597656,-0.24414061,0.1831054538488388
224827,0.037597656,0.016479492,0.975219727,1.037597656,-0.366210908,0.1831054538488388
224843,0.052124023,0.016479492,1.028442383,0.9765624403953552,-0.366210908,0.1831054538488388
224876,0.039306641,0.017578125,1.005249023,1.098632813,-0.366210908,0.2441406100988388
224897,0.047729492,0.018554688,1.030029297,1.159667969,-0.305175781,0.1831054538488388
224913,0.041870117,0.017822266,1.022216797,1.220703125,-0.305175781,0.1831054538488388
224930,0.04309082,0.01574707,1.021728516,1.159667969,-0.305175781,0.2441406100988388
224947,0.044677734,0.016601563,1.02734375,1.098632813,-0.24414061,0.2441406100988388
224963,0.045776367,0.016723633,1.015014648,1.098632813,-0.24414061,0.305175781
224997,0.043823242,0.015258789,1.030639648,1.159667969,-0.24414061,0.1831054538488388
225013,0.045288086,0.01574707,1.019287109,1.159667969,-0.183105454,0.2441406100988388
225029,0.045288086,0.015258789,1.025634766,1.098632813,-0.183105454,0.1831054538488388
225045,0.043579102,0.015380859,1.025878906,1.037597656,-0.305175781,0.1831054538488388
225065,0.04284668,0.016235352,1.021362305,0.9765624403953552,-0.24414061,0.1831054538488388
225086,0.045410156,0.015380859,1.023193359,0.9765624403953552,-0.24414061,0.1831054538488388
225102,0.044067383,0.014526367,1.023925781,0.9765624403953552,-0.24414061,0.2441406100988388
225119,0.043579102,0.015136719,1.021606445,0.9155272841453552,-0.305175781,0.2441406100988388
225136,0.044067383,0.01574707,1.024658203,0.9155272841453552,-0.305175781,0.2441406100988388
225169,0.044189453,0.015380859,1.02355957,0.7934569716453552,-0.305175781,0.2441406100988388
225186,0.044433594,0.01550293,1.025268555,0.7324218153953552,-0.305175781,0.1831054538488388
225202,0.043823242,0.016357422,1.022949219,0.7324218153953552,-0.24414061,0.2441406100988388
225234,0.045410156,0.016601563,1.034545898,0.6713866591453552,-0.305175781,0.2441406100988388
225250,0.043701172,0.015991211,1.016845703,0.6713866591453552,-0.305175781,0.2441406100988388
225266,0.041748047,0.015258789,1.016967773,0.549316406,-0.24414061,0.1831054538488388
225302,0.044677734,0.016601563,1.01550293,0.549316406,-0.24414061,0.1831054538488388
225318,0.045288086,0.016845703,1.023803711,0.610351563,-0.305175781,0.1831054538488388
225334,0.042724609,0.016113281,1.027954102,0.549316406,-0.24414061,0.2441406100988388
225350,0.043945313,0.015136719,1.023803711,0.610351563,-0.24414061,0.2441406100988388
225367,0.046142578,0.01550293,1.022949219,0.549316406,-0.24414061,0.1831054538488388
225388,0.044189453,0.016235352,1.026245117,0.610351563,-0.24414061,0.1831054538488388
225454,0.044311523,0.016845703,1.026611328,0.610351563,-0.305175781,0.2441406100988388
225488,0.045043945,0.016479492,1.021850586,0.7324218153953552,-0.305175781,0.2441406100988388
225505,0.044433594,0.016723633,1.024658203,0.7324218153953552,-0.305175781,0.1831054538488388
225522,0.044189453,0.016967773,1.023681641,0.7324218153953552,-0.24414061,0.2441406100988388
225542,0.044189453,0.016845703,1.023193359,0.7934569716453552,-0.183105454,0.2441406100988388
225559,0.044067383,0.016723633,1.024780273,0.8544921278953552,-0.183105454,0.2441406100988388
225575,0.043701172,0.016601563,1.024291992,0.8544921278953552,-0.305175781,0.2441406100988388
225592,0.044067383,0.017333984,1.023681641,0.8544921278953552,-0.305175781,0.2441406100988388
225608,0.044555664,0.018066406,1.025268555,0.8544921278953552,-0.24414061,0.2441406100988388
225624,0.043334961,0.016235352,1.024291992,0.9155272841453552,-0.183105454,0.2441406100988388
225657,0.043823242,0.017456055,1.026611328,0.9155272841453552,-0.183105454,0.1831054538488388
225678,0.044067383,0.016723633,1.0234375,0.9155272841453552,-0.24414061,0.1831054538488388
225694,0.044311523,0.016967773,1.022216797,0.9155272841453552,-0.24414061,0.2441406100988388
225711,0.044067383,0.017333984,1.024780273,0.9765624403953552,-0.24414061,0.2441406100988388
225728,0.045410156,0.016601563,1.025634766,0.9765624403953552,-0.24414061,0.1831054538488388
225744,0.045654297,0.016845703,1.023071289,0.9155272841453552,-0.24414061,0.2441406100988388
225782,0.044189453,0.016235352,1.025146484,0.9765624403953552,-0.305175781,0.2441406100988388
225798,0.044189453,0.015625,1.022460938,0.9155272841453552,-0.183105454,0.2441406100988388
225814,0.045043945,0.015991211,1.026000977,0.9155272841453552,-0.24414061,0.2441406100988388
225830,0.044921875,0.016967773,1.024780273,0.9155272841453552,-0.305175781,0.1831054538488388
225852,0.044555664,0.015136719,1.024902344,0.8544921278953552,-0.24414061,0.2441406100988388
225868,0.044189453,0.01550293,1.024902344,0.9155272841453552,-0.24414061,0.305175781
225885,0.044189453,0.016235352,1.024414063,0.9765624403953552,-0.24414061,0.2441406100988388
225902,0.043823242,0.016235352,1.023681641,0.8544921278953552,-0.305175781,0.2441406100988388
225918,0.044067383,0.015136719,1.02331543,0.8544921278953552,-0.24414061,0.2441406100988388
225952,0.045043945,0.016357422,1.025634766,0.8544921278953552,-0.305175781,0.2441406100988388
225968,0.044189453,0.015869141,1.022338867,0.8544921278953552,-0.305175781,0.2441406100988388
225984,0.044921875,0.01574707,1.025024414,0.7934569716453552,-0.24414061,0.2441406100988388
226016,0.044677734,0.015625,1.024414063,0.7934569716453552,-0.305175781,0.2441406100988388
226064,0.044677734,0.016235352,1.022460938,0.7324218153953552,-0.24414061,0.1831054538488388
226086,0.044189453,0.015991211,1.025268555,0.7324218153953552,-0.305175781,0.2441406100988388
226103,0.043212891,0.016357422,1.024291992,0.7934569716453552,-0.183105454,0.2441406100988388
226140,0.044555664,0.016845703,1.025634766,0.7324218153953552,-0.305175781,0.2441406100988388
226161,0.043945313,0.017822266,1.024658203,0.6713866591453552,-0.24414061,0.1831054538488388
226181,0.045043945,0.01574707,1.024902344,0.7324218153953552,-0.183105454,0.2441406100988388
226202,0.044921875,0.015869141,1.025146484,0.7934569716453552,-0.183105454,0.2441406100988388
226222,0.043701172,0.016113281,1.017456055,0.7934569716453552,-0.305175781,0.2441406100988388
226238,0.04296875,0.016967773,1.026977539,0.7324218153953552,-0.305175781,0.305175781
226256,0.043823242,0.017333984,1.020629883,0.7934569716453552,-0.24414061,0.2441406100988388
226278,0.043823242,0.016113281,1.020751953,0.7934569716453552,-0.24414061,0.2441406100988388
226298,0.043945313,0.016723633,1.014038086,0.8544921278953552,-0.24414061,0.2441406100988388
226318,0.043212891,0.016845703,1.029663086,0.8544921278953552,-0.24414061,0.1831054538488388
226334,0.050048828,0.016357422,1.060302734,0.9155272841453552,-0.305175781,0.2441406100988388
226351,0.042358398,0.016479492,0.986083984,1.037597656,-0.24414061,0.3662109076976776
226368,0.042236328,0.014892578,1.028808594,0.9765624403953552,-0.24414061,0.305175781
226385,0.042480469,0.016235352,1.044799805,0.9155272841453552,-0.183105454,0.1220703050494194
226401,0.047729492,0.017089844,1.020019531,0.9765624403953552,-0.305175781,0.2441406100988388
226432,0.042724609,0.016357422,1.023925781,0.9765624403953552,-0.24414061,0.2441406100988388
226454,0.040405273,0.015380859,1.016601563,0.9155272841453552,-0.24414061,0.2441406100988388
226470,0.046875,0.015991211,1.029907227,0.9155272841453552,-0.183105454,0.1831054538488388
226487,0.044677734,0.015869141,1.022460938,1.037597656,-0.24414061,0.2441406100988388
226553,0.045410156,0.015380859,1.025268555,0.8544921278953552,-0.24414061,0.2441406100988388
226570,0.043945313,0.016479492,1.028564453,0.9155272841453552,-0.366210908,0.2441406100988388
226586,0.043823242,0.015625,1.020263672,0.9155272841453552,-0.366210908,0.305175781
226622,0.043823242,0.01574707,1.02746582,0.7934569716453552,-0.183105454,0.1831054538488388
226638,0.044311523,0.014648438,1.026123047,0.7934569716453552,-0.24414061,0.2441406100988388
226654,0.044433594,0.014648438,1.024658203,0.7934569716453552,-0.24414061,0.2441406100988388
226670,0.044067383,0.015869141,1.022827148,0.7324218153953552,-0.24414061,0.2441406100988388
226687,0.044799805,0.015258789,1.024658203,0.7324218153953552,-0.24414061,0.305175781
226708,0.045288086,0.015258789,1.024780273,0.7324218153953552,-0.305175781,0.1831054538488388
226774,0.043579102,0.01550293,1.022583008,0.6713866591453552,-0.305175781,0.2441406100988388
226808,0.044799805,0.017089844,1.025146484,0.6713866591453552,-0.24414061,0.1831054538488388
226825,0.044799805,0.016601563,1.024658203,0.7324218153953552,-0.183105454,0.1831054538488388
226842,0.043701172,0.015991211,1.020751953,0.6713866591453552,-0.183105454,0.1831054538488388
226860,0.044189453,0.016235352,1.029052734,0.6713866591453552,-0.24414061,0.2441406100988388
226876,0.044677734,0.016479492,1.024047852,0.7324218153953552,-0.24414061,0.2441406100988388
226909,0.043701172,0.017211914,1.025268555,0.7324218153953552,-0.183105454,0.2441406100988388
226926,0.044555664,0.016723633,1.027587891,0.7324218153953552,-0.183105454,0.2441406100988388
226947,0.045043945,0.016113281,1.024291992,0.7324218153953552,-0.24414061,0.305175781
226963,0.044067383,0.017211914,1.022460938,0.7934569716453552,-0.24414061,0.1831054538488388
226980,0.04309082,0.016357422,1.018310547,0.8544921278953552,-0.183105454,0.1831054538488388
