tMillis,ax,ay,az,gx,gy,gz
521919,-0.0538330078125,-0.7584228515625,-0.6290283203125,0.6713866591453552,-0.1831054538488388,0.2441406100988388
521935,-0.0543212890625,-0.7601318359375,-0.6290283203125,0.7324218153953552,-0.1831054538488388,0.2441406100988388
521952,-0.0550537109375,-0.7520751953125,-0.6214599609375,0.6103515625,-0.1831054538488388,0.2441406100988388
521969,-0.0556640625,-0.7587890625,-0.626953125,0.6103515625,-0.1831054538488388,0.2441406100988388
521985,-0.054931640625,-0.7626953125,-0.6295166015625,0.6713866591453552,-0.2441406100988388,0.2441406100988388
522019,-0.0556640625,-0.759521484375,-0.6297607421875,0.6103515625,-0.2441406100988388,0.2441406100988388
522035,-0.0556640625,-0.7581787109375,-0.62841796875,0.6103515625,-0.2441406100988388,0.1831054538488388
522051,-0.0556640625,-0.7545166015625,-0.6229248046875,0.6103515625,-0.2441406100988388,0.2441406100988388
522079,-0.0533447265625,-0.7528076171875,-0.6226806640625,0.6103515625,-0.1831054538488388,0.30517578125
522101,-0.0531005859375,-0.7601318359375,-0.628662109375,0.6103515625,-0.1831054538488388,0.2441406100988388
522117,-0.05908203125,-0.763916015625,-0.6312255859375,0.6103515625,-0.1831054538488388,0.2441406100988388
522134,-0.05810546875,-0.756103515625,-0.624755859375,0.6103515625,-0.30517578125,0.30517578125
522198,-0.0574951171875,-0.756591796875,-0.6256103515625,0.6713866591453552,-0.2441406100988388,0.30517578125
522215,-0.0570068359375,-0.7559814453125,-0.6256103515625,0.6713866591453552,-0.1831054538488388,0.2441406100988388
522251,-0.0560302734375,-0.7615966796875,-0.627685546875,0.6103515625,-0.2441406100988388,0.2441406100988388
522276,-0.0556640625,-0.75927734375,-0.6263427734375,0.6713866591453552,-0.1831054538488388,0.2441406100988388
522296,-0.053955078125,-0.7576904296875,-0.6265869140625,0.6713866591453552,-0.2441406100988388,0.2441406100988388
522312,-0.054443359375,-0.75732421875,-0.6256103515625,0.6713866591453552,-0.2441406100988388,0.2441406100988388
522329,-0.055908203125,-0.7564697265625,-0.6253662109375,0.6103515625,-0.1831054538488388,0.2441406100988388
522346,-0.0556640625,-0.7547607421875,-0.623291015625,0.6103515625,-0.2441406100988388,0.30517578125
522379,-0.0552978515625,-0.760009765625,-0.62744140625,0.6713866591453552,-0.1831054538488388,0.1831054538488388
522395,-0.055419921875,-0.7607421875,-0.6278076171875,0.7324218153953552,-0.1831054538488388,0.2441406100988388
522411,-0.0552978515625,-0.7606201171875,-0.6275634765625,0.7324218153953552,-0.1831054538488388,0.2441406100988388
522439,-0.0538330078125,-0.7564697265625,-0.624755859375,0.54931640625,-0.1831054538488388,0.2441406100988388
522461,-0.0540771484375,-0.7587890625,-0.6260986328125,0.6103515625,-0.1220703050494194,0.30517578125
522477,-0.05615234375,-0.7562255859375,-0.625244140625,0.6713866591453552,-0.2441406100988388,0.30517578125
522494,-0.0557861328125,-0.755615234375,-0.6265869140625,0.6713866591453552,-0.2441406100988388,0.2441406100988388
522511,-0.0550537109375,-0.7586669921875,-0.62548828125,0.6713866591453552,-0.1831054538488388,0.2441406100988388
522527,-0.0546875,-0.7586669921875,-0.6259765625,0.6713866591453552,-0.1831054538488388,0.30517578125
522558,-0.05517578125,-0.760009765625,-0.6270751953125,0.6713866591453552,-0.1831054538488388,0.30517578125
522575,-0.055419921875,-0.757568359375,-0.6241455078125,0.6713866591453552,-0.1831054538488388,0.2441406100988388
522591,-0.0538330078125,-0.7552490234375,-0.624755859375,0.6713866591453552,-0.1831054538488388,0.30517578125
522623,-0.0540771484375,-0.7601318359375,-0.6279296875,0.6713866591453552,-0.2441406100988388,0.2441406100988388
522671,-0.055419921875,-0.7567138671875,-0.6263427734375,0.6103515625,-0.2441406100988388,0.30517578125
522693,-0.0556640625,-0.7576904296875,-0.624755859375,0.6713866591453552,-0.1831054538488388,0.30517578125
522710,-0.0557861328125,-0.75732421875,-0.626708984375,0.6713866591453552,-0.2441406100988388,0.30517578125
522747,-0.0543212890625,-0.7587890625,-0.626708984375,0.6713866591453552,-0.1831054538488388,0.1831054538488388
522764,-0.0537109375,-0.7569580078125,-0.6248779296875,0.6103515625,-0.1831054538488388,0.2441406100988388
522780,-0.0560302734375,-0.75634765625,-0.6240234375,0.6103515625,-0.2441406100988388,0.30517578125
522797,-0.0557861328125,-0.7584228515625,-0.6256103515625,0.6103515625,-0.2441406100988388,0.30517578125
522814,-0.05517578125,-0.7608642578125,-0.627685546875,0.6713866591453552,-0.1831054538488388,0.2441406100988388
522835,-0.054931640625,-0.758056640625,-0.6280517578125,0.6713866591453552,-0.1831054538488388,0.2441406100988388
522851,-0.0557861328125,-0.7567138671875,-0.6259765625,0.6713866591453552,-0.1831054538488388,0.30517578125
522868,-0.0556640625,-0.7569580078125,-0.624755859375,0.6713866591453552,-0.2441406100988388,0.30517578125
522885,-0.05419921875,-0.7578125,-0.6256103515625,0.6713866591453552,-0.1831054538488388,0.30517578125
522918,-0.05517578125,-0.7576904296875,-0.6260986328125,0.6713866591453552,-0.1831054538488388,0.1831054538488388
522935,-0.05517578125,-0.7572021484375,-0.6265869140625,0.6103515625,-0.1831054538488388,0.2441406100988388
522951,-0.0552978515625,-0.757568359375,-0.6263427734375,0.6103515625,-0.2441406100988388,0.30517578125
522979,-0.0545654296875,-0.7581787109375,-0.6256103515625,0.6713866591453552,-0.1831054538488388,0.1831054538488388
523001,-0.0548095703125,-0.7574462890625,-0.625732421875,0.6713866591453552,-0.1831054538488388,0.2441406100988388
523017,-0.054443359375,-0.7579345703125,-0.6273193359375,0.6713866591453552,-0.2441406100988388,0.30517578125
523034,-0.0548095703125,-0.75830078125,-0.6275634765625,0.6713866591453552,-0.2441406100988388,0.30517578125
523051,-0.054443359375,-0.7587890625,-0.6253662109375,0.6103515625,-0.2441406100988388,0.30517578125
523067,-0.0550537109375,-0.7587890625,-0.6260986328125,0.6103515625,-0.2441406100988388,0.30517578125
523099,-0.0550537109375,-0.7579345703125,-0.6273193359375,0.6103515625,-0.2441406100988388,0.30517578125
523121,-0.0550537109375,-0.7586669921875,-0.626708984375,0.6103515625,-0.2441406100988388,0.1831054538488388
523137,-0.0546875,-0.75732421875,-0.625732421875,0.6103515625,-0.2441406100988388,0.1831054538488388
523158,-0.0546875,-0.75927734375,-0.6278076171875,0.6713866591453552,-0.2441406100988388,0.30517578125
523175,-0.0552978515625,-0.75830078125,-0.6260986328125,0.6103515625,-0.2441406100988388,0.30517578125
523191,-0.0556640625,-0.7574462890625,-0.6263427734375,0.6103515625,-0.1831054538488388,0.1831054538488388
523212,-0.0545654296875,-0.7574462890625,-0.6259765625,0.6713866591453552,-0.1831054538488388,0.30517578125
523232,-0.0548095703125,-0.758056640625,-0.6268310546875,0.6713866591453552,-0.2441406100988388,0.30517578125
523253,-0.0550537109375,-0.758056640625,-0.6258544921875,0.6713866591453552,-0.1831054538488388,0.30517578125
523289,-0.0550537109375,-0.7572021484375,-0.627197265625,0.6103515625,-0.1831054538488388,0.30517578125
523305,-0.054931640625,-0.7581787109375,-0.625732421875,0.6713866591453552,-0.1831054538488388,0.2441406100988388
523321,-0.0556640625,-0.75732421875,-0.625732421875,0.7324218153953552,-0.2441406100988388,0.2441406100988388
523337,-0.055908203125,-0.7572021484375,-0.6270751953125,0.6713866591453552,-0.2441406100988388,0.30517578125
523354,-0.0552978515625,-0.7586669921875,-0.6268310546875,0.6103515625,-0.2441406100988388,0.2441406100988388
523375,-0.05517578125,-0.758544921875,-0.6253662109375,0.6713866591453552,-0.1831054538488388,0.1831054538488388
523391,-0.0546875,-0.7581787109375,-0.6259765625,0.7324218153953552,-0.1831054538488388,0.2441406100988388
523408,-0.054443359375,-0.7568359375,-0.6260986328125,0.7324218153953552,-0.2441406100988388,0.30517578125
523425,-0.05517578125,-0.757080078125,-0.62646484375,0.6713866591453552,-0.2441406100988388,0.30517578125
523458,-0.055419921875,-0.758056640625,-0.6270751953125,0.7324218153953552,-0.1831054538488388,0.2441406100988388
523475,-0.0545654296875,-0.7572021484375,-0.6265869140625,0.6103515625,-0.1831054538488388,0.30517578125
523491,-0.0548095703125,-0.7569580078125,-0.62646484375,0.6713866591453552,-0.2441406100988388,0.2441406100988388
523519,-0.0556640625,-0.758056640625,-0.626953125,0.6713866591453552,-0.2441406100988388,0.2441406100988388
523541,-0.0555419921875,-0.759521484375,-0.6263427734375,0.6713866591453552,-0.2441406100988388,0.30517578125
523557,-0.0555419921875,-0.75830078125,-0.6275634765625,0.6103515625,-0.1831054538488388,0.2441406100988388
523574,-0.0552978515625,-0.75732421875,-0.6282958984375,0.6713866591453552,-0.1831054538488388,0.2441406100988388
523591,-0.0556640625,-0.758056640625,-0.6279296875,0.7934569716453552,-0.1831054538488388,0.2441406100988388
523607,-0.0557861328125,-0.757568359375,-0.6259765625,0.7934569716453552,-0.1831054538488388,0.1831054538488388
523639,-0.0550537109375,-0.758056640625,-0.6265869140625,0.7324218153953552,-0.1831054538488388,0.2441406100988388
523655,-0.0545654296875,-0.7576904296875,-0.6268310546875,0.7934569716453552,-0.1831054538488388,0.2441406100988388
523703,-0.053955078125,-0.7569580078125,-0.6256103515625,0.7324218153953552,-0.1831054538488388,0.30517578125
523719,-0.053955078125,-0.757080078125,-0.6260986328125,0.7324218153953552,-0.2441406100988388,0.3662109076976776
523735,-0.0555419921875,-0.758544921875,-0.6265869140625,0.6103515625,-0.2441406100988388,0.2441406100988388
523751,-0.0555419921875,-0.7581787109375,-0.6268310546875,0.6103515625,-0.2441406100988388,0.2441406100988388
523821,-0.0552978515625,-0.758056640625,-0.6246337890625,0.54931640625,-0.2441406100988388,0.30517578125
523838,-0.0545654296875,-0.7589111328125,-0.6248779296875,0.6103515625,-0.30517578125,0.30517578125
523855,-0.054443359375,-0.7581787109375,-0.6263427734375,0.6713866591453552,-0.2441406100988388,0.2441406100988388
523871,-0.0546875,-0.7586669921875,-0.626708984375,0.7324218153953552,-0.1831054538488388,0.1831054538488388
523892,-0.0560302734375,-0.7576904296875,-0.626220703125,0.7934569716453552,-0.2441406100988388,0.2441406100988388
523909,-0.0556640625,-0.7581787109375,-0.6258544921875,0.9155272841453552,-0.2441406100988388,0.2441406100988388
523939,-0.0537109375,-0.7568359375,-0.6256103515625,1.03759765625,-0.2441406100988388,0.2441406100988388
523961,-0.0557861328125,-0.7572021484375,-0.62841796875,1.03759765625,-0.30517578125,0.2441406100988388
523977,-0.055908203125,-0.75830078125,-0.62548828125,1.03759765625,-0.2441406100988388,0.1831054538488388
523994,-0.054931640625,-0.7564697265625,-0.62646484375,1.15966796875,-0.1831054538488388,0.1831054538488388
524011,-0.0548095703125,-0.757568359375,-0.626708984375,1.15966796875,-0.2441406100988388,0.1831054538488388
524028,-0.0543212890625,-0.7574462890625,-0.6263427734375,1.220703125,-0.1831054538488388,0.1831054538488388
524058,-0.0557861328125,-0.7587890625,-0.6248779296875,1.5869139432907104,-0.2441406100988388,0.2441406100988388
524075,-0.055908203125,-0.7559814453125,-0.6285400390625,1.7089842557907104,-0.2441406100988388,0.2441406100988388
524091,-0.0556640625,-0.7559814453125,-0.6278076171875,1.7700194120407104,-0.30517578125,0.30517578125
524123,-0.0548095703125,-0.7587890625,-0.6243896484375,1.9531248807907104,-0.2441406100988388,0.2441406100988388
524139,-0.0552978515625,-0.75634765625,-0.6263427734375,2.25830078125,-0.2441406100988388,0.2441406100988388
524155,-0.0555419921875,-0.7532958984375,-0.63037109375,2.44140625,-0.2441406100988388,0.1831054538488388
524203,-0.05517578125,-0.755126953125,-0.62841796875,2.624511480331421,-0.30517578125,0.2441406100988388
524373,-0.0538330078125,-0.751708984375,-0.6348876953125,3.112792730331421,-0.2441406100988388,0.1831054538488388
524390,-0.0552978515625,-0.7491455078125,-0.6353759765625,3.112792730331421,-0.30517578125,0.1831054538488388
524423,-0.055419921875,-0.7476806640625,-0.6380615234375,2.990722417831421,-0.30517578125,0.1831054538488388
524440,-0.0546875,-0.748291015625,-0.638427734375,2.990722417831421,-0.30517578125,0.2441406100988388
524456,-0.0555419921875,-0.7491455078125,-0.637939453125,2.990722417831421,-0.2441406100988388,0.1831054538488388
524472,-0.0562744140625,-0.748046875,-0.638427734375,2.929687261581421,-0.2441406100988388,0.1831054538488388
524527,-0.0552978515625,-0.7467041015625,-0.6390380859375,2.807616949081421,-0.30517578125,0.0610351525247097
524553,-0.056884765625,-0.744140625,-0.6414794921875,2.807616949081421,-0.2441406100988388,0.0610351525247097
524570,-0.05517578125,-0.7452392578125,-0.64306640625,2.746581792831421,-0.2441406100988388,0.1220703050494194
524607,-0.055419921875,-0.7442626953125,-0.6429443359375,2.44140625,-0.30517578125,0.2441406100988388
524624,-0.0556640625,-0.7425537109375,-0.6441650390625,2.38037109375,-0.30517578125,0.1831054538488388
524640,-0.0548095703125,-0.7437744140625,-0.6434326171875,2.13623046875,-0.2441406100988388,0.1831054538488388
524657,-0.0560302734375,-0.7427978515625,-0.64404296875,2.0751953125,-0.2441406100988388,0.1831054538488388
524674,-0.05615234375,-0.7431640625,-0.643798828125,2.0751953125,-0.2441406100988388,0.1831054538488388
524699,-0.0555419921875,-0.7431640625,-0.64501953125,2.01416015625,-0.2441406100988388,0.1831054538488388
524715,-0.0548095703125,-0.7440185546875,-0.6435546875,2.0751953125,-0.30517578125,0.1831054538488388
524732,-0.054443359375,-0.742431640625,-0.6427001953125,2.25830078125,-0.30517578125,0.1831054538488388
524753,-0.05419921875,-0.7435302734375,-0.643798828125,2.3193359375,-0.2441406100988388,0.1831054538488388
524769,-0.054931640625,-0.7427978515625,-0.64306640625,2.38037109375,-0.2441406100988388,0.1831054538488388
524790,-0.0552978515625,-0.7410888671875,-0.6456298828125,2.563476324081421,-0.30517578125,0.1831054538488388
524807,-0.0548095703125,-0.7408447265625,-0.646728515625,2.563476324081421,-0.30517578125,0.1831054538488388
524823,-0.0545654296875,-0.74072265625,-0.6480712890625,2.563476324081421,-0.30517578125,0.1831054538488388
524839,-0.055419921875,-0.7391357421875,-0.6463623046875,2.624511480331421,-0.30517578125,0.1831054538488388
524861,-0.0557861328125,-0.7412109375,-0.649169921875,2.685546636581421,-0.30517578125,0.2441406100988388
524877,-0.0545654296875,-0.739501953125,-0.6483154296875,2.685546636581421,-0.3662109076976776,0.2441406100988388
524894,-0.05419921875,-0.7384033203125,-0.6473388671875,2.746581792831421,-0.3662109076976776,0.2441406100988388
524960,-0.0556640625,-0.736083984375,-0.65185546875,2.990722417831421,-0.30517578125,0.1831054538488388
524977,-0.0552978515625,-0.7374267578125,-0.6505126953125,2.929687261581421,-0.30517578125,0.2441406100988388
524993,-0.0550537109375,-0.7379150390625,-0.649169921875,2.929687261581421,-0.2441406100988388,0.2441406100988388
525028,-0.052978515625,-0.7354736328125,-0.653076171875,3.112792730331421,-0.30517578125,0.1831054538488388
525065,-0.0567626953125,-0.7352294921875,-0.651611328125,3.417968511581421,-0.4272460639476776,0.30517578125
525091,-0.0543212890625,-0.7359619140625,-0.650390625,3.784179449081421,-0.4272460639476776,0.30517578125
525108,-0.05419921875,-0.734619140625,-0.6536865234375,4.08935546875,-0.4882812201976776,0.3662109076976776
525138,-0.0546875,-0.7276611328125,-0.65478515625,4.45556640625,-0.54931640625,0.2441406100988388
525154,-0.05322265625,-0.7286376953125,-0.6558837890625,4.45556640625,-0.54931640625,0.4882812201976776
525171,-0.0509033203125,-0.72265625,-0.6519775390625,4.39453125,-0.8544921278953552,0.8544921278953552
525200,-0.05419921875,-0.7314453125,-0.669677734375,4.21142578125,-1.2817381620407104,1.5869139432907104
525221,-0.0662841796875,-0.731689453125,-0.644287109375,4.33349609375,-1.15966796875,1.8310545682907104
525238,-0.07373046875,-0.7445068359375,-0.6512451171875,4.94384765625,-2.13623046875,2.50244140625
525255,-0.075439453125,-0.72216796875,-0.66259765625,4.638671875,-2.868652105331421,3.967284917831421
525271,-0.07666015625,-0.9180908203125,-0.7554931640625,4.5166015625,-2.807616949081421,4.08935546875
525288,-0.0709228515625,-0.985107421875,-0.8841552734375,8.72802734375,-0.4272460639476776,0.4272460639476776
525321,-0.067138671875,-1.0023193359375,-0.870361328125,8.85009765625,0.6103515625,-0.7934569716453552
525337,-0.0782470703125,-0.981201171875,-0.876953125,8.97216796875,0.7324218153953552,-0.7934569716453552
525353,-0.0830078125,-0.986572265625,-0.8685302734375,8.60595703125,0.9155272841453552,-0.9155272841453552
525389,-0.084228515625,-1.011962890625,-0.88037109375,6.408690929412842,1.220703125,-1.15966796875
525405,-0.077880859375,-1.0142822265625,-0.8978271484375,6.164550304412842,1.4038084745407104,-1.4038084745407104
525421,-0.0755615234375,-1.048828125,-0.9437255859375,5.981444835662842,1.7700194120407104,-1.8920897245407104
525437,-0.0789794921875,-1.0673828125,-0.96923828125,6.225585460662842,2.197265625,-2.624511480331421
525454,-0.0867919921875,-1.045166015625,-0.97900390625,6.286620616912842,3.356933355331421,-3.662109136581421
525523,-0.102783203125,-0.9112548828125,-0.8201904296875,3.784179449081421,2.3193359375,-2.868652105331421
525570,-0.088623046875,-0.79736328125,-0.7430419921875,-0.30517578125,-0.7324218153953552,-0.54931640625
525586,-0.0897216796875,-0.8031005859375,-0.7510986328125,-2.13623046875,-2.38037109375,1.15966796875
525618,-0.080322265625,-0.840087890625,-0.7781982421875,-4.39453125,-3.234863042831421,1.9531248807907104
525634,-0.07275390625,-0.8238525390625,-0.7608642578125,-5.432128429412842,-3.784179449081421,2.38037109375
525650,-0.0648193359375,-0.82275390625,-0.76416015625,-6.469726085662842,-4.5166015625,2.868652105331421
525683,-0.061279296875,-0.81005859375,-0.7794189453125,-8.11767578125,-4.39453125,2.746581792831421
525731,-0.05078125,-0.70166015625,-0.675537109375,-10.314940452575684,-3.906249761581421,2.868652105331421
525753,-0.0498046875,-0.69482421875,-0.658935546875,-10.742186546325684,-3.906249761581421,2.990722417831421
525770,-0.0472412109375,-0.6849365234375,-0.635009765625,-11.413573265075684,-3.784179449081421,2.990722417831421
525807,-0.0423583984375,-0.688232421875,-0.611572265625,-12.207030296325684,-3.295898199081421,2.50244140625
525828,-0.0377197265625,-0.664306640625,-0.585693359375,-12.512206077575684,-2.868652105331421,1.8310545682907104
525844,-0.03173828125,-0.6156005859375,-0.545654296875,-12.756346702575684,-2.563476324081421,1.5258787870407104
525861,-0.02783203125,-0.5767822265625,-0.509033203125,-13.061522483825684,-2.3193359375,1.4038084745407104
525909,-0.0294189453125,-0.554931640625,-0.4625244140625,-13.061522483825684,-1.8920897245407104,1.15966796875
525937,-0.028076171875,-0.5440673828125,-0.44677734375,-12.207030296325684,-1.220703125,0.1831054538488388
525958,-0.02197265625,-0.4979248046875,-0.3917236328125,-11.657713890075684,-0.8544921278953552,-0.4882812201976776
525978,-0.0181884765625,-0.444091796875,-0.3514404296875,-11.108397483825684,-0.7934569716453552,-0.6103515625
525995,-0.013916015625,-0.4156494140625,-0.3232421875,-10.925292015075684,-0.8544921278953552,-0.4272460639476776
526011,-0.0135498046875,-0.4241943359375,-0.329345703125,-10.620116233825684,-1.220703125,-0.0610351525247097
526049,-0.02587890625,-0.47509765625,-0.3680419921875,-9.33837890625,-1.3427733182907104,0.0610351525247097
526065,-0.0255126953125,-0.4967041015625,-0.3697509765625,-8.4228515625,-1.3427733182907104,-0.1220703050494194
526081,-0.02392578125,-0.51904296875,-0.3809814453125,-7.568358898162842,-1.8310545682907104,0.0
526097,-0.02587890625,-0.540283203125,-0.4052734375,-7.141112804412842,-2.01416015625,0.0
526114,-0.0318603515625,-0.578369140625,-0.4576416015625,-6.164550304412842,-1.8310545682907104,-0.30517578125
526135,-0.0321044921875,-0.5963134765625,-0.482666015625,-5.737304210662842,-1.7700194120407104,-0.3662109076976776
526151,-0.0311279296875,-0.6497802734375,-0.5057373046875,-4.82177734375,-1.8310545682907104,-0.1220703050494194
526169,-0.0286865234375,-0.6700439453125,-0.5181884765625,-3.906249761581421,-1.7700194120407104,-0.4882812201976776
526186,-0.02685546875,-0.7049560546875,-0.5482177734375,-3.417968511581421,-1.7089842557907104,-0.7324218153953552
526219,-0.0262451171875,-0.7169189453125,-0.5867919921875,-1.9531248807907104,-1.2817381620407104,-1.7700194120407104
526236,-0.0213623046875,-0.71337890625,-0.583740234375,-1.8310545682907104,-1.15966796875,-1.8310545682907104
526252,-0.0189208984375,-0.7276611328125,-0.5894775390625,-1.8920897245407104,-1.03759765625,-2.01416015625
526285,-0.0196533203125,-0.7320556640625,-0.6103515625,-2.0751953125,-1.0986328125,-2.13623046875
526306,-0.0184326171875,-0.7542724609375,-0.629150390625,-1.9531248807907104,-1.03759765625,-2.13623046875
526322,-0.0164794921875,-0.7542724609375,-0.633544921875,-1.7700194120407104,-0.9155272841453552,-2.624511480331421
526339,-0.0184326171875,-0.75927734375,-0.639404296875,-1.6479490995407104,-0.9765624403953552,-2.563476324081421
526356,-0.0234375,-0.782958984375,-0.65625,-1.5869139432907104,-1.03759765625,-2.685546636581421
526372,-0.0213623046875,-0.7916259765625,-0.651611328125,-1.5869139432907104,-0.8544921278953552,-3.112792730331421
526389,-0.0205078125,-0.791259765625,-0.6474609375,-1.6479490995407104,-0.7324218153953552,-3.662109136581421
526410,-0.0211181640625,-0.7791748046875,-0.64306640625,-1.7700194120407104,-0.8544921278953552,-3.967284917831421
526426,-0.0269775390625,-0.7867431640625,-0.654541015625,-2.25830078125,-0.7934569716453552,-4.39453125
526442,-0.03125,-0.772216796875,-0.6429443359375,-2.746581792831421,-0.4272460639476776,-4.82177734375
526458,-0.0330810546875,-0.7593994140625,-0.6297607421875,-3.051757574081421,-0.3662109076976776,-4.8828125
526475,-0.039306640625,-0.755615234375,-0.614990234375,-3.845214605331421,-0.4882812201976776,-5.0048828125
526496,-0.04736328125,-0.744140625,-0.6068115234375,-4.21142578125,-0.54931640625,-5.187987804412842
526512,-0.054443359375,-0.7335205078125,-0.5950927734375,-4.7607421875,-0.6103515625,-5.0048828125
526529,-0.0570068359375,-0.7337646484375,-0.591552734375,-5.249022960662842,-0.7324218153953552,-4.82177734375
526546,-0.060302734375,-0.7464599609375,-0.5875244140625,-5.371093273162842,-0.7934569716453552,-4.7607421875
526579,-0.0592041015625,-0.735595703125,-0.5687255859375,-4.94384765625,-1.0986328125,-4.33349609375
526596,-0.062255859375,-0.74609375,-0.5677490234375,-4.21142578125,-1.4038084745407104,-3.784179449081421
526612,-0.0654296875,-0.7586669921875,-0.575439453125,-3.723144292831421,-1.5258787870407104,-3.662109136581421
526644,-0.0640869140625,-0.759033203125,-0.5648193359375,-1.3427733182907104,-1.8310545682907104,-2.868652105331421
526660,-0.0621337890625,-0.7626953125,-0.5626220703125,-0.7324218153953552,-2.0751953125,-2.685546636581421
526676,-0.059326171875,-0.771728515625,-0.5731201171875,0.8544921278953552,-2.44140625,-2.13623046875
526692,-0.0555419921875,-0.78173828125,-0.5848388671875,1.6479490995407104,-2.563476324081421,-1.8920897245407104
526716,-0.05419921875,-0.78857421875,-0.59228515625,3.173827886581421,-2.563476324081421,-1.5258787870407104
526732,-0.0517578125,-0.8082275390625,-0.603271484375,4.82177734375,-2.50244140625,-1.4038084745407104
526749,-0.0478515625,-0.804443359375,-0.6048583984375,6.347655773162842,-2.50244140625,-1.5258787870407104
526766,-0.04541015625,-0.802001953125,-0.6099853515625,7.141112804412842,-2.50244140625,-1.4648436307907104
526783,-0.0423583984375,-0.7901611328125,-0.6121826171875,8.48388671875,-2.3193359375,-1.6479490995407104
526816,-0.045166015625,-0.7470703125,-0.5999755859375,9.8876953125,-1.9531248807907104,-1.8920897245407104
526833,-0.0474853515625,-0.735107421875,-0.5970458984375,10.192870140075684,-1.8310545682907104,-1.7700194120407104
526854,-0.0474853515625,-0.739013671875,-0.59423828125,10.681151390075684,-1.7089842557907104,-1.5869139432907104
526870,-0.048583984375,-0.739501953125,-0.595703125,11.108397483825684,-1.7089842557907104,-1.7089842557907104
526887,-0.0494384765625,-0.734130859375,-0.6055908203125,11.291502952575684,-1.7700194120407104,-1.5869139432907104
526904,-0.0533447265625,-0.7432861328125,-0.617919921875,11.230467796325684,-1.7700194120407104,-1.4038084745407104
526937,-0.061279296875,-0.757568359375,-0.6280517578125,10.803221702575684,-1.5258787870407104,-1.4038084745407104
526954,-0.060791015625,-0.7535400390625,-0.622314453125,10.375975608825684,-1.5258787870407104,-1.2817381620407104
526970,-0.060546875,-0.75244140625,-0.6214599609375,10.192870140075684,-1.5869139432907104,-1.15966796875
527002,-0.064453125,-0.763916015625,-0.63134765625,9.70458984375,-1.8310545682907104,-0.8544921278953552
527019,-0.0650634765625,-0.76025390625,-0.6334228515625,9.46044921875,-1.9531248807907104,-0.6713866591453552
527040,-0.0662841796875,-0.76123046875,-0.6337890625,9.1552734375,-2.01416015625,-0.4882812201976776
527056,-0.06640625,-0.7506103515625,-0.628173828125,8.9111328125,-1.9531248807907104,-0.3662109076976776
527073,-0.066650390625,-0.7489013671875,-0.629150390625,8.4228515625,-2.01416015625,0.0
527089,-0.0640869140625,-0.739990234375,-0.6278076171875,7.751464366912842,-2.01416015625,0.1220703050494194
527119,-0.058837890625,-0.7298583984375,-0.6312255859375,6.530761241912842,-2.01416015625,0.54931640625
527135,-0.056884765625,-0.746826171875,-0.6483154296875,5.798339366912842,-1.7700194120407104,0.6103515625
527151,-0.0552978515625,-0.7476806640625,-0.6502685546875,5.432128429412842,-1.5258787870407104,0.4882812201976776
527180,-0.052734375,-0.7369384765625,-0.643798828125,4.39453125,-1.220703125,0.54931640625
527201,-0.053955078125,-0.755615234375,-0.6605224609375,3.784179449081421,-0.7934569716453552,0.4272460639476776
527217,-0.05712890625,-0.748779296875,-0.659423828125,3.540038824081421,-0.54931640625,0.30517578125
527234,-0.059814453125,-0.74755859375,-0.6617431640625,3.295898199081421,-0.30517578125,0.3662109076976776
527251,-0.0604248046875,-0.75634765625,-0.658935546875,3.112792730331421,0.0,0.4272460639476776
527267,-0.0626220703125,-0.762939453125,-0.662109375,2.990722417831421,0.1220703050494194,0.3662109076976776
527300,-0.062744140625,-0.756103515625,-0.6566162109375,2.685546636581421,0.7324218153953552,0.1831054538488388
527322,-0.0621337890625,-0.743896484375,-0.646484375,2.3193359375,0.9155272841453552,0.2441406100988388
527342,-0.0635986328125,-0.7430419921875,-0.645263671875,1.9531248807907104,1.0986328125,0.4882812201976776
527358,-0.065185546875,-0.7469482421875,-0.649658203125,1.7700194120407104,1.15966796875,0.4272460639476776
527375,-0.06396484375,-0.74169921875,-0.646484375,1.5869139432907104,1.5258787870407104,0.4272460639476776
527392,-0.061767578125,-0.738525390625,-0.6414794921875,1.3427733182907104,1.5869139432907104,0.4272460639476776
527408,-0.0626220703125,-0.735107421875,-0.64306640625,1.220703125,1.7700194120407104,0.4272460639476776
527429,-0.0635986328125,-0.7197265625,-0.6346435546875,0.7934569716453552,2.197265625,0.3662109076976776
527445,-0.0635986328125,-0.7220458984375,-0.6319580078125,0.6103515625,2.3193359375,0.30517578125
527461,-0.063720703125,-0.716796875,-0.6331787109375,0.1831054538488388,2.50244140625,0.1831054538488388
527478,-0.0645751953125,-0.7127685546875,-0.63037109375,-0.30517578125,2.807616949081421,0.1220703050494194
527494,-0.06494140625,-0.710693359375,-0.6302490234375,-0.6713866591453552,2.990722417831421,0.1220703050494194
527510,-0.06494140625,-0.6995849609375,-0.617431640625,-1.4648436307907104,3.417968511581421,-0.1831054538488388
527558,-0.06689453125,-0.6572265625,-0.5916748046875,-3.234863042831421,3.356933355331421,0.3662109076976776
527610,-0.0704345703125,-0.7117919921875,-0.61083984375,-3.479003667831421,3.417968511581421,0.9155272841453552
527627,-0.06787109375,-0.7139892578125,-0.6119384765625,-2.929687261581421,3.417968511581421,0.54931640625
527660,-0.064208984375,-0.66064453125,-0.5699462890625,-2.624511480331421,3.540038824081421,0.4272460639476776
527677,-0.066162109375,-0.6490478515625,-0.5640869140625,-3.112792730331421,3.051757574081421,1.15966796875
527693,-0.06689453125,-0.6490478515625,-0.5704345703125,-3.356933355331421,2.868652105331421,1.4648436307907104
527710,-0.06982421875,-0.6761474609375,-0.5853271484375,-3.479003667831421,2.624511480331421,2.0751953125
527730,-0.0723876953125,-0.7091064453125,-0.60546875,-3.356933355331421,2.624511480331421,2.01416015625
527752,-0.067626953125,-0.697021484375,-0.59375,-3.173827886581421,2.563476324081421,2.01416015625
527768,-0.06298828125,-0.6837158203125,-0.58740234375,-3.234863042831421,2.44140625,2.13623046875
527785,-0.0616455078125,-0.6834716796875,-0.5845947265625,-3.723144292831421,2.3193359375,2.50244140625
527802,-0.06494140625,-0.676025390625,-0.5782470703125,-4.150390625,2.197265625,2.685546636581421
527835,-0.0670166015625,-0.6444091796875,-0.5467529296875,-4.8828125,1.8920897245407104,2.990722417831421
527852,-0.066162109375,-0.6536865234375,-0.553466796875,-5.432128429412842,1.3427733182907104,3.784179449081421
527868,-0.068603515625,-0.696533203125,-0.58837890625,-5.859374523162842,1.15966796875,4.0283203125
527932,-0.0654296875,-0.644287109375,-0.5286865234375,-5.493163585662842,0.9765624403953552,3.906249761581421
527973,-0.0684814453125,-0.710693359375,-0.588623046875,-5.859374523162842,-0.4272460639476776,5.920409679412842
527990,-0.0699462890625,-0.763916015625,-0.6156005859375,-5.493163585662842,-0.4272460639476776,5.920409679412842
528023,-0.0633544921875,-0.771240234375,-0.6038818359375,-3.051757574081421,0.1220703050494194,5.0048828125
528040,-0.0540771484375,-0.734375,-0.572998046875,-2.25830078125,-0.0610351525247097,5.065917491912842
528056,-0.0513916015625,-0.72802734375,-0.5673828125,-2.01416015625,-0.1831054538488388,5.187987804412842
528072,-0.05029296875,-0.73828125,-0.5833740234375,-1.7089842557907104,-0.2441406100988388,5.310058116912842
528096,-0.04931640625,-0.75146484375,-0.580810546875,-1.2817381620407104,0.1220703050494194,5.0048828125
528112,-0.0479736328125,-0.7559814453125,-0.5640869140625,-0.8544921278953552,0.30517578125,4.638671875
528129,-0.0458984375,-0.7412109375,-0.5413818359375,-0.0610351525247097,0.54931640625,3.906249761581421
528146,-0.0467529296875,-0.744140625,-0.540283203125,0.4882812201976776,0.4272460639476776,3.784179449081421
528162,-0.049072265625,-0.7784423828125,-0.5606689453125,0.7324218153953552,0.3662109076976776,3.662109136581421
528196,-0.0516357421875,-0.8319091796875,-0.584228515625,2.38037109375,0.9765624403953552,2.01416015625
528213,-0.04736328125,-0.802734375,-0.5667724609375,3.540038824081421,1.0986328125,1.15966796875
528234,-0.04345703125,-0.7491455078125,-0.5421142578125,4.150390625,0.8544921278953552,1.03759765625
528250,-0.0447998046875,-0.734619140625,-0.5343017578125,4.33349609375,0.6713866591453552,1.220703125
528267,-0.04638671875,-0.7381591796875,-0.5382080078125,4.39453125,0.1831054538488388,1.5869139432907104
528284,-0.05224609375,-0.7767333984375,-0.567138671875,4.5166015625,-0.0610351525247097,1.5258787870407104
528317,-0.059814453125,-0.805908203125,-0.603515625,5.187987804412842,-0.2441406100988388,1.0986328125
528334,-0.0587158203125,-0.7724609375,-0.590087890625,5.554198741912842,-0.1220703050494194,0.7324218153953552
528350,-0.0513916015625,-0.734619140625,-0.5592041015625,5.432128429412842,-0.6103515625,1.15966796875
528382,-0.044921875,-0.740234375,-0.5665283203125,4.7607421875,-1.7089842557907104,2.197265625
528398,-0.0450439453125,-0.777587890625,-0.5953369140625,4.638671875,-1.9531248807907104,2.3193359375
528414,-0.0477294921875,-0.8077392578125,-0.6116943359375,4.82177734375,-2.0751953125,2.38037109375
528466,-0.04150390625,-0.8028564453125,-0.6175537109375,5.493163585662842,-2.197265625,1.03759765625
528518,-0.0460205078125,-0.7923583984375,-0.642578125,4.69970703125,-2.685546636581421,1.4038084745407104
528535,-0.049560546875,-0.8133544921875,-0.6580810546875,4.33349609375,-2.50244140625,1.03759765625
528552,-0.047607421875,-0.8126220703125,-0.6563720703125,4.08935546875,-2.44140625,0.9155272841453552
528569,-0.047119140625,-0.82470703125,-0.6658935546875,3.601073980331421,-2.44140625,0.6713866591453552
528585,-0.0499267578125,-0.8287353515625,-0.668701171875,3.112792730331421,-2.197265625,0.30517578125
528618,-0.05419921875,-0.80908203125,-0.6483154296875,1.7089842557907104,-1.8920897245407104,-0.30517578125
528635,-0.04931640625,-0.7855224609375,-0.63623046875,0.30517578125,-2.01416015625,-0.1831054538488388
528656,-0.045166015625,-0.80126953125,-0.6513671875,-1.3427733182907104,-2.01416015625,0.0
528672,-0.0458984375,-0.819091796875,-0.65966796875,-2.01416015625,-1.8920897245407104,-0.1220703050494194
528689,-0.0472412109375,-0.8233642578125,-0.6624755859375,-3.051757574081421,-1.7700194120407104,-0.2441406100988388
528706,-0.048828125,-0.83349609375,-0.666748046875,-3.662109136581421,-1.5258787870407104,-0.54931640625
528772,-0.034912109375,-0.7933349609375,-0.6571044921875,-5.310058116912842,-1.2817381620407104,-1.2817381620407104
528814,-0.030029296875,-0.7733154296875,-0.62548828125,-5.920409679412842,-1.3427733182907104,-0.8544921278953552
528831,-0.0340576171875,-0.802734375,-0.6468505859375,-6.103515148162842,-1.7700194120407104,-0.6103515625
528852,-0.03662109375,-0.81396484375,-0.6553955078125,-5.981444835662842,-1.8310545682907104,-0.54931640625
528868,-0.0394287109375,-0.829345703125,-0.6644287109375,-5.432128429412842,-1.7089842557907104,-0.6713866591453552
528885,-0.0360107421875,-0.82568359375,-0.6558837890625,-5.0048828125,-1.7700194120407104,-0.9765624403953552
528918,-0.0233154296875,-0.7825927734375,-0.63037109375,-5.0048828125,-2.13623046875,-0.54931640625
528935,-0.02783203125,-0.80224609375,-0.6470947265625,-5.0048828125,-2.563476324081421,-0.1220703050494194
528956,-0.03564453125,-0.82275390625,-0.671630859375,-4.638671875,-2.38037109375,-0.3662109076976776
528972,-0.0338134765625,-0.8109130859375,-0.64599609375,-4.5166015625,-2.0751953125,-0.54931640625
528989,-0.0308837890625,-0.792724609375,-0.624755859375,-4.21142578125,-1.9531248807907104,-0.6103515625
529006,-0.0308837890625,-0.782958984375,-0.6048583984375,-3.845214605331421,-2.50244140625,0.0
529039,-0.0416259765625,-0.8572998046875,-0.6712646484375,-3.173827886581421,-2.0751953125,-0.4882812201976776
529056,-0.0426025390625,-0.8236083984375,-0.6419677734375,-2.685546636581421,-1.5258787870407104,-1.0986328125
529072,-0.0386962890625,-0.78125,-0.599365234375,-2.44140625,-1.7089842557907104,-0.6713866591453552
529105,-0.0416259765625,-0.804443359375,-0.6156005859375,-2.13623046875,-2.0751953125,-0.1220703050494194
529126,-0.04736328125,-0.8221435546875,-0.6343994140625,-1.6479490995407104,-1.8310545682907104,-0.2441406100988388
529142,-0.0457763671875,-0.8177490234375,-0.62060546875,-1.2817381620407104,-1.7089842557907104,-0.3662109076976776
529158,-0.0455322265625,-0.812255859375,-0.6185302734375,-0.4882812201976776,-1.7700194120407104,-0.4272460639476776
529175,-0.04345703125,-0.80126953125,-0.610595703125,-0.0610351525247097,-1.7700194120407104,-0.4272460639476776
529192,-0.041259765625,-0.7794189453125,-0.6087646484375,0.4882812201976776,-2.01416015625,0.0
529229,-0.04443359375,-0.8294677734375,-0.65185546875,1.15966796875,-1.8310545682907104,0.1831054538488388
529245,-0.0465087890625,-0.8482666015625,-0.656005859375,1.9531248807907104,-1.4648436307907104,-0.4272460639476776
529261,-0.044189453125,-0.818603515625,-0.6390380859375,2.25830078125,-1.2817381620407104,-0.6713866591453552
529277,-0.0440673828125,-0.8072509765625,-0.6324462890625,2.3193359375,-1.15966796875,-0.7934569716453552
529294,-0.0445556640625,-0.800048828125,-0.6375732421875,2.0751953125,-1.0986328125,-0.54931640625
529315,-0.047119140625,-0.8189697265625,-0.654296875,2.0751953125,-0.9765624403953552,-0.4272460639476776
529331,-0.0550537109375,-0.869140625,-0.685791015625,2.0751953125,-0.2441406100988388,-1.0986328125
529348,-0.0518798828125,-0.845458984375,-0.66796875,2.563476324081421,0.3662109076976776,-1.7089842557907104
529365,-0.0528564453125,-0.841064453125,-0.6622314453125,2.746581792831421,0.4882812201976776,-1.7700194120407104
529398,-0.0533447265625,-0.8309326171875,-0.65771484375,2.685546636581421,1.0986328125,-2.0751953125
529415,-0.052001953125,-0.8157958984375,-0.6453857421875,2.929687261581421,1.3427733182907104,-1.8920897245407104
529431,-0.0523681640625,-0.8341064453125,-0.6400146484375,3.112792730331421,1.4038084745407104,-1.8310545682907104
529464,-0.045654296875,-1.0963134765625,-0.8216552734375,-0.54931640625,4.21142578125,-5.371093273162842
529485,-0.042724609375,-0.850830078125,-0.649658203125,-0.2441406100988388,4.638671875,-5.920409679412842
529501,-0.0611572265625,-0.6810302734375,-0.5338134765625,0.0,3.356933355331421,-4.45556640625
529518,-0.0601806640625,-0.7305908203125,-0.5491943359375,-0.1220703050494194,2.990722417831421,-3.662109136581421
529535,-0.046875,-0.572265625,-0.439453125,0.9765624403953552,1.2817381620407104,-1.9531248807907104
529551,-0.051025390625,-0.602783203125,-0.4532470703125,3.173827886581421,-2.929687261581421,3.234863042831421
529589,-0.0567626953125,-0.8839111328125,-0.6871337890625,2.13623046875,-1.7700194120407104,1.9531248807907104
529605,-0.0411376953125,-1.0478515625,-0.8409423828125,2.746581792831421,0.9155272841453552,-1.4038084745407104
529621,-0.026611328125,-0.802734375,-0.636474609375,2.50244140625,1.5258787870407104,-2.0751953125
529637,-0.0379638671875,-0.61181640625,-0.4757080078125,3.173827886581421,0.4882812201976776,-0.9765624403953552
529654,-0.0391845703125,-0.8380126953125,-0.644287109375,2.868652105331421,1.03759765625,-1.5258787870407104
529675,-0.0340576171875,-0.827880859375,-0.6568603515625,2.38037109375,0.8544921278953552,-1.2817381620407104
529691,-0.0501708984375,-0.7457275390625,-0.58154296875,2.807616949081421,-0.6713866591453552,0.6103515625
529708,-0.068603515625,-0.815185546875,-0.6395263671875,2.624511480331421,0.0,-0.30517578125
529725,-0.053955078125,-0.7193603515625,-0.5726318359375,2.44140625,0.4272460639476776,-0.7934569716453552
529758,-0.0518798828125,-0.8079833984375,-0.6375732421875,1.8920897245407104,-0.1220703050494194,-0.1220703050494194
529775,-0.0369873046875,-0.7490234375,-0.5860595703125,1.7700194120407104,0.1220703050494194,-0.2441406100988388
529791,-0.0404052734375,-0.762451171875,-0.5908203125,1.7700194120407104,0.0,-0.1831054538488388
529823,-0.0576171875,-0.755859375,-0.602294921875,1.5258787870407104,-0.1220703050494194,-0.1220703050494194
529871,-0.0478515625,-0.7630615234375,-0.61767578125,0.2441406100988388,-0.1831054538488388,0.2441406100988388
529893,-0.051513671875,-0.76806640625,-0.60791015625,-0.4272460639476776,-0.1220703050494194,0.2441406100988388
529943,-0.0516357421875,-0.7696533203125,-0.6138916015625,-1.4648436307907104,-0.1831054538488388,0.2441406100988388
530017,-0.0518798828125,-0.775634765625,-0.6053466796875,-2.929687261581421,-0.0610351525247097,0.30517578125
530034,-0.0509033203125,-0.7796630859375,-0.607666015625,-3.234863042831421,-0.1220703050494194,0.30517578125
530051,-0.0498046875,-0.7738037109375,-0.6058349609375,-3.601073980331421,0.0,0.4882812201976776
530101,-0.052001953125,-0.7786865234375,-0.5980224609375,-3.906249761581421,0.0,0.3662109076976776
530133,-0.049560546875,-0.781005859375,-0.5966796875,-3.784179449081421,-0.1220703050494194,0.30517578125
530150,-0.0523681640625,-0.7813720703125,-0.599365234375,-3.723144292831421,-0.0610351525247097,0.30517578125
530187,-0.0531005859375,-0.78515625,-0.591796875,-3.723144292831421,-0.0610351525247097,0.4272460639476776
530204,-0.0521240234375,-0.7886962890625,-0.5885009765625,-3.479003667831421,-0.0610351525247097,0.3662109076976776
530220,-0.04931640625,-0.7896728515625,-0.5863037109375,-2.929687261581421,-0.1220703050494194,0.30517578125
530236,-0.05029296875,-0.78857421875,-0.584716796875,-2.197265625,-0.0610351525247097,0.2441406100988388
530253,-0.0516357421875,-0.7869873046875,-0.5870361328125,-1.8920897245407104,-0.0610351525247097,0.1831054538488388
530273,-0.0543212890625,-0.784912109375,-0.5894775390625,-1.4038084745407104,-0.0610351525247097,0.1831054538488388
530309,-0.0494384765625,-0.7884521484375,-0.5860595703125,-0.9765624403953552,-0.1831054538488388,0.30517578125
530330,-0.0523681640625,-0.791748046875,-0.5869140625,-0.7324218153953552,-0.1831054538488388,0.3662109076976776
530354,-0.0557861328125,-0.7901611328125,-0.5892333984375,-0.4272460639476776,-0.1831054538488388,0.2441406100988388
530371,-0.05224609375,-0.7841796875,-0.5870361328125,-0.1220703050494194,-0.1831054538488388,0.2441406100988388
530388,-0.0504150390625,-0.7919921875,-0.5897216796875,0.0,-0.1831054538488388,0.30517578125
530418,-0.052001953125,-0.7899169921875,-0.58203125,0.54931640625,-0.1831054538488388,0.2441406100988388
530435,-0.0531005859375,-0.792236328125,-0.5863037109375,0.6713866591453552,-0.2441406100988388,0.1831054538488388
530451,-0.0521240234375,-0.7880859375,-0.5870361328125,0.8544921278953552,-0.2441406100988388,0.1220703050494194
530481,-0.0518798828125,-0.7867431640625,-0.58984375,0.9155272841453552,-0.2441406100988388,0.30517578125
530502,-0.0509033203125,-0.787353515625,-0.588134765625,0.9765624403953552,-0.2441406100988388,0.30517578125
530518,-0.0528564453125,-0.789306640625,-0.5875244140625,1.03759765625,-0.1831054538488388,0.30517578125
530535,-0.053466796875,-0.7901611328125,-0.5872802734375,1.0986328125,-0.2441406100988388,0.1831054538488388
530552,-0.05322265625,-0.7884521484375,-0.5887451171875,1.15966796875,-0.2441406100988388,0.1220703050494194
530568,-0.0511474609375,-0.7862548828125,-0.587646484375,1.15966796875,-0.2441406100988388,0.1831054538488388
530599,-0.0523681640625,-0.790283203125,-0.5904541015625,1.220703125,-0.30517578125,0.1831054538488388
530621,-0.052978515625,-0.7880859375,-0.5902099609375,1.220703125,-0.3662109076976776,0.2441406100988388
530637,-0.0521240234375,-0.7861328125,-0.5908203125,1.15966796875,-0.30517578125,0.3662109076976776
530654,-0.0518798828125,-0.788818359375,-0.5928955078125,1.0986328125,-0.2441406100988388,0.30517578125
530671,-0.0516357421875,-0.789306640625,-0.5904541015625,1.0986328125,-0.2441406100988388,0.2441406100988388
530687,-0.0518798828125,-0.7886962890625,-0.5872802734375,1.15966796875,-0.1220703050494194,0.1220703050494194
530721,-0.0516357421875,-0.785888671875,-0.589599609375,1.15966796875,-0.2441406100988388,0.1220703050494194
530737,-0.0526123046875,-0.7862548828125,-0.593505859375,1.03759765625,-0.2441406100988388,0.1831054538488388
530753,-0.0523681640625,-0.7862548828125,-0.593994140625,0.9765624403953552,-0.1831054538488388,0.30517578125
530789,-0.051025390625,-0.786865234375,-0.5888671875,0.7324218153953552,-0.1220703050494194,0.2441406100988388
530805,-0.05126953125,-0.7886962890625,-0.589111328125,0.7934569716453552,-0.1831054538488388,0.30517578125
530821,-0.052001953125,-0.7889404296875,-0.5909423828125,0.7934569716453552,-0.1220703050494194,0.1831054538488388
530837,-0.0533447265625,-0.781494140625,-0.5916748046875,0.6713866591453552,-0.30517578125,0.2441406100988388
530859,-0.052734375,-0.783203125,-0.59326171875,0.6103515625,-0.30517578125,0.30517578125
530875,-0.0506591796875,-0.7841796875,-0.595703125,0.3662109076976776,-0.2441406100988388,0.30517578125
530892,-0.0521240234375,-0.78564453125,-0.593505859375,-0.0610351525247097,-0.1831054538488388,0.3662109076976776
530909,-0.052001953125,-0.7823486328125,-0.5919189453125,-0.1831054538488388,-0.1831054538488388,0.3662109076976776
530925,-0.0506591796875,-0.7825927734375,-0.590087890625,-0.54931640625,-0.30517578125,0.6103515625
530959,-0.0472412109375,-0.7822265625,-0.591064453125,-0.6713866591453552,-1.2817381620407104,2.25830078125
530975,-0.0465087890625,-0.7872314453125,-0.5882568359375,-0.4882812201976776,-1.5869139432907104,2.990722417831421
530991,-0.04736328125,-0.8209228515625,-0.5885009765625,0.1220703050494194,-2.38037109375,3.784179449081421
531020,-0.034912109375,-1.0576171875,-0.76904296875,-0.2441406100988388,-1.6479490995407104,2.807616949081421
531042,-0.042236328125,-1.166015625,-0.8536376953125,-0.4272460639476776,-1.03759765625,2.13623046875
531058,-0.05810546875,-1.1951904296875,-0.86669921875,-0.4272460639476776,-0.1220703050494194,0.9765624403953552
531075,-0.062744140625,-1.166748046875,-0.841796875,-0.9765624403953552,0.6713866591453552,0.1220703050494194
531092,-0.066162109375,-1.076171875,-0.77197265625,-1.0986328125,0.54931640625,0.2441406100988388
531140,-0.0606689453125,-1.15283203125,-0.83203125,-1.220703125,-0.6713866591453552,1.7700194120407104
531162,-0.0589599609375,-1.177001953125,-0.8533935546875,-0.6103515625,-0.6103515625,1.5258787870407104
531178,-0.0654296875,-1.143798828125,-0.8536376953125,0.8544921278953552,0.0,0.30517578125
531195,-0.06787109375,-1.103515625,-0.831298828125,1.7089842557907104,0.30517578125,0.0610351525247097
531212,-0.0758056640625,-1.102783203125,-0.8262939453125,2.0751953125,0.1220703050494194,0.4882812201976776
531260,-0.0908203125,-1.1488037109375,-0.8428955078125,7.141112804412842,1.7089842557907104,-1.8310545682907104
531282,-0.0921630859375,-1.1312255859375,-0.8233642578125,8.30078125,1.8310545682907104,-2.25830078125
531298,-0.0919189453125,-1.0650634765625,-0.7802734375,10.009765625,1.7700194120407104,-2.868652105331421
531314,-0.0916748046875,-1.0118408203125,-0.75634765625,11.108397483825684,1.4648436307907104,-2.624511480331421
531380,-0.0828857421875,-0.8482666015625,-0.6832275390625,11.291502952575684,1.220703125,-1.9531248807907104
531401,-0.0740966796875,-0.7919921875,-0.6436767578125,10.253905296325684,1.0986328125,-1.5869139432907104
531421,-0.07275390625,-0.7308349609375,-0.600830078125,8.85009765625,0.9765624403953552,-0.9155272841453552
531437,-0.0726318359375,-0.7110595703125,-0.577880859375,8.1787109375,0.8544921278953552,-0.4882812201976776
531459,-0.0648193359375,-0.6728515625,-0.5377197265625,6.286620616912842,0.4272460639476776,0.1831054538488388
531475,-0.05712890625,-0.6551513671875,-0.5181884765625,4.0283203125,0.2441406100988388,0.4882812201976776
531492,-0.047119140625,-0.608642578125,-0.4808349609375,2.868652105331421,0.1831054538488388,0.54931640625
531509,-0.044921875,-0.59765625,-0.473388671875,0.6713866591453552,0.0610351525247097,0.9155272841453552
531525,-0.0377197265625,-0.56103515625,-0.446044921875,-1.4038084745407104,0.0610351525247097,1.03759765625
531559,-0.0347900390625,-0.542236328125,-0.4302978515625,-3.906249761581421,0.4882812201976776,0.9765624403953552
531575,-0.0345458984375,-0.53662109375,-0.4237060546875,-5.249022960662842,1.220703125,0.3662109076976776
531591,-0.0296630859375,-0.491943359375,-0.373291015625,-6.347655773162842,1.8920897245407104,-0.4272460639476776
531620,-0.0225830078125,-0.4228515625,-0.3094482421875,-7.995604991912842,2.13623046875,-0.6103515625
531642,-0.02197265625,-0.419189453125,-0.306396484375,-8.4228515625,2.13623046875,-0.6103515625
531658,-0.021728515625,-0.4349365234375,-0.318359375,-9.21630859375,2.25830078125,-0.8544921278953552
531675,-0.02197265625,-0.4420166015625,-0.3280029296875,-9.46044921875,2.685546636581421,-1.4038084745407104
531692,-0.022216796875,-0.4320068359375,-0.3056640625,-9.3994140625,2.868652105331421,-1.5869139432907104
531708,-0.0228271484375,-0.419677734375,-0.289306640625,-9.521484375,2.929687261581421,-1.8310545682907104
531738,-0.0244140625,-0.431396484375,-0.3157958984375,-9.765625,2.0751953125,-1.5258787870407104
531755,-0.0250244140625,-0.4462890625,-0.332275390625,-10.131834983825684,1.7700194120407104,-1.0986328125
531771,-0.02587890625,-0.4879150390625,-0.372802734375,-10.009765625,1.4038084745407104,-0.4272460639476776
531803,-0.0291748046875,-0.6297607421875,-0.4288330078125,-8.6669921875,1.15966796875,-0.1831054538488388
531819,-0.032470703125,-0.69775390625,-0.4576416015625,-7.873534679412842,0.9765624403953552,-0.30517578125
531835,-0.0369873046875,-0.7216796875,-0.4783935546875,-6.103515148162842,0.54931640625,-0.7324218153953552
531851,-0.0467529296875,-0.7486572265625,-0.523193359375,-4.21142578125,0.30517578125,-0.9765624403953552
531871,-0.0523681640625,-0.766357421875,-0.553466796875,-2.38037109375,0.3662109076976776,-1.220703125
531893,-0.053955078125,-0.7684326171875,-0.5576171875,-1.4648436307907104,0.4272460639476776,-1.15966796875
531909,-0.05615234375,-0.7945556640625,-0.5601806640625,0.3662109076976776,0.1831054538488388,-1.3427733182907104
531926,-0.05615234375,-0.7733154296875,-0.550537109375,1.9531248807907104,-0.1220703050494194,-1.4648436307907104
531943,-0.060302734375,-0.7691650390625,-0.5758056640625,2.624511480331421,-0.4272460639476776,-1.2817381620407104
531976,-0.068115234375,-0.7691650390625,-0.6063232421875,4.2724609375,-0.1220703050494194,-1.5258787870407104
531993,-0.064208984375,-0.72900390625,-0.5728759765625,5.065917491912842,-0.2441406100988388,-0.9765624403953552
532009,-0.06298828125,-0.737060546875,-0.5638427734375,5.371093273162842,-0.4272460639476776,-0.8544921278953552
532041,-0.0650634765625,-0.7236328125,-0.57080078125,6.103515148162842,-0.9155272841453552,-0.6103515625
532057,-0.0682373046875,-0.7257080078125,-0.577392578125,6.286620616912842,-0.9765624403953552,-0.4272460639476776
532073,-0.069091796875,-0.7525634765625,-0.5819091796875,6.896972179412842,-1.15966796875,0.0610351525247097
532109,-0.0660400390625,-0.8258056640625,-0.60107421875,8.48388671875,-1.220703125,-0.6103515625
532125,-0.0609130859375,-0.8123779296875,-0.6002197265625,9.82666015625,-1.15966796875,-0.9155272841453552
532157,-0.064208984375,-0.8045654296875,-0.608154296875,11.413573265075684,-1.2817381620407104,-1.03759765625
532174,-0.067138671875,-0.79833984375,-0.6097412109375,12.084959983825684,-1.03759765625,-1.2817381620407104
532195,-0.066650390625,-0.784912109375,-0.60205078125,12.329100608825684,-0.9765624403953552,-1.3427733182907104
532211,-0.0631103515625,-0.7601318359375,-0.5859375,12.939452171325684,-1.15966796875,-1.220703125
532228,-0.0645751953125,-0.7640380859375,-0.59765625,13.183592796325684,-1.15966796875,-1.2817381620407104
532245,-0.0665283203125,-0.748046875,-0.5989990234375,13.305663108825684,-1.03759765625,-1.3427733182907104
532278,-0.0723876953125,-0.751708984375,-0.61181640625,13.061522483825684,-0.9765624403953552,-1.15966796875
532295,-0.072509765625,-0.750244140625,-0.61328125,12.756346702575684,-0.8544921278953552,-1.0986328125
532311,-0.07373046875,-0.7525634765625,-0.6177978515625,12.573241233825684,-0.8544921278953552,-1.03759765625
532343,-0.0784912109375,-0.759765625,-0.6318359375,11.657713890075684,-0.7934569716453552,-0.6103515625
532391,-0.0753173828125,-0.74609375,-0.6375732421875,10.498045921325684,-0.30517578125,-0.7934569716453552
532413,-0.0765380859375,-0.7259521484375,-0.6297607421875,9.46044921875,-0.30517578125,-0.54931640625
532430,-0.0777587890625,-0.7237548828125,-0.632080078125,8.36181640625,-0.4272460639476776,-0.1220703050494194
532467,-0.081298828125,-0.7283935546875,-0.6385498046875,6.469726085662842,-0.3662109076976776,0.4882812201976776
532484,-0.0821533203125,-0.74365234375,-0.649169921875,4.82177734375,-0.4272460639476776,0.7934569716453552
532500,-0.0802001953125,-0.74365234375,-0.653076171875,4.33349609375,-0.3662109076976776,0.8544921278953552
532517,-0.0758056640625,-0.7279052734375,-0.6436767578125,3.234863042831421,-0.30517578125,0.9765624403953552
532565,-0.078369140625,-0.738525390625,-0.655029296875,0.4272460639476776,-0.30517578125,1.5258787870407104
532597,-0.0716552734375,-0.7227783203125,-0.6441650390625,-0.6713866591453552,-0.30517578125,1.6479490995407104
532614,-0.06982421875,-0.7283935546875,-0.64453125,-1.6479490995407104,-0.3662109076976776,1.8310545682907104
532631,-0.0687255859375,-0.7333984375,-0.6473388671875,-2.38037109375,-0.3662109076976776,1.8920897245407104
532648,-0.0660400390625,-0.7423095703125,-0.64501953125,-2.990722417831421,-0.1831054538488388,1.7700194120407104
532665,-0.0653076171875,-0.7467041015625,-0.6466064453125,-3.295898199081421,-0.0610351525247097,1.7089842557907104
532698,-0.0621337890625,-0.7601318359375,-0.6507568359375,-3.601073980331421,0.0610351525247097,1.5258787870407104
532715,-0.061767578125,-0.7689208984375,-0.6484375,-3.356933355331421,0.1831054538488388,1.220703125
532736,-0.0618896484375,-0.7744140625,-0.6533203125,-3.234863042831421,0.1831054538488388,1.15966796875
532752,-0.0609130859375,-0.78857421875,-0.6572265625,-2.990722417831421,0.4272460639476776,0.7324218153953552
532769,-0.0587158203125,-0.781982421875,-0.6478271484375,-2.685546636581421,0.6713866591453552,0.2441406100988388
532786,-0.0587158203125,-0.766357421875,-0.6385498046875,-2.563476324081421,0.7324218153953552,0.0610351525247097
532819,-0.0621337890625,-0.763427734375,-0.633056640625,-1.9531248807907104,0.9765624403953552,-0.3662109076976776
532836,-0.0634765625,-0.756591796875,-0.622314453125,-1.5869139432907104,0.9765624403953552,-0.4272460639476776
532852,-0.0633544921875,-0.7552490234375,-0.62109375,-1.3427733182907104,0.9155272841453552,-0.4272460639476776
532884,-0.066162109375,-0.7669677734375,-0.6226806640625,-0.7934569716453552,0.9765624403953552,-0.6713866591453552
532900,-0.0670166015625,-0.759033203125,-0.6171875,-0.6713866591453552,0.8544921278953552,-0.6103515625
532916,-0.070556640625,-0.748779296875,-0.615234375,-0.6103515625,0.8544921278953552,-0.6103515625
532932,-0.0684814453125,-0.728759765625,-0.6068115234375,-0.6713866591453552,0.7934569716453552,-0.4272460639476776
532956,-0.06591796875,-0.719970703125,-0.5986328125,-0.6713866591453552,0.3662109076976776,0.1220703050494194
532972,-0.068603515625,-0.727783203125,-0.6082763671875,-0.7934569716453552,0.30517578125,0.2441406100988388
532989,-0.07080078125,-0.7159423828125,-0.59814453125,-0.8544921278953552,0.30517578125,0.1831054538488388
533010,-0.0716552734375,-0.7030029296875,-0.5882568359375,-1.0986328125,-0.1220703050494194,0.8544921278953552
533026,-0.0721435546875,-0.7052001953125,-0.5906982421875,-1.0986328125,-0.30517578125,1.03759765625
533060,-0.06982421875,-0.726318359375,-0.60205078125,-0.6713866591453552,-0.7324218153953552,1.3427733182907104
533076,-0.0667724609375,-0.72216796875,-0.59521484375,-0.30517578125,-0.7934569716453552,1.4038084745407104
533092,-0.06494140625,-0.71728515625,-0.5928955078125,-0.1220703050494194,-0.9155272841453552,1.5258787870407104
533124,-0.062255859375,-0.708740234375,-0.583251953125,0.2441406100988388,-1.220703125,1.5258787870407104
533140,-0.0616455078125,-0.7132568359375,-0.585205078125,0.54931640625,-1.4648436307907104,1.7089842557907104
533156,-0.0601806640625,-0.7188720703125,-0.593505859375,0.7324218153953552,-1.5258787870407104,1.7089842557907104
533172,-0.06005859375,-0.7218017578125,-0.5958251953125,0.8544921278953552,-1.4648436307907104,1.6479490995407104
533196,-0.0567626953125,-0.7042236328125,-0.585205078125,1.15966796875,-1.4648436307907104,1.3427733182907104
533212,-0.0552978515625,-0.686767578125,-0.5694580078125,1.2817381620407104,-1.7089842557907104,1.5869139432907104
533229,-0.0574951171875,-0.6934814453125,-0.57958984375,1.3427733182907104,-1.8310545682907104,1.7700194120407104
533249,-0.0587158203125,-0.71044921875,-0.591796875,1.3427733182907104,-1.8920897245407104,1.7700194120407104
533266,-0.0570068359375,-0.7060546875,-0.587158203125,1.220703125,-1.5869139432907104,1.2817381620407104
533282,-0.0545654296875,-0.69921875,-0.5791015625,1.220703125,-1.5258787870407104,1.0986328125
533300,-0.052734375,-0.6767578125,-0.5601806640625,1.03759765625,-1.4648436307907104,1.03759765625
533316,-0.0528564453125,-0.654296875,-0.5487060546875,0.6103515625,-1.7700194120407104,1.15966796875
533332,-0.0548095703125,-0.657470703125,-0.5574951171875,0.3662109076976776,-1.9531248807907104,1.4648436307907104
533352,-0.0604248046875,-0.717041015625,-0.5975341796875,0.1831054538488388,-1.8310545682907104,1.6479490995407104
533372,-0.064453125,-0.7640380859375,-0.62255859375,0.7324218153953552,-1.220703125,0.7324218153953552
533388,-0.0623779296875,-0.728271484375,-0.5877685546875,1.4648436307907104,-0.8544921278953552,-0.0610351525247097
533404,-0.0625,-0.708740234375,-0.574462890625,1.8310545682907104,-0.9765624403953552,-0.0610351525247097
533422,-0.061279296875,-0.6805419921875,-0.5606689453125,2.3193359375,-1.220703125,0.30517578125
533444,-0.0638427734375,-0.7138671875,-0.5911865234375,2.624511480331421,-1.4648436307907104,0.6713866591453552
533464,-0.067138671875,-0.76904296875,-0.62890625,3.356933355331421,-0.9155272841453552,-0.1220703050494194
533480,-0.065673828125,-0.74609375,-0.6068115234375,3.784179449081421,-0.4882812201976776,-0.9155272841453552
533496,-0.057861328125,-0.653076171875,-0.535888671875,4.5166015625,0.0,-1.7089842557907104
533513,-0.0577392578125,-0.6343994140625,-0.5235595703125,4.638671875,-0.6103515625,-1.0986328125
533529,-0.061279296875,-0.6527099609375,-0.5474853515625,4.5166015625,-0.9155272841453552,-0.6713866591453552
533550,-0.068603515625,-0.7213134765625,-0.6107177734375,4.45556640625,-0.9765624403953552,-0.3662109076976776
533566,-0.074462890625,-0.77001953125,-0.6455078125,4.69970703125,-0.6713866591453552,-0.7934569716453552
533582,-0.072998046875,-0.752197265625,-0.6318359375,5.187987804412842,0.4272460639476776,-2.197265625
533598,-0.061767578125,-0.649658203125,-0.546630859375,5.126952648162842,0.6103515625,-2.3193359375
533620,-0.0555419921875,-0.60595703125,-0.5142822265625,4.7607421875,0.1831054538488388,-1.8310545682907104
533636,-0.04931640625,-0.6015625,-0.519775390625,3.662109136581421,-1.03759765625,-0.1831054538488388
533653,-0.05419921875,-0.69384765625,-0.61083984375,2.990722417831421,-0.9155272841453552,0.1831054538488388
533719,-0.0595703125,-0.652587890625,-0.570556640625,2.50244140625,-1.0986328125,0.54931640625
533735,-0.06396484375,-0.6622314453125,-0.5860595703125,2.01416015625,-1.4038084745407104,1.03759765625
533780,-0.064208984375,-0.739013671875,-0.65380859375,0.7324218153953552,-0.4272460639476776,0.4882812201976776
533802,-0.05615234375,-0.6959228515625,-0.6021728515625,0.6103515625,-0.6103515625,0.6103515625
533818,-0.0587158203125,-0.6849365234375,-0.597900390625,0.4882812201976776,-0.9155272841453552,0.8544921278953552
533835,-0.063720703125,-0.6917724609375,-0.611083984375,0.2441406100988388,-1.3427733182907104,1.3427733182907104
533852,-0.0738525390625,-0.7200927734375,-0.649658203125,0.1220703050494194,-1.2817381620407104,1.4648436307907104
533868,-0.0723876953125,-0.732177734375,-0.65673828125,-0.30517578125,-0.8544921278953552,1.220703125
533899,-0.0516357421875,-0.716552734375,-0.622314453125,-1.2817381620407104,-0.4272460639476776,0.9155272841453552
533921,-0.0496826171875,-0.7264404296875,-0.630126953125,-1.6479490995407104,-0.3662109076976776,0.8544921278953552
533937,-0.0521240234375,-0.7427978515625,-0.6495361328125,-2.25830078125,-0.0610351525247097,0.4882812201976776
533954,-0.05615234375,-0.7392578125,-0.6461181640625,-2.929687261581421,0.30517578125,0.2441406100988388
533971,-0.059814453125,-0.7371826171875,-0.640380859375,-3.234863042831421,0.3662109076976776,0.2441406100988388
533987,-0.063720703125,-0.7401123046875,-0.64013671875,-3.662109136581421,0.30517578125,0.3662109076976776
534021,-0.0706787109375,-0.8094482421875,-0.68212890625,-3.479003667831421,0.0610351525247097,0.7324218153953552
534037,-0.0653076171875,-0.844970703125,-0.7012939453125,-3.173827886581421,0.30517578125,0.4272460639476776
534053,-0.0574951171875,-0.812744140625,-0.6766357421875,-2.685546636581421,0.9155272841453552,-0.54931640625
534089,-0.047119140625,-0.7525634765625,-0.63330078125,-2.990722417831421,0.1831054538488388,0.1831054538488388
534111,-0.0479736328125,-0.76611328125,-0.639404296875,-3.051757574081421,0.1220703050494194,0.3662109076976776
534127,-0.048583984375,-0.8040771484375,-0.6636962890625,-2.746581792831421,0.1220703050494194,0.3662109076976776
534148,-0.0484619140625,-0.8309326171875,-0.6627197265625,-1.8920897245407104,0.54931640625,-0.4882812201976776
534165,-0.047607421875,-0.7882080078125,-0.634521484375,-0.9765624403953552,0.4882812201976776,-0.6103515625
534181,-0.05322265625,-0.792236328125,-0.64208984375,-0.6103515625,0.1831054538488388,-0.3662109076976776
534198,-0.0574951171875,-0.807373046875,-0.6651611328125,0.2441406100988388,0.0610351525247097,-0.1831054538488388
534215,-0.05859375,-0.8135986328125,-0.668701171875,1.4038084745407104,0.1220703050494194,-0.0610351525247097
534231,-0.0635986328125,-0.8292236328125,-0.670166015625,2.929687261581421,0.3662109076976776,-0.4272460639476776
534260,-0.0657958984375,-0.80908203125,-0.6602783203125,5.0048828125,-0.1220703050494194,-0.0610351525247097
534282,-0.068359375,-0.818115234375,-0.668212890625,5.615233898162842,-0.1831054538488388,-0.0610351525247097
534302,-0.0745849609375,-0.8096923828125,-0.6690673828125,6.774901866912842,0.0610351525247097,-0.2441406100988388
534319,-0.068603515625,-0.77197265625,-0.6317138671875,7.751464366912842,-0.2441406100988388,0.1831054538488388
534336,-0.067626953125,-0.7750244140625,-0.6336669921875,8.60595703125,-0.7934569716453552,0.7324218153953552
534353,-0.06787109375,-0.7669677734375,-0.648681640625,8.9111328125,-0.9765624403953552,0.8544921278953552
534369,-0.072021484375,-0.795166015625,-0.6710205078125,9.521484375,-1.3427733182907104,1.5869139432907104
534390,-0.0740966796875,-0.8016357421875,-0.6787109375,10.192870140075684,-1.4648436307907104,1.7700194120407104
534406,-0.072265625,-0.7889404296875,-0.662353515625,10.925292015075684,-1.4038084745407104,1.7700194120407104
534422,-0.069091796875,-0.75634765625,-0.6390380859375,11.352538108825684,-1.9531248807907104,2.38037109375
534439,-0.0692138671875,-0.76171875,-0.6490478515625,11.413573265075684,-2.25830078125,2.868652105331421
534455,-0.0694580078125,-0.7786865234375,-0.6749267578125,11.474608421325684,-2.746581792831421,3.540038824081421
534471,-0.0679931640625,-0.817138671875,-0.711669921875,11.474608421325684,-2.44140625,3.479003667831421
534502,-0.0638427734375,-0.8001708984375,-0.703369140625,11.413573265075684,-1.8920897245407104,2.990722417831421
534524,-0.056884765625,-0.7496337890625,-0.681640625,11.169432640075684,-1.7700194120407104,2.990722417831421
534540,-0.0540771484375,-0.770263671875,-0.69384765625,10.559081077575684,-1.8920897245407104,3.540038824081421
534557,-0.055419921875,-0.797607421875,-0.7156982421875,9.6435546875,-1.4038084745407104,3.356933355331421
534574,-0.0538330078125,-0.7867431640625,-0.7071533203125,9.27734375,-0.9155272841453552,2.929687261581421
534590,-0.04931640625,-0.7645263671875,-0.6920166015625,8.60595703125,-0.54931640625,2.685546636581421
534624,-0.051513671875,-0.8079833984375,-0.7333984375,7.324218273162842,0.2441406100988388,2.25830078125
534640,-0.05029296875,-0.8006591796875,-0.7305908203125,6.652831554412842,0.9155272841453552,1.6479490995407104
534656,-0.0513916015625,-0.79150390625,-0.72119140625,6.286620616912842,1.15966796875,1.4038084745407104
534672,-0.054931640625,-0.7542724609375,-0.6956787109375,5.493163585662842,1.4038084745407104,1.3427733182907104
534692,-0.05810546875,-0.7606201171875,-0.70361328125,4.7607421875,1.4038084745407104,1.6479490995407104
534708,-0.0576171875,-0.7694091796875,-0.715087890625,4.45556640625,1.4648436307907104,1.5869139432907104
534724,-0.0540771484375,-0.7900390625,-0.7332763671875,3.906249761581421,1.7089842557907104,1.5869139432907104
534740,-0.0538330078125,-0.7978515625,-0.7386474609375,3.356933355331421,2.3193359375,1.0986328125
534762,-0.052734375,-0.78173828125,-0.723876953125,3.112792730331421,2.44140625,1.0986328125
534778,-0.053955078125,-0.764404296875,-0.6954345703125,2.563476324081421,2.25830078125,1.15966796875
534795,-0.0584716796875,-0.74853515625,-0.68994140625,2.25830078125,2.13623046875,1.220703125
534812,-0.063720703125,-0.7427978515625,-0.6868896484375,1.5258787870407104,1.8920897245407104,1.4038084745407104
534828,-0.06298828125,-0.7344970703125,-0.682861328125,0.6103515625,1.8310545682907104,1.5258787870407104
534858,-0.0635986328125,-0.7347412109375,-0.69677734375,-0.4882812201976776,1.0986328125,1.9531248807907104
534875,-0.0635986328125,-0.744384765625,-0.7073974609375,-1.15966796875,1.0986328125,2.01416015625
534891,-0.0623779296875,-0.7393798828125,-0.701904296875,-1.5258787870407104,1.15966796875,1.8310545682907104
534920,-0.0572509765625,-0.7056884765625,-0.675048828125,-1.7700194120407104,1.03759765625,1.9531248807907104
534942,-0.05517578125,-0.7034912109375,-0.6712646484375,-1.9531248807907104,0.6713866591453552,2.197265625
534958,-0.052978515625,-0.7059326171875,-0.6737060546875,-2.3193359375,0.6713866591453552,2.25830078125
534975,-0.04736328125,-0.7122802734375,-0.669189453125,-2.44140625,0.54931640625,2.44140625
534992,-0.0469970703125,-0.7373046875,-0.68359375,-2.624511480331421,0.30517578125,2.50244140625
535058,-0.04736328125,-0.7261962890625,-0.684326171875,-2.13623046875,0.30517578125,2.01416015625
535172,-0.0245361328125,-0.6676025390625,-0.6116943359375,-0.6103515625,4.638671875,-3.417968511581421
535189,-0.0303955078125,-0.605712890625,-0.5374755859375,1.8920897245407104,1.9531248807907104,-1.6479490995407104
535219,-0.04931640625,-0.7142333984375,-0.6593017578125,4.08935546875,-0.8544921278953552,0.6713866591453552
535236,-0.048828125,-0.7021484375,-0.657470703125,2.868652105331421,-0.0610351525247097,-0.1220703050494194
535252,-0.0474853515625,-0.6944580078125,-0.6329345703125,3.479003667831421,0.1220703050494194,-0.54931640625
535284,-0.049560546875,-0.674072265625,-0.6231689453125,3.295898199081421,0.0610351525247097,-0.7324218153953552
535300,-0.057861328125,-0.6510009765625,-0.617431640625,2.990722417831421,-0.2441406100988388,-0.4272460639476776
535316,-0.080078125,-0.6158447265625,-0.5867919921875,-1.5869139432907104,-1.0986328125,1.5258787870407104
535332,-0.0673828125,-0.618408203125,-0.5906982421875,-4.150390625,-1.6479490995407104,2.563476324081421
535356,-0.06201171875,-0.7078857421875,-0.65576171875,-3.906249761581421,-1.8310545682907104,2.990722417831421
535372,-0.03369140625,-0.9063720703125,-0.834228515625,-2.868652105331421,1.2817381620407104,-1.15966796875
535389,-0.0107421875,-0.5582275390625,-0.5029296875,-4.08935546875,1.5869139432907104,-1.4038084745407104
535408,-0.049072265625,-0.601318359375,-0.557373046875,-3.295898199081421,-1.5258787870407104,1.5869139432907104
535425,-0.0660400390625,-0.9000244140625,-0.838623046875,-3.601073980331421,0.54931640625,-0.3662109076976776
535474,-0.0738525390625,-0.8045654296875,-0.7301025390625,-4.39453125,0.30517578125,0.0
535536,-0.04638671875,-0.7138671875,-0.6575927734375,-4.5166015625,0.1831054538488388,-0.0610351525247097
535553,-0.0477294921875,-0.69580078125,-0.6475830078125,-5.0048828125,0.1220703050494194,0.2441406100988388
535569,-0.0594482421875,-0.74951171875,-0.6732177734375,-5.371093273162842,0.0610351525247097,0.4882812201976776
535590,-0.0538330078125,-0.7235107421875,-0.644287109375,-5.432128429412842,0.0610351525247097,0.4882812201976776
535606,-0.051025390625,-0.744140625,-0.6519775390625,-5.371093273162842,0.0610351525247097,0.3662109076976776
535623,-0.0511474609375,-0.737548828125,-0.654296875,-5.371093273162842,0.1220703050494194,0.1831054538488388
535639,-0.0513916015625,-0.727783203125,-0.6453857421875,-5.187987804412842,0.1831054538488388,0.2441406100988388
535655,-0.0540771484375,-0.7437744140625,-0.654541015625,-4.82177734375,0.1220703050494194,0.3662109076976776
535671,-0.05322265625,-0.7493896484375,-0.65283203125,-4.638671875,0.1831054538488388,0.30517578125
535701,-0.05322265625,-0.7509765625,-0.64697265625,-3.662109136581421,0.0610351525247097,0.30517578125
535722,-0.052734375,-0.748046875,-0.6463623046875,-3.356933355331421,0.0610351525247097,0.1831054538488388
535738,-0.052734375,-0.73779296875,-0.6416015625,-3.295898199081421,0.1220703050494194,0.1831054538488388
535755,-0.0523681640625,-0.7454833984375,-0.645751953125,-3.173827886581421,0.0,0.2441406100988388
535772,-0.052001953125,-0.745849609375,-0.6451416015625,-3.051757574081421,-0.0610351525247097,0.30517578125
535788,-0.0518798828125,-0.74560546875,-0.63671875,-2.929687261581421,0.0,0.30517578125
535822,-0.055908203125,-0.748046875,-0.6448974609375,-2.746581792831421,0.0,0.30517578125
535838,-0.053955078125,-0.741455078125,-0.6396484375,-2.807616949081421,0.0610351525247097,0.3662109076976776
535854,-0.0537109375,-0.7509765625,-0.637939453125,-2.685546636581421,0.0610351525247097,0.30517578125
535870,-0.0528564453125,-0.7535400390625,-0.636962890625,-2.50244140625,0.0,0.30517578125
535890,-0.0498046875,-0.751708984375,-0.6326904296875,-2.13623046875,-0.1220703050494194,0.30517578125
535912,-0.05419921875,-0.7489013671875,-0.6370849609375,-1.7700194120407104,-0.1220703050494194,0.30517578125
535928,-0.0562744140625,-0.7491455078125,-0.6358642578125,-1.6479490995407104,-0.0610351525247097,0.2441406100988388
535945,-0.052734375,-0.74755859375,-0.6329345703125,-1.4648436307907104,-0.0610351525247097,0.30517578125
535962,-0.05126953125,-0.751953125,-0.63330078125,-1.4038084745407104,-0.1220703050494194,0.3662109076976776
535995,-0.054931640625,-0.7542724609375,-0.63427734375,-0.9765624403953552,-0.1831054538488388,0.2441406100988388
536012,-0.0548095703125,-0.7523193359375,-0.63525390625,-0.9155272841453552,-0.1831054538488388,0.2441406100988388
536028,-0.052001953125,-0.749267578125,-0.6339111328125,-0.7324218153953552,-0.1831054538488388,0.2441406100988388
536060,-0.0548095703125,-0.7540283203125,-0.6339111328125,-0.6713866591453552,-0.1220703050494194,0.2441406100988388
536081,-0.054443359375,-0.7508544921875,-0.631103515625,-0.4882812201976776,-0.1220703050494194,0.2441406100988388
536098,-0.0535888671875,-0.7518310546875,-0.63427734375,-0.4882812201976776,-0.1220703050494194,0.2441406100988388
536115,-0.052734375,-0.75244140625,-0.6358642578125,-0.4272460639476776,-0.1220703050494194,0.30517578125
536131,-0.0537109375,-0.752685546875,-0.63671875,-0.54931640625,-0.1831054538488388,0.30517578125
536148,-0.0537109375,-0.749267578125,-0.6318359375,-0.6713866591453552,-0.1220703050494194,0.30517578125
536180,-0.0538330078125,-0.7548828125,-0.6304931640625,-0.6713866591453552,-0.1220703050494194,0.3662109076976776
536201,-0.052734375,-0.7564697265625,-0.6279296875,-0.6103515625,-0.1831054538488388,0.30517578125
536217,-0.0531005859375,-0.7537841796875,-0.633056640625,-0.6103515625,-0.1831054538488388,0.30517578125
536234,-0.05419921875,-0.752685546875,-0.6346435546875,-0.4882812201976776,-0.1220703050494194,0.2441406100988388
536251,-0.0548095703125,-0.753173828125,-0.633056640625,-0.4272460639476776,-0.1220703050494194,0.2441406100988388
536267,-0.0535888671875,-0.75439453125,-0.6275634765625,-0.4272460639476776,-0.1220703050494194,0.30517578125
536299,-0.052734375,-0.756591796875,-0.6290283203125,-0.1220703050494194,-0.1831054538488388,0.3662109076976776
536321,-0.0540771484375,-0.753662109375,-0.6292724609375,0.0,-0.1831054538488388,0.2441406100988388
536337,-0.0543212890625,-0.75439453125,-0.6312255859375,0.0610351525247097,-0.1831054538488388,0.2441406100988388
536354,-0.0546875,-0.7550048828125,-0.6314697265625,0.0610351525247097,-0.1220703050494194,0.2441406100988388
536371,-0.0531005859375,-0.7550048828125,-0.628662109375,0.1831054538488388,-0.1831054538488388,0.2441406100988388
536387,-0.0533447265625,-0.757080078125,-0.6290283203125,0.2441406100988388,-0.1831054538488388,0.2441406100988388
536421,-0.053955078125,-0.7552490234375,-0.628173828125,0.4272460639476776,-0.1831054538488388,0.1831054538488388
536437,-0.0535888671875,-0.754638671875,-0.6322021484375,0.4272460639476776,-0.1831054538488388,0.1831054538488388
536453,-0.0535888671875,-0.7542724609375,-0.630615234375,0.4272460639476776,-0.1831054538488388,0.2441406100988388
536489,-0.05322265625,-0.755859375,-0.62841796875,0.54931640625,-0.1220703050494194,0.30517578125
536505,-0.0538330078125,-0.75634765625,-0.6280517578125,0.6103515625,-0.1220703050494194,0.30517578125
536521,-0.0540771484375,-0.7572021484375,-0.6287841796875,0.6713866591453552,-0.2441406100988388,0.30517578125
536537,-0.05322265625,-0.755615234375,-0.629150390625,0.8544921278953552,-0.30517578125,0.30517578125
536559,-0.052001953125,-0.7552490234375,-0.627685546875,0.9765624403953552,-0.30517578125,0.3662109076976776
536575,-0.053955078125,-0.7572021484375,-0.6287841796875,1.15966796875,-0.30517578125,0.30517578125
536592,-0.055419921875,-0.7557373046875,-0.6312255859375,1.2817381620407104,-0.2441406100988388,0.1831054538488388
536609,-0.0538330078125,-0.754638671875,-0.629150390625,1.2817381620407104,-0.1831054538488388,0.1831054538488388
536625,-0.0528564453125,-0.755859375,-0.62890625,1.3427733182907104,-0.1831054538488388,0.1220703050494194
536659,-0.0535888671875,-0.756103515625,-0.6298828125,1.4648436307907104,-0.2441406100988388,0.1831054538488388
536675,-0.0546875,-0.7548828125,-0.6304931640625,1.5258787870407104,-0.1831054538488388,0.1831054538488388
536691,-0.0533447265625,-0.75244140625,-0.6324462890625,1.5869139432907104,-0.2441406100988388,0.1831054538488388
536720,-0.0535888671875,-0.752685546875,-0.6317138671875,1.5258787870407104,-0.1831054538488388,0.1831054538488388
536742,-0.0548095703125,-0.755126953125,-0.6319580078125,1.5258787870407104,-0.2441406100988388,0.2441406100988388
536758,-0.0538330078125,-0.7547607421875,-0.6309814453125,1.4648436307907104,-0.2441406100988388,0.1831054538488388
536779,-0.0535888671875,-0.752685546875,-0.6304931640625,1.5258787870407104,-0.30517578125,0.1831054538488388
536799,-0.05419921875,-0.7520751953125,-0.6339111328125,1.5258787870407104,-0.1831054538488388,0.1831054538488388
536820,-0.0540771484375,-0.753173828125,-0.6331787109375,1.5258787870407104,-0.1831054538488388,0.1831054538488388
536839,-0.0537109375,-0.753173828125,-0.6309814453125,1.5869139432907104,-0.1831054538488388,0.2441406100988388
536855,-0.0531005859375,-0.7540283203125,-0.63134765625,1.5869139432907104,-0.1831054538488388,0.1831054538488388
536872,-0.052978515625,-0.7540283203125,-0.6328125,1.7700194120407104,-0.30517578125,0.1831054538488388
536904,-0.0546875,-0.7520751953125,-0.634765625,1.7089842557907104,-0.30517578125,0.2441406100988388
536952,-0.0535888671875,-0.750244140625,-0.6348876953125,1.5258787870407104,-0.2441406100988388,0.30517578125
536974,-0.0537109375,-0.7513427734375,-0.6351318359375,1.5258787870407104,-0.30517578125,0.2441406100988388
536991,-0.05224609375,-0.7493896484375,-0.6356201171875,1.4648436307907104,-0.30517578125,0.1831054538488388
537008,-0.052734375,-0.75146484375,-0.6373291015625,1.3427733182907104,-0.30517578125,0.2441406100988388
537028,-0.0557861328125,-0.750244140625,-0.635986328125,1.03759765625,-0.2441406100988388,0.2441406100988388
537045,-0.0545654296875,-0.7508544921875,-0.6361083984375,0.7934569716453552,-0.1831054538488388,0.30517578125
537062,-0.0513916015625,-0.7493896484375,-0.6365966796875,0.6713866591453552,-0.2441406100988388,0.30517578125
537078,-0.05419921875,-0.748779296875,-0.63671875,0.4272460639476776,-0.2441406100988388,0.3662109076976776
537094,-0.0560302734375,-0.7486572265625,-0.6370849609375,0.30517578125,-0.2441406100988388,0.3662109076976776
537110,-0.054931640625,-0.750244140625,-0.6365966796875,0.1220703050494194,-0.30517578125,0.4272460639476776
537143,-0.051513671875,-0.7537841796875,-0.6361083984375,0.0,-0.2441406100988388,0.3662109076976776
537164,-0.0535888671875,-0.7490234375,-0.634521484375,-0.1220703050494194,-0.2441406100988388,0.30517578125
537180,-0.0562744140625,-0.7501220703125,-0.63671875,-0.2441406100988388,-0.2441406100988388,0.30517578125
537197,-0.0557861328125,-0.7510986328125,-0.6380615234375,-0.54931640625,-0.1831054538488388,0.30517578125
537213,-0.052734375,-0.74853515625,-0.6363525390625,-0.6713866591453552,-0.1831054538488388,0.30517578125
537230,-0.050537109375,-0.7520751953125,-0.6361083984375,-0.9765624403953552,-0.1831054538488388,0.3662109076976776
537260,-0.0552978515625,-0.751708984375,-0.6309814453125,-1.03759765625,-0.1831054538488388,0.3662109076976776
537282,-0.0556640625,-0.751220703125,-0.6307373046875,-0.9765624403953552,-0.1831054538488388,0.3662109076976776
537298,-0.0528564453125,-0.753662109375,-0.632568359375,-1.03759765625,-0.2441406100988388,0.4272460639476776
537315,-0.0509033203125,-0.75439453125,-0.6322021484375,-1.03759765625,-0.2441406100988388,0.54931640625
537332,-0.0531005859375,-0.754638671875,-0.6292724609375,-0.9765624403953552,-0.1831054538488388,0.54931640625
537348,-0.054931640625,-0.7564697265625,-0.62744140625,-0.7934569716453552,-0.1831054538488388,0.3662109076976776
537382,-0.05126953125,-0.7530517578125,-0.6307373046875,-0.54931640625,-0.3662109076976776,0.4272460639476776
537398,-0.0513916015625,-0.7506103515625,-0.6298828125,-0.6713866591453552,-0.3662109076976776,0.4882812201976776
537414,-0.0528564453125,-0.752197265625,-0.6295166015625,-0.8544921278953552,-0.4272460639476776,0.6713866591453552
537430,-0.0518798828125,-0.7489013671875,-0.6202392578125,-0.9155272841453552,-0.7934569716453552,1.220703125
537450,-0.052978515625,-0.761962890625,-0.638427734375,-0.7934569716453552,-1.220703125,1.7700194120407104
537472,-0.0523681640625,-0.7578125,-0.636962890625,-0.6713866591453552,-1.220703125,1.9531248807907104
537488,-0.0482177734375,-0.7762451171875,-0.6171875,0.0610351525247097,-1.7089842557907104,2.3193359375
537507,-0.0390625,-0.784912109375,-0.6549072265625,0.8544921278953552,-2.3193359375,3.112792730331421
537524,-0.0394287109375,-0.9725341796875,-0.7835693359375,0.9155272841453552,-2.38037109375,3.051757574081421
537557,-0.0369873046875,-1.0718994140625,-0.90625,0.0610351525247097,0.7934569716453552,-1.3427733182907104
537574,-0.0443115234375,-1.03271484375,-0.8763427734375,-1.0986328125,1.5258787870407104,-1.4648436307907104
537590,-0.053955078125,-1.0302734375,-0.8599853515625,-2.44140625,1.3427733182907104,-1.220703125
537637,-0.0738525390625,-1.0260009765625,-0.8551025390625,-5.249022960662842,1.0986328125,-0.6103515625
537689,-0.069580078125,-1.14306640625,-0.9073486328125,-6.835937023162842,0.9765624403953552,-0.7324218153953552
537706,-0.0618896484375,-1.1187744140625,-0.9149169921875,-7.141112804412842,1.4648436307907104,-1.4038084745407104
537738,-0.070556640625,-1.166748046875,-0.945556640625,-6.225585460662842,3.112792730331421,-2.685546636581421
537754,-0.0789794921875,-1.16259765625,-0.9052734375,-4.94384765625,4.2724609375,-4.638671875
537775,-0.095458984375,-1.134765625,-0.887451171875,-3.295898199081421,5.126952648162842,-5.798339366912842
537795,-0.1044921875,-1.096923828125,-0.8560791015625,-1.8920897245407104,5.920409679412842,-7.141112804412842
537817,-0.10498046875,-1.036376953125,-0.818603515625,-0.7324218153953552,6.042479991912842,-7.629394054412842
537837,-0.1075439453125,-1.000244140625,-0.80517578125,0.1220703050494194,6.042479991912842,-7.568358898162842
537853,-0.1083984375,-0.9580078125,-0.763427734375,0.6103515625,6.103515148162842,-7.751464366912842
537870,-0.109130859375,-0.91943359375,-0.7352294921875,1.3427733182907104,5.920409679412842,-7.690429210662842
537887,-0.108154296875,-0.8509521484375,-0.669189453125,1.9531248807907104,5.065917491912842,-6.713866710662842
537920,-0.10595703125,-0.754150390625,-0.6029052734375,2.25830078125,3.601073980331421,-5.126952648162842
537937,-0.1014404296875,-0.7200927734375,-0.5765380859375,2.38037109375,2.746581792831421,-3.967284917831421
537989,-0.0853271484375,-0.618408203125,-0.485107421875,1.5258787870407104,0.1831054538488388,-0.6713866591453552
538005,-0.07666015625,-0.59375,-0.4681396484375,0.54931640625,-0.8544921278953552,0.54931640625
538021,-0.064697265625,-0.575439453125,-0.45947265625,0.0610351525247097,-1.220703125,1.03759765625
538037,-0.0615234375,-0.5762939453125,-0.465576171875,-1.15966796875,-1.7700194120407104,2.0751953125
538059,-0.056884765625,-0.58984375,-0.464599609375,-2.13623046875,-1.9531248807907104,2.3193359375
538075,-0.0526123046875,-0.5909423828125,-0.4654541015625,-2.50244140625,-1.8920897245407104,2.25830078125
538092,-0.0406494140625,-0.5198974609375,-0.390625,-3.234863042831421,-1.5258787870407104,1.7700194120407104
538155,-0.0322265625,-0.5142822265625,-0.3731689453125,-5.0048828125,-1.4038084745407104,1.8310545682907104
538174,-0.032470703125,-0.466064453125,-0.33251953125,-4.94384765625,-1.15966796875,0.9765624403953552
538190,-0.0322265625,-0.43408203125,-0.306640625,-5.0048828125,-1.0986328125,0.7934569716453552
538221,-0.040283203125,-0.35009765625,-0.27783203125,-5.615233898162842,-1.3427733182907104,1.03759765625
538243,-0.0445556640625,-0.3604736328125,-0.290771484375,-6.286620616912842,-1.4038084745407104,1.4648436307907104
538259,-0.04833984375,-0.3868408203125,-0.322021484375,-6.347655773162842,-1.15966796875,1.7700194120407104
538276,-0.0445556640625,-0.4505615234375,-0.343994140625,-6.103515148162842,-1.0986328125,2.13623046875
538293,-0.0445556640625,-0.55322265625,-0.383056640625,-5.126952648162842,-1.15966796875,2.38037109375
538309,-0.0477294921875,-0.599365234375,-0.41796875,-3.295898199081421,-1.4038084745407104,1.8920897245407104
538339,-0.060302734375,-0.674560546875,-0.483642578125,0.1831054538488388,-0.9155272841453552,1.03759765625
538355,-0.0584716796875,-0.669921875,-0.4686279296875,3.173827886581421,-0.9155272841453552,0.7934569716453552
538371,-0.05810546875,-0.6817626953125,-0.4671630859375,4.69970703125,-1.2817381620407104,0.9155272841453552
538403,-0.0655517578125,-0.739013671875,-0.5430908203125,10.437010765075684,-1.7700194120407104,0.1220703050494194
538419,-0.06884765625,-0.7401123046875,-0.56103515625,11.657713890075684,-1.6479490995407104,-0.1220703050494194
538435,-0.0736083984375,-0.7237548828125,-0.57080078125,13.977049827575684,-1.4038084745407104,-0.4272460639476776
538451,-0.07470703125,-0.71337890625,-0.5660400390625,14.892577171325684,-1.4038084745407104,-0.54931640625
538471,-0.0736083984375,-0.6724853515625,-0.5455322265625,16.357421875,-1.7089842557907104,-0.3662109076976776
538493,-0.0780029296875,-0.6832275390625,-0.5753173828125,17.27294921875,-2.01416015625,-0.0610351525247097
538509,-0.0811767578125,-0.6884765625,-0.5975341796875,18.12744140625,-1.9531248807907104,0.1220703050494194
538526,-0.082275390625,-0.7060546875,-0.6131591796875,18.4326171875,-1.8920897245407104,0.0610351525247097
538543,-0.0792236328125,-0.697021484375,-0.603759765625,18.85986328125,-1.7700194120407104,0.0
538576,-0.0799560546875,-0.730712890625,-0.6409912109375,18.798828125,-1.8920897245407104,0.1831054538488388
538636,-0.0784912109375,-0.7691650390625,-0.67333984375,17.76123046875,-1.7700194120407104,0.0610351525247097
538658,-0.080078125,-0.7706298828125,-0.6849365234375,17.15087890625,-1.5258787870407104,-0.30517578125
538675,-0.08203125,-0.7540283203125,-0.6875,16.78466796875,-1.4038084745407104,-0.4882812201976776
538692,-0.0804443359375,-0.7454833984375,-0.6878662109375,15.930174827575684,-1.4038084745407104,-0.4882812201976776
538708,-0.07861328125,-0.7574462890625,-0.701416015625,14.831542015075684,-1.2817381620407104,-0.6713866591453552
538725,-0.0751953125,-0.730224609375,-0.6973876953125,13.366698265075684,-0.7324218153953552,-0.9765624403953552
538758,-0.0740966796875,-0.70947265625,-0.6905517578125,10.925292015075684,-0.7324218153953552,-0.7324218153953552
538774,-0.0748291015625,-0.71240234375,-0.6954345703125,9.21630859375,-0.6103515625,-0.7934569716453552
538821,-0.0787353515625,-0.708740234375,-0.69189453125,5.859374523162842,-0.0610351525247097,-1.03759765625
538843,-0.0770263671875,-0.703857421875,-0.68310546875,4.2724609375,-0.0610351525247097,-0.9155272841453552
538859,-0.0772705078125,-0.7042236328125,-0.6826171875,2.50244140625,0.0610351525247097,-0.7934569716453552
538876,-0.0789794921875,-0.7083740234375,-0.68701171875,1.7089842557907104,0.0610351525247097,-0.7324218153953552
538942,-0.076171875,-0.7332763671875,-0.6795654296875,-2.50244140625,0.2441406100988388,-0.3662109076976776
538959,-0.0753173828125,-0.711181640625,-0.6683349609375,-3.356933355331421,0.1831054538488388,-0.4272460639476776
538975,-0.0751953125,-0.68896484375,-0.657470703125,-4.08935546875,0.0,0.1220703050494194
538991,-0.076171875,-0.6964111328125,-0.6572265625,-4.45556640625,-0.0610351525247097,0.30517578125
539016,-0.0771484375,-0.7132568359375,-0.6630859375,-4.94384765625,0.0,0.1831054538488388
539032,-0.0748291015625,-0.7012939453125,-0.65283203125,-5.310058116912842,0.0610351525247097,0.1831054538488388
539049,-0.0751953125,-0.7003173828125,-0.6478271484375,-5.554198741912842,-0.0610351525247097,0.4272460639476776
539066,-0.0765380859375,-0.71044921875,-0.6517333984375,-6.042479991912842,-0.1220703050494194,0.7324218153953552
539082,-0.0762939453125,-0.7166748046875,-0.654052734375,-6.469726085662842,-0.1220703050494194,0.8544921278953552
539116,-0.072998046875,-0.7547607421875,-0.65869140625,-6.835937023162842,0.0610351525247097,0.7324218153953552
539170,-0.0762939453125,-0.742919921875,-0.6627197265625,-6.835937023162842,0.0610351525247097,0.4882812201976776
539196,-0.07177734375,-0.7464599609375,-0.660888671875,-6.835937023162842,0.0,0.6103515625
539217,-0.070556640625,-0.748291015625,-0.6639404296875,-6.591796398162842,0.0610351525247097,0.4882812201976776
539234,-0.067138671875,-0.7371826171875,-0.6588134765625,-6.347655773162842,0.1220703050494194,0.4882812201976776
539250,-0.0675048828125,-0.7274169921875,-0.6522216796875,-6.347655773162842,0.0,0.6103515625
539267,-0.0694580078125,-0.70947265625,-0.6397705078125,-6.286620616912842,-0.0610351525247097,0.9765624403953552
539299,-0.07080078125,-0.7314453125,-0.6500244140625,-5.920409679412842,-0.1831054538488388,1.220703125
539321,-0.06787109375,-0.735107421875,-0.647216796875,-5.554198741912842,-0.1831054538488388,1.03759765625
539337,-0.068359375,-0.7314453125,-0.6444091796875,-5.310058116912842,-0.2441406100988388,1.03759765625
539354,-0.0692138671875,-0.7320556640625,-0.6422119140625,-4.57763671875,-0.1831054538488388,1.03759765625
539371,-0.06982421875,-0.7427978515625,-0.6431884765625,-3.662109136581421,-0.2441406100988388,1.0986328125
539387,-0.0697021484375,-0.7589111328125,-0.64501953125,-3.234863042831421,-0.2441406100988388,0.9765624403953552
539420,-0.0723876953125,-0.7684326171875,-0.6519775390625,-1.7700194120407104,0.0610351525247097,0.2441406100988388
539442,-0.0699462890625,-0.7586669921875,-0.64697265625,-0.9155272841453552,0.2441406100988388,0.0610351525247097
539458,-0.0709228515625,-0.76611328125,-0.6483154296875,-0.4882812201976776,0.1831054538488388,0.0610351525247097
539475,-0.072021484375,-0.7745361328125,-0.654541015625,0.30517578125,0.30517578125,-0.2441406100988388
539492,-0.0740966796875,-0.7783203125,-0.6510009765625,1.0986328125,0.54931640625,-0.7934569716453552
539508,-0.0751953125,-0.7562255859375,-0.640625,1.4038084745407104,0.6103515625,-0.9765624403953552
539540,-0.0770263671875,-0.759033203125,-0.6436767578125,2.50244140625,0.6103515625,-1.220703125
539562,-0.0770263671875,-0.7489013671875,-0.6363525390625,2.990722417831421,0.7324218153953552,-1.6479490995407104
539578,-0.0792236328125,-0.731689453125,-0.632568359375,3.234863042831421,0.6713866591453552,-1.5869139432907104
539595,-0.0806884765625,-0.732421875,-0.6378173828125,3.417968511581421,0.54931640625,-1.4038084745407104
539612,-0.082763671875,-0.739013671875,-0.644287109375,3.723144292831421,0.6713866591453552,-1.4648436307907104
539628,-0.0841064453125,-0.733154296875,-0.6431884765625,3.845214605331421,0.6713866591453552,-1.5258787870407104
539660,-0.0799560546875,-0.7178955078125,-0.633544921875,4.150390625,0.54931640625,-1.3427733182907104
539682,-0.0782470703125,-0.7158203125,-0.6361083984375,4.08935546875,0.4882812201976776,-1.0986328125
539698,-0.0804443359375,-0.716064453125,-0.640869140625,4.08935546875,0.4882812201976776,-1.03759765625
539715,-0.0810546875,-0.720947265625,-0.64208984375,4.2724609375,0.4272460639476776,-0.8544921278953552
539732,-0.080810546875,-0.721923828125,-0.6400146484375,4.39453125,0.3662109076976776,-0.8544921278953552
539748,-0.0789794921875,-0.72119140625,-0.6373291015625,4.57763671875,0.30517578125,-0.7324218153953552
539780,-0.0770263671875,-0.702880859375,-0.6324462890625,4.638671875,0.0610351525247097,-0.54931640625
539802,-0.076904296875,-0.6824951171875,-0.62255859375,4.45556640625,0.0,-0.3662109076976776
539818,-0.0771484375,-0.6749267578125,-0.6220703125,4.150390625,-0.1831054538488388,0.0610351525247097
539835,-0.0767822265625,-0.6712646484375,-0.62060546875,3.845214605331421,-0.1831054538488388,0.1831054538488388
539852,-0.0732421875,-0.658203125,-0.60498046875,3.662109136581421,-0.1220703050494194,0.2441406100988388
539868,-0.07373046875,-0.6510009765625,-0.6024169921875,3.417968511581421,-0.4272460639476776,0.4272460639476776
539900,-0.071533203125,-0.6324462890625,-0.5960693359375,2.807616949081421,-0.4882812201976776,1.03759765625
539922,-0.072021484375,-0.6455078125,-0.6007080078125,2.685546636581421,-0.54931640625,1.15966796875
539938,-0.0693359375,-0.66650390625,-0.606689453125,2.624511480331421,-0.6103515625,1.3427733182907104
539955,-0.0689697265625,-0.6815185546875,-0.613037109375,2.868652105331421,-0.6713866591453552,1.4038084745407104
539972,-0.071044921875,-0.702392578125,-0.626953125,2.990722417831421,-0.54931640625,1.15966796875
539988,-0.07080078125,-0.6708984375,-0.6148681640625,3.295898199081421,-0.3662109076976776,0.6713866591453552
540021,-0.073486328125,-0.678466796875,-0.6361083984375,3.479003667831421,-0.2441406100988388,0.9765624403953552
540038,-0.0711669921875,-0.698974609375,-0.6363525390625,3.540038824081421,-0.1831054538488388,0.9765624403953552
540054,-0.070556640625,-0.705078125,-0.6395263671875,3.723144292831421,0.0610351525247097,0.54931640625
540090,-0.0703125,-0.6558837890625,-0.6236572265625,3.356933355331421,0.2441406100988388,0.1220703050494194
540110,-0.075439453125,-0.6630859375,-0.636474609375,2.624511480331421,0.4272460639476776,0.1831054538488388
540126,-0.077880859375,-0.6697998046875,-0.639892578125,2.25830078125,0.7324218153953552,-0.1220703050494194
540146,-0.07568359375,-0.647216796875,-0.6097412109375,1.220703125,1.3427733182907104,-0.8544921278953552
540162,-0.069091796875,-0.57470703125,-0.5499267578125,0.4882812201976776,1.4648436307907104,-0.9155272841453552
540179,-0.0709228515625,-0.559814453125,-0.547607421875,-1.15966796875,0.8544921278953552,-0.1220703050494194
540195,-0.076904296875,-0.5931396484375,-0.5811767578125,-2.624511480331421,0.4272460639476776,0.6713866591453552
540261,-0.080078125,-0.614990234375,-0.5634765625,-4.638671875,1.4648436307907104,-0.7324218153953552
540277,-0.0767822265625,-0.587646484375,-0.5484619140625,-5.126952648162842,1.0986328125,-0.30517578125
540293,-0.0771484375,-0.59228515625,-0.564208984375,-5.981444835662842,0.4272460639476776,0.7934569716453552
540325,-0.0848388671875,-0.6834716796875,-0.6256103515625,-6.530761241912842,0.6713866591453552,0.8544921278953552
540341,-0.082275390625,-0.688720703125,-0.60693359375,-6.408690929412842,0.9765624403953552,0.1220703050494194
540357,-0.0804443359375,-0.66064453125,-0.5823974609375,-6.347655773162842,0.8544921278953552,0.0610351525247097
540373,-0.07763671875,-0.6273193359375,-0.565673828125,-6.347655773162842,0.0610351525247097,0.8544921278953552
540392,-0.076904296875,-0.6832275390625,-0.6163330078125,-5.981444835662842,-0.30517578125,1.2817381620407104
540413,-0.075439453125,-0.7408447265625,-0.648681640625,-5.615233898162842,-0.0610351525247097,0.9155272841453552
540430,-0.069580078125,-0.7132568359375,-0.61328125,-4.45556640625,0.4882812201976776,-0.1220703050494194
540447,-0.068603515625,-0.689453125,-0.5894775390625,-3.417968511581421,0.3662109076976776,-0.3662109076976776
540464,-0.0740966796875,-0.6624755859375,-0.576416015625,-2.563476324081421,-0.30517578125,0.1831054538488388
540497,-0.0841064453125,-0.693359375,-0.6036376953125,-1.4648436307907104,-0.7324218153953552,0.6713866591453552
540514,-0.087646484375,-0.7166748046875,-0.5980224609375,0.0,-0.7324218153953552,0.54931640625
540535,-0.0838623046875,-0.7117919921875,-0.579833984375,1.4038084745407104,-0.9765624403953552,0.4882812201976776
540551,-0.0755615234375,-0.6773681640625,-0.5635986328125,1.9531248807907104,-1.220703125,0.54931640625
540618,-0.077392578125,-0.718994140625,-0.6009521484375,5.737304210662842,-2.25830078125,1.7089842557907104
540634,-0.071044921875,-0.7037353515625,-0.5960693359375,7.080077648162842,-2.746581792831421,2.197265625
540681,-0.06787109375,-0.8135986328125,-0.674072265625,10.925292015075684,-2.563476324081421,1.4038084745407104
540702,-0.06591796875,-0.7945556640625,-0.66259765625,11.779784202575684,-2.38037109375,0.9765624403953552
540718,-0.061767578125,-0.7298583984375,-0.6298828125,12.817381858825684,-2.746581792831421,1.0986328125
540735,-0.0694580078125,-0.7205810546875,-0.6551513671875,13.122557640075684,-3.173827886581421,1.5869139432907104
540752,-0.0777587890625,-0.7545166015625,-0.6968994140625,13.366698265075684,-3.356933355331421,2.0751953125
540768,-0.0771484375,-0.7623291015625,-0.710205078125,13.916014671325684,-3.112792730331421,2.01416015625
540834,-0.0738525390625,-0.805419921875,-0.7301025390625,15.319823265075684,-3.112792730331421,2.44140625
540876,-0.0755615234375,-0.7830810546875,-0.732666015625,15.869139671325684,-2.38037109375,1.3427733182907104
540893,-0.0712890625,-0.7421875,-0.7100830078125,15.686034202575684,-2.3193359375,1.3427733182907104
540910,-0.0704345703125,-0.733642578125,-0.7119140625,15.075682640075684,-2.624511480331421,2.01416015625
540930,-0.0745849609375,-0.7861328125,-0.7606201171875,14.709471702575684,-2.563476324081421,2.25830078125
540946,-0.0782470703125,-0.8199462890625,-0.7730712890625,14.465331077575684,-1.7700194120407104,1.4038084745407104
540963,-0.0762939453125,-0.7679443359375,-0.7293701171875,14.160155296325684,-1.5258787870407104,0.9765624403953552
540979,-0.0751953125,-0.7412109375,-0.711181640625,13.854979515075684,-1.7700194120407104,1.15966796875
540995,-0.0743408203125,-0.7225341796875,-0.718505859375,12.756346702575684,-2.44140625,1.8310545682907104
541011,-0.07666015625,-0.7607421875,-0.77197265625,12.268065452575684,-2.563476324081421,2.13623046875
541043,-0.0738525390625,-0.7523193359375,-0.75634765625,10.559081077575684,-1.5869139432907104,1.6479490995407104
541059,-0.0706787109375,-0.738525390625,-0.7354736328125,10.131834983825684,-1.8310545682907104,1.8920897245407104
541075,-0.068359375,-0.7442626953125,-0.7490234375,9.09423828125,-2.25830078125,2.197265625
541091,-0.0711669921875,-0.7493896484375,-0.7862548828125,8.36181640625,-2.25830078125,2.25830078125
541116,-0.0694580078125,-0.743408203125,-0.7965087890625,7.019042491912842,-1.8920897245407104,2.25830078125
541132,-0.064208984375,-0.74755859375,-0.7724609375,5.615233898162842,-1.5869139432907104,2.50244140625
541149,-0.0616455078125,-0.748046875,-0.7635498046875,4.08935546875,-1.8310545682907104,2.624511480331421
541166,-0.0606689453125,-0.7620849609375,-0.7900390625,3.417968511581421,-2.197265625,2.868652105331421
541183,-0.066650390625,-0.8057861328125,-0.847412109375,1.7089842557907104,-1.7700194120407104,2.624511480331421
541215,-0.0623779296875,-0.772216796875,-0.8060302734375,0.3662109076976776,-0.8544921278953552,1.9531248807907104
541232,-0.0550537109375,-0.7073974609375,-0.7325439453125,-0.1831054538488388,-0.7324218153953552,1.8310545682907104
541248,-0.051513671875,-0.695068359375,-0.712646484375,-1.6479490995407104,-1.220703125,2.38037109375
541280,-0.050048828125,-0.7403564453125,-0.759033203125,-4.21142578125,-1.7089842557907104,2.746581792831421
541301,-0.0496826171875,-0.7691650390625,-0.7698974609375,-5.615233898162842,-1.03759765625,2.01416015625
541317,-0.045654296875,-0.7294921875,-0.734619140625,-7.080077648162842,-0.7934569716453552,1.5869139432907104
541334,-0.0396728515625,-0.7109375,-0.7108154296875,-7.751464366912842,-0.8544921278953552,1.6479490995407104
541351,-0.0341796875,-0.7056884765625,-0.707275390625,-9.33837890625,-1.15966796875,1.9531248807907104
541371,-0.031982421875,-0.763671875,-0.75244140625,-10.070799827575684,-1.5258787870407104,2.25830078125
541392,-0.037841796875,-0.8106689453125,-0.802001953125,-10.192870140075684,-0.7934569716453552,1.2817381620407104
541409,-0.0426025390625,-0.800537109375,-0.79931640625,-10.009765625,-0.0610351525247097,0.4882812201976776
541429,-0.041015625,-0.76171875,-0.755126953125,-9.94873046875,0.0,0.3662109076976776
541467,-0.039794921875,-0.7401123046875,-0.7445068359375,-9.94873046875,0.54931640625,-0.0610351525247097
541484,-0.0401611328125,-0.7132568359375,-0.7083740234375,-9.94873046875,0.8544921278953552,-0.2441406100988388
541500,-0.0401611328125,-0.700439453125,-0.6954345703125,-9.70458984375,0.7324218153953552,-0.1831054538488388
541517,-0.0435791015625,-0.714111328125,-0.7005615234375,-9.33837890625,0.54931640625,0.0
541534,-0.048828125,-0.7279052734375,-0.7177734375,-8.6669921875,0.9155272841453552,-0.3662109076976776
541550,-0.049560546875,-0.730224609375,-0.7169189453125,-8.30078125,1.15966796875,-0.6103515625
541582,-0.0509033203125,-0.7098388671875,-0.6959228515625,-7.202147960662842,1.15966796875,-0.7324218153953552
541598,-0.05419921875,-0.722900390625,-0.7137451171875,-6.286620616912842,0.9765624403953552,-0.6713866591453552
541614,-0.0584716796875,-0.7392578125,-0.731201171875,-5.432128429412842,1.220703125,-1.03759765625
541650,-0.0616455078125,-0.7464599609375,-0.712646484375,-3.723144292831421,1.6479490995407104,-1.6479490995407104
541666,-0.0614013671875,-0.717041015625,-0.682373046875,-2.807616949081421,1.220703125,-1.6479490995407104
541682,-0.0635986328125,-0.7139892578125,-0.6822509765625,-2.50244140625,1.15966796875,-1.6479490995407104
541698,-0.065185546875,-0.7000732421875,-0.6807861328125,-1.7700194120407104,1.03759765625,-1.4648436307907104
541715,-0.0638427734375,-0.713134765625,-0.6890869140625,-1.220703125,1.0986328125,-1.4648436307907104
541736,-0.0611572265625,-0.712646484375,-0.6864013671875,-0.9155272841453552,1.220703125,-1.5869139432907104
541752,-0.0567626953125,-0.6976318359375,-0.665283203125,-0.2441406100988388,1.15966796875,-1.8310545682907104
541769,-0.0595703125,-0.6802978515625,-0.655029296875,0.6103515625,0.9155272841453552,-1.6479490995407104
541786,-0.0601806640625,-0.6180419921875,-0.59375,1.220703125,0.3662109076976776,-1.220703125
541819,-0.052490234375,-0.6697998046875,-0.634521484375,3.967284917831421,-4.2724609375,2.990722417831421
541835,-0.048095703125,-0.7073974609375,-0.681396484375,3.784179449081421,-3.234863042831421,2.197265625
541851,-0.045166015625,-0.7022705078125,-0.6689453125,4.45556640625,-2.990722417831421,1.8310545682907104
541883,-0.0380859375,-0.7142333984375,-0.6749267578125,4.8828125,-2.990722417831421,1.6479490995407104
541899,-0.03662109375,-0.7081298828125,-0.681396484375,6.042479991912842,-2.685546636581421,1.03759765625
541915,-0.0653076171875,-0.9952392578125,-0.9715576171875,6.347655773162842,-0.7934569716453552,-0.6713866591453552
541931,-0.0723876953125,-1.109619140625,-1.0804443359375,5.432128429412842,1.2817381620407104,-2.746581792831421
541951,-0.0360107421875,-0.5943603515625,-0.5731201171875,1.8310545682907104,1.4038084745407104,-2.0751953125
541973,-0.05322265625,-0.540283203125,-0.5225830078125,-1.6479490995407104,-1.7089842557907104,1.6479490995407104
541989,-0.0552978515625,-0.6959228515625,-0.6683349609375,-1.4038084745407104,-1.8310545682907104,1.9531248807907104
542010,-0.07080078125,-0.8165283203125,-0.8223876953125,2.13623046875,-0.7934569716453552,0.3662109076976776
542026,-0.0518798828125,-0.7022705078125,-0.674560546875,4.08935546875,0.7324218153953552,-1.15966796875
542043,-0.0450439453125,-0.626953125,-0.6102294921875,2.38037109375,0.1831054538488388,-0.1220703050494194
542059,-0.0550537109375,-0.7022705078125,-0.688232421875,2.929687261581421,-0.30517578125,0.4272460639476776
542081,-0.050537109375,-0.7552490234375,-0.72216796875,2.44140625,0.4272460639476776,-0.3662109076976776
542097,-0.0389404296875,-0.673583984375,-0.6475830078125,2.197265625,0.3662109076976776,-0.3662109076976776
542114,-0.048095703125,-0.6961669921875,-0.675537109375,2.13623046875,-0.2441406100988388,0.0
542131,-0.0594482421875,-0.724609375,-0.712646484375,1.4648436307907104,0.0610351525247097,-0.1831054538488388
542147,-0.0526123046875,-0.67626953125,-0.675537109375,1.2817381620407104,0.1831054538488388,-0.2441406100988388
542178,-0.0521240234375,-0.7130126953125,-0.6988525390625,0.3662109076976776,0.2441406100988388,-0.2441406100988388
542194,-0.0489501953125,-0.7044677734375,-0.6832275390625,0.2441406100988388,0.2441406100988388,-0.2441406100988388
542210,-0.04833984375,-0.70166015625,-0.67724609375,0.0,-0.0610351525247097,0.1220703050494194
542242,-0.05517578125,-0.70068359375,-0.6842041015625,-0.3662109076976776,-0.0610351525247097,-0.1831054538488388
542258,-0.055419921875,-0.6937255859375,-0.688720703125,-0.9155272841453552,0.1220703050494194,-0.0610351525247097
542274,-0.0550537109375,-0.705322265625,-0.69580078125,-1.3427733182907104,0.1220703050494194,0.0
542310,-0.0499267578125,-0.7041015625,-0.6822509765625,-3.051757574081421,0.0,0.30517578125
542326,-0.0533447265625,-0.7066650390625,-0.689208984375,-3.906249761581421,0.0610351525247097,0.2441406100988388
542342,-0.0545654296875,-0.7039794921875,-0.688720703125,-4.33349609375,0.0610351525247097,0.2441406100988388
542358,-0.0545654296875,-0.7012939453125,-0.6898193359375,-5.310058116912842,0.0610351525247097,0.4272460639476776
542375,-0.052978515625,-0.7049560546875,-0.686767578125,-5.737304210662842,0.1220703050494194,0.4272460639476776
542396,-0.05029296875,-0.7108154296875,-0.6800537109375,-6.286620616912842,0.1220703050494194,0.4882812201976776
542412,-0.0526123046875,-0.71826171875,-0.6719970703125,-6.591796398162842,0.1220703050494194,0.4272460639476776
542429,-0.0557861328125,-0.7161865234375,-0.67138671875,-6.591796398162842,0.0610351525247097,0.3662109076976776
542446,-0.0548095703125,-0.715576171875,-0.6702880859375,-6.774901866912842,0.1220703050494194,0.4272460639476776
542479,-0.0526123046875,-0.717529296875,-0.6705322265625,-7.385253429412842,0.0610351525247097,0.6713866591453552
542495,-0.0528564453125,-0.7176513671875,-0.668212890625,-7.446288585662842,0.0610351525247097,0.6713866591453552
542511,-0.052001953125,-0.7274169921875,-0.6632080078125,-7.446288585662842,0.0,0.6713866591453552
542543,-0.052734375,-0.7252197265625,-0.65869140625,-7.202147960662842,0.0,0.4882812201976776
542559,-0.0533447265625,-0.7265625,-0.6639404296875,-7.202147960662842,0.1220703050494194,0.4272460639476776
542591,-0.055419921875,-0.728515625,-0.655029296875,-7.385253429412842,0.1220703050494194,0.6103515625
542611,-0.0518798828125,-0.73583984375,-0.652587890625,-7.202147960662842,0.1220703050494194,0.6103515625
542633,-0.05126953125,-0.7374267578125,-0.648193359375,-6.835937023162842,0.0610351525247097,0.4882812201976776
542649,-0.053466796875,-0.7413330078125,-0.6502685546875,-6.652831554412842,0.0,0.4882812201976776
542666,-0.0543212890625,-0.7376708984375,-0.6468505859375,-6.225585460662842,0.0,0.54931640625
542716,-0.0526123046875,-0.7437744140625,-0.641845703125,-5.187987804412842,0.0610351525247097,0.4882812201976776
542790,-0.0538330078125,-0.7447509765625,-0.6385498046875,-3.417968511581421,-0.0610351525247097,0.30517578125
542806,-0.0533447265625,-0.744873046875,-0.6385498046875,-3.051757574081421,0.0,0.30517578125
542839,-0.0538330078125,-0.75341796875,-0.632568359375,-2.3193359375,-0.1220703050494194,0.3662109076976776
542856,-0.05322265625,-0.751220703125,-0.6309814453125,-1.8920897245407104,-0.1220703050494194,0.30517578125
542873,-0.0538330078125,-0.7509765625,-0.63525390625,-1.2817381620407104,-0.1831054538488388,0.30517578125
542924,-0.053955078125,-0.7510986328125,-0.63330078125,0.0610351525247097,-0.1220703050494194,0.1831054538488388
542977,-0.053466796875,-0.7491455078125,-0.6358642578125,1.03759765625,-0.30517578125,0.2441406100988388
542994,-0.0557861328125,-0.7489013671875,-0.6397705078125,1.220703125,-0.1831054538488388,0.1831054538488388
543027,-0.0511474609375,-0.7491455078125,-0.6358642578125,1.4038084745407104,-0.1831054538488388,0.1831054538488388
543091,-0.0548095703125,-0.7459716796875,-0.6385498046875,2.0751953125,-0.30517578125,0.1831054538488388
543108,-0.0540771484375,-0.745849609375,-0.6380615234375,2.3193359375,-0.2441406100988388,0.1831054538488388
543141,-0.0528564453125,-0.7474365234375,-0.63720703125,2.624511480331421,-0.1831054538488388,0.1831054538488388
543174,-0.0540771484375,-0.74365234375,-0.642333984375,2.746581792831421,-0.30517578125,0.1831054538488388
543276,-0.0533447265625,-0.7412109375,-0.6412353515625,1.8310545682907104,-0.30517578125,0.3662109076976776
543293,-0.05517578125,-0.74267578125,-0.64501953125,1.7089842557907104,-0.3662109076976776,0.4272460639476776
543309,-0.05419921875,-0.7420654296875,-0.646240234375,1.5258787870407104,-0.3662109076976776,0.4272460639476776
543330,-0.05224609375,-0.7392578125,-0.6466064453125,1.3427733182907104,-0.4272460639476776,0.30517578125
543346,-0.05078125,-0.7337646484375,-0.6446533203125,0.9765624403953552,-0.54931640625,0.6103515625
543379,-0.055419921875,-0.7347412109375,-0.65185546875,-0.1831054538488388,-1.220703125,1.5258787870407104
543395,-0.054931640625,-0.736328125,-0.65673828125,-1.03759765625,-1.5869139432907104,2.685546636581421
543411,-0.051513671875,-0.7772216796875,-0.6634521484375,-1.220703125,-1.9531248807907104,3.173827886581421
543443,-0.0555419921875,-0.9058837890625,-0.747314453125,-0.9155272841453552,-1.9531248807907104,2.50244140625
543459,-0.0631103515625,-0.9842529296875,-0.84912109375,-1.5869139432907104,-1.0986328125,1.5869139432907104
543475,-0.067138671875,-0.9818115234375,-0.8482666015625,-3.234863042831421,-0.0610351525247097,0.6713866591453552
543491,-0.072998046875,-0.9417724609375,-0.8560791015625,-5.310058116912842,0.2441406100988388,0.7934569716453552
543511,-0.07373046875,-0.876708984375,-0.825439453125,-7.995604991912842,0.6103515625,1.03759765625
543527,-0.07421875,-0.86083984375,-0.822021484375,-9.3994140625,0.6103515625,1.7089842557907104
543543,-0.0626220703125,-0.8802490234375,-0.8194580078125,-11.535643577575684,0.2441406100988388,3.234863042831421
543559,-0.0638427734375,-1.03759765625,-0.9013671875,-12.145995140075684,0.1220703050494194,4.0283203125
543581,-0.0650634765625,-1.1260986328125,-0.932373046875,-12.207030296325684,1.15966796875,3.112792730331421
543597,-0.0576171875,-1.1435546875,-0.9150390625,-11.413573265075684,2.685546636581421,0.6103515625
543647,-0.054443359375,-0.9681396484375,-0.802978515625,-10.986327171325684,2.563476324081421,0.7934569716453552
543706,-0.0775146484375,-1.2532958984375,-0.9124755859375,-5.371093273162842,4.150390625,-1.4648436307907104
543753,-0.080810546875,-1.0631103515625,-0.82275390625,-0.30517578125,3.967284917831421,-3.112792730331421
543769,-0.082763671875,-1.0379638671875,-0.82568359375,1.4038084745407104,4.33349609375,-3.417968511581421
543802,-0.0728759765625,-0.9932861328125,-0.7720947265625,3.784179449081421,4.8828125,-3.540038824081421
543852,-0.08447265625,-0.939208984375,-0.742919921875,9.33837890625,5.432128429412842,-5.065917491912842
543872,-0.078857421875,-0.8529052734375,-0.6834716796875,10.742186546325684,5.371093273162842,-4.82177734375
543894,-0.075927734375,-0.8209228515625,-0.6607666015625,11.169432640075684,5.249022960662842,-4.638671875
543910,-0.069091796875,-0.7545166015625,-0.6090087890625,11.596678733825684,5.0048828125,-4.08935546875
543927,-0.0662841796875,-0.69970703125,-0.5555419921875,11.596678733825684,4.45556640625,-3.417968511581421
543944,-0.0643310546875,-0.6409912109375,-0.4981689453125,11.596678733825684,4.21142578125,-3.112792730331421
543977,-0.0594482421875,-0.5684814453125,-0.43603515625,11.169432640075684,2.50244140625,-1.5258787870407104
543995,-0.057861328125,-0.5361328125,-0.4271240234375,10.803221702575684,1.7700194120407104,-0.9765624403953552
544011,-0.057861328125,-0.507080078125,-0.4132080078125,10.559081077575684,1.5869139432907104,-0.54931640625
544043,-0.0596923828125,-0.5018310546875,-0.3988037109375,9.94873046875,0.8544921278953552,0.0610351525247097
544059,-0.05859375,-0.49365234375,-0.3892822265625,9.94873046875,0.9155272841453552,-0.1220703050494194
544075,-0.0484619140625,-0.447021484375,-0.3424072265625,9.94873046875,0.9155272841453552,-0.1831054538488388
544091,-0.0400390625,-0.396484375,-0.3082275390625,9.765625,0.9155272841453552,-0.3662109076976776
544111,-0.034423828125,-0.35986328125,-0.2869873046875,9.46044921875,0.7324218153953552,-0.2441406100988388
544133,-0.0361328125,-0.3482666015625,-0.2913818359375,8.97216796875,0.54931640625,0.0
544149,-0.0391845703125,-0.3468017578125,-0.306396484375,8.4228515625,0.6103515625,0.1831054538488388
544166,-0.0419921875,-0.3438720703125,-0.322998046875,8.1787109375,0.7324218153953552,0.0610351525247097
544183,-0.041015625,-0.3587646484375,-0.3306884765625,7.751464366912842,0.8544921278953552,0.2441406100988388
544216,-0.0521240234375,-0.4658203125,-0.426025390625,7.690429210662842,0.6103515625,0.9765624403953552
544233,-0.0638427734375,-0.515380859375,-0.482666015625,7.995604991912842,1.15966796875,0.4272460639476776
544249,-0.0654296875,-0.5205078125,-0.4810791015625,8.1787109375,1.4038084745407104,0.1831054538488388
544281,-0.0645751953125,-0.5474853515625,-0.4949951171875,8.85009765625,0.9155272841453552,0.9765624403953552
544302,-0.069580078125,-0.60009765625,-0.5323486328125,9.21630859375,0.8544921278953552,0.7934569716453552
544318,-0.071533203125,-0.6241455078125,-0.5599365234375,9.70458984375,0.7934569716453552,0.6103515625
544335,-0.0736083984375,-0.6358642578125,-0.5782470703125,10.009765625,0.7324218153953552,0.6103515625
544401,-0.0865478515625,-0.66015625,-0.626953125,10.925292015075684,-0.3662109076976776,1.220703125
544418,-0.0906982421875,-0.6864013671875,-0.676025390625,10.559081077575684,-0.2441406100988388,1.220703125
544438,-0.080322265625,-0.67138671875,-0.6617431640625,10.131834983825684,-0.3662109076976776,1.5258787870407104
544458,-0.08056640625,-0.69580078125,-0.675537109375,9.521484375,-0.9155272841453552,1.9531248807907104
544480,-0.0843505859375,-0.7093505859375,-0.7039794921875,8.30078125,-1.0986328125,1.5869139432907104
544496,-0.08349609375,-0.6827392578125,-0.7225341796875,7.629394054412842,-1.0986328125,1.6479490995407104
544513,-0.081298828125,-0.6722412109375,-0.7177734375,6.225585460662842,-0.7934569716453552,1.7089842557907104
544530,-0.070556640625,-0.62939453125,-0.6768798828125,4.5166015625,-1.0986328125,2.13623046875
544546,-0.0682373046875,-0.6549072265625,-0.6871337890625,3.723144292831421,-1.4038084745407104,2.44140625
544578,-0.0667724609375,-0.639404296875,-0.684814453125,0.8544921278953552,-1.4038084745407104,2.25830078125
544642,-0.0709228515625,-0.7166748046875,-0.7239990234375,-1.8310545682907104,-0.9155272841453552,1.7700194120407104
544658,-0.06982421875,-0.7105712890625,-0.70751953125,-2.13623046875,-0.7934569716453552,1.15966796875
544674,-0.072509765625,-0.7113037109375,-0.7147216796875,-2.38037109375,-0.7934569716453552,0.9765624403953552
544710,-0.073974609375,-0.7061767578125,-0.7056884765625,-2.38037109375,0.0,0.1831054538488388
544726,-0.0716552734375,-0.6976318359375,-0.6761474609375,-2.197265625,-0.2441406100988388,0.2441406100988388
544742,-0.0731201171875,-0.7132568359375,-0.681884765625,-2.01416015625,-0.3662109076976776,0.2441406100988388
544758,-0.0751953125,-0.73828125,-0.695556640625,-1.5258787870407104,-0.1831054538488388,-0.3662109076976776
544780,-0.07470703125,-0.71630859375,-0.682373046875,-1.220703125,0.1220703050494194,-0.6103515625
544796,-0.0733642578125,-0.709228515625,-0.66845703125,-1.0986328125,0.1220703050494194,-0.6713866591453552
544813,-0.0726318359375,-0.71142578125,-0.6668701171875,-0.6713866591453552,0.0,-0.6103515625
544830,-0.0728759765625,-0.7266845703125,-0.6683349609375,-0.1831054538488388,0.0610351525247097,-0.7934569716453552
544846,-0.07080078125,-0.721435546875,-0.657958984375,0.0610351525247097,0.1220703050494194,-0.9765624403953552
544879,-0.0750732421875,-0.7183837890625,-0.6710205078125,1.2817381620407104,-0.2441406100988388,-0.9765624403953552
544896,-0.0789794921875,-0.722900390625,-0.681884765625,1.8920897245407104,-0.0610351525247097,-1.0986328125
544912,-0.0787353515625,-0.71923828125,-0.6749267578125,2.197265625,0.0,-1.220703125
544944,-0.0726318359375,-0.7037353515625,-0.6619873046875,2.685546636581421,-0.3662109076976776,-1.03759765625
544960,-0.0740966796875,-0.70361328125,-0.66845703125,2.685546636581421,-0.6103515625,-0.9765624403953552
544976,-0.0775146484375,-0.7177734375,-0.6871337890625,2.624511480331421,-0.6713866591453552,-0.7934569716453552
544992,-0.0804443359375,-0.728271484375,-0.6978759765625,2.50244140625,-0.6713866591453552,-0.8544921278953552
545017,-0.0859375,-0.743408203125,-0.708740234375,2.3193359375,-0.3662109076976776,-1.3427733182907104
545033,-0.084228515625,-0.695068359375,-0.67626953125,1.8310545682907104,-0.30517578125,-1.5869139432907104
545050,-0.0850830078125,-0.6812744140625,-0.6715087890625,1.2817381620407104,-0.7934569716453552,-0.9155272841453552
545067,-0.088623046875,-0.70654296875,-0.6944580078125,1.03759765625,-0.7934569716453552,-0.9765624403953552
545084,-0.088134765625,-0.701171875,-0.694091796875,0.54931640625,-0.54931640625,-1.2817381620407104
545116,-0.0860595703125,-0.6748046875,-0.673583984375,-0.30517578125,-0.8544921278953552,-0.8544921278953552
545133,-0.087158203125,-0.674560546875,-0.6781005859375,-0.4272460639476776,-0.9155272841453552,-0.7324218153953552
545149,-0.0906982421875,-0.6690673828125,-0.681640625,-0.6713866591453552,-0.9155272841453552,-0.6713866591453552
545181,-0.084716796875,-0.656982421875,-0.6595458984375,-1.03759765625,-1.220703125,-0.0610351525247097
545202,-0.084716796875,-0.69775390625,-0.6868896484375,-1.03759765625,-1.4648436307907104,0.30517578125
545218,-0.0816650390625,-0.7232666015625,-0.6993408203125,-0.9155272841453552,-1.3427733182907104,0.0610351525247097
545235,-0.0784912109375,-0.7132568359375,-0.69140625,-0.4272460639476776,-1.15966796875,-0.2441406100988388
545252,-0.0784912109375,-0.70947265625,-0.6905517578125,0.0,-1.3427733182907104,-0.1831054538488388
545269,-0.080078125,-0.7061767578125,-0.6939697265625,0.3662109076976776,-1.3427733182907104,-0.1220703050494194
545299,-0.08056640625,-0.7117919921875,-0.69775390625,0.4882812201976776,-1.0986328125,-0.30517578125
545316,-0.0775146484375,-0.6895751953125,-0.6795654296875,0.4272460639476776,-1.0986328125,-0.1831054538488388
545332,-0.076171875,-0.6824951171875,-0.675048828125,0.30517578125,-1.15966796875,0.0
545364,-0.0770263671875,-0.676513671875,-0.6695556640625,0.0,-1.03759765625,0.0610351525247097
545380,-0.0777587890625,-0.68359375,-0.67041015625,-0.1220703050494194,-1.03759765625,0.30517578125
545396,-0.0762939453125,-0.7060546875,-0.6778564453125,-0.1220703050494194,-1.03759765625,0.3662109076976776
545412,-0.074951171875,-0.7135009765625,-0.681640625,0.0610351525247097,-1.03759765625,0.2441406100988388
545432,-0.0753173828125,-0.7239990234375,-0.6986083984375,0.4272460639476776,-0.7934569716453552,0.1220703050494194
545448,-0.077880859375,-0.726318359375,-0.7030029296875,0.7934569716453552,-0.54931640625,-0.0610351525247097
545464,-0.0802001953125,-0.724609375,-0.702392578125,0.9765624403953552,-0.4882812201976776,-0.0610351525247097
545480,-0.0821533203125,-0.733642578125,-0.7044677734375,1.4648436307907104,-0.3662109076976776,-0.1831054538488388
545496,-0.0777587890625,-0.7374267578125,-0.7060546875,1.7089842557907104,-0.2441406100988388,-0.30517578125
545512,-0.07568359375,-0.7325439453125,-0.705322265625,2.197265625,-0.1220703050494194,-0.54931640625
545544,-0.0770263671875,-0.722412109375,-0.7037353515625,2.868652105331421,0.1831054538488388,-0.6713866591453552
545560,-0.0772705078125,-0.7166748046875,-0.6944580078125,3.173827886581421,0.3662109076976776,-0.8544921278953552
545576,-0.0767822265625,-0.7056884765625,-0.68310546875,3.295898199081421,0.4272460639476776,-0.8544921278953552
545592,-0.076416015625,-0.7015380859375,-0.6776123046875,3.662109136581421,0.6103515625,-1.03759765625
545612,-0.0772705078125,-0.677978515625,-0.66357421875,3.662109136581421,0.6103515625,-1.15966796875
545628,-0.07861328125,-0.656494140625,-0.6556396484375,3.540038824081421,0.6103515625,-1.03759765625
545644,-0.0789794921875,-0.6458740234375,-0.6529541015625,3.417968511581421,0.6103515625,-0.9155272841453552
545660,-0.0823974609375,-0.6405029296875,-0.6536865234375,3.173827886581421,0.4882812201976776,-0.4882812201976776
545680,-0.0872802734375,-0.6685791015625,-0.671630859375,2.807616949081421,0.3662109076976776,-0.3662109076976776
545700,-0.089599609375,-0.685546875,-0.682861328125,2.38037109375,0.54931640625,-0.6103515625
545716,-0.08984375,-0.6666259765625,-0.677490234375,2.01416015625,0.6713866591453552,-0.6713866591453552
545733,-0.0894775390625,-0.6549072265625,-0.6729736328125,1.2817381620407104,0.7324218153953552,-0.54931640625
545774,-0.0869140625,-0.641357421875,-0.667724609375,-0.30517578125,0.6713866591453552,-0.1831054538488388
545790,-0.0853271484375,-0.6416015625,-0.662841796875,-0.6713866591453552,0.7934569716453552,-0.2441406100988388
545807,-0.083251953125,-0.63232421875,-0.654296875,-1.4648436307907104,0.9765624403953552,-0.3662109076976776
545840,-0.081298828125,-0.607666015625,-0.646728515625,-2.685546636581421,0.7324218153953552,0.0610351525247097
545856,-0.0819091796875,-0.6119384765625,-0.6488037109375,-3.601073980331421,0.7324218153953552,0.30517578125
545873,-0.0823974609375,-0.6209716796875,-0.6480712890625,-4.2724609375,0.7934569716453552,0.30517578125
545905,-0.086181640625,-0.62158203125,-0.6392822265625,-5.310058116912842,0.9765624403953552,0.1831054538488388
545921,-0.0836181640625,-0.593505859375,-0.61328125,-6.225585460662842,0.8544921278953552,0.4272460639476776
545937,-0.08203125,-0.5784912109375,-0.5963134765625,-6.835937023162842,0.6103515625,0.7324218153953552
545953,-0.08203125,-0.5804443359375,-0.596435546875,-7.934569835662842,0.0610351525247097,1.5869139432907104
545973,-0.0885009765625,-0.61328125,-0.617919921875,-8.60595703125,-0.4272460639476776,2.38037109375
545989,-0.0953369140625,-0.661376953125,-0.6436767578125,-8.85009765625,-0.3662109076976776,2.3193359375
546005,-0.0927734375,-0.6610107421875,-0.6353759765625,-8.97216796875,-0.30517578125,2.0751953125
546022,-0.0809326171875,-0.6085205078125,-0.5943603515625,-9.46044921875,-0.6103515625,2.50244140625
546043,-0.0733642578125,-0.6036376953125,-0.5870361328125,-9.82666015625,-0.9765624403953552,2.929687261581421
546059,-0.07373046875,-0.6488037109375,-0.6185302734375,-10.253905296325684,-1.4648436307907104,3.723144292831421
546076,-0.07470703125,-0.667724609375,-0.627197265625,-10.314940452575684,-1.4648436307907104,3.601073980331421
546093,-0.071044921875,-0.66943359375,-0.618408203125,-10.253905296325684,-1.3427733182907104,3.417968511581421
546109,-0.0648193359375,-0.6546630859375,-0.6080322265625,-10.070799827575684,-1.4038084745407104,3.234863042831421
546142,-0.06103515625,-0.640869140625,-0.5904541015625,-10.314940452575684,-1.4648436307907104,3.234863042831421
