tMillis,ax,ay,az,gx,gy,gz
855666,-0.0635986328125,-0.744384765625,-0.6435546875,0.8544921278953552,-0.2441406100988388,0.30517578125
855682,-0.0631103515625,-0.7431640625,-0.64306640625,0.7934569716453552,-0.30517578125,0.2441406100988388
855698,-0.0634765625,-0.7432861328125,-0.6451416015625,0.7934569716453552,-0.30517578125,0.30517578125
855715,-0.0634765625,-0.7431640625,-0.644287109375,0.7934569716453552,-0.30517578125,0.4272460639476776
855731,-0.0634765625,-0.744384765625,-0.643798828125,0.7934569716453552,-0.2441406100988388,0.3662109076976776
855763,-0.065185546875,-0.74267578125,-0.6427001953125,0.7324218153953552,-0.2441406100988388,0.30517578125
855784,-0.06396484375,-0.74169921875,-0.643310546875,0.7934569716453552,-0.2441406100988388,0.30517578125
855800,-0.0631103515625,-0.741455078125,-0.6419677734375,0.7934569716453552,-0.2441406100988388,0.2441406100988388
855817,-0.063720703125,-0.7442626953125,-0.6436767578125,0.7934569716453552,-0.2441406100988388,0.30517578125
855834,-0.0634765625,-0.7431640625,-0.642822265625,0.7324218153953552,-0.30517578125,0.30517578125
855851,-0.0640869140625,-0.7406005859375,-0.641357421875,0.6713866591453552,-0.2441406100988388,0.2441406100988388
855883,-0.0638427734375,-0.7447509765625,-0.6451416015625,0.7934569716453552,-0.2441406100988388,0.2441406100988388
855900,-0.0638427734375,-0.743408203125,-0.644287109375,0.7324218153953552,-0.2441406100988388,0.30517578125
855916,-0.064453125,-0.7410888671875,-0.6431884765625,0.6713866591453552,-0.2441406100988388,0.30517578125
855952,-0.063232421875,-0.745849609375,-0.646240234375,0.6713866591453552,-0.2441406100988388,0.2441406100988388
855968,-0.0667724609375,-0.749267578125,-0.648681640625,0.6713866591453552,-0.2441406100988388,0.30517578125
855984,-0.0667724609375,-0.7396240234375,-0.639892578125,0.6713866591453552,-0.2441406100988388,0.2441406100988388
856000,-0.0621337890625,-0.7374267578125,-0.6383056640625,0.6713866591453552,-0.2441406100988388,0.2441406100988388
856017,-0.060302734375,-0.7435302734375,-0.642822265625,0.7324218153953552,-0.1831054538488388,0.2441406100988388
856038,-0.063232421875,-0.7423095703125,-0.640869140625,0.7324218153953552,-0.2441406100988388,0.2441406100988388
856054,-0.06787109375,-0.744140625,-0.6446533203125,0.6713866591453552,-0.30517578125,0.2441406100988388
856071,-0.064208984375,-0.741455078125,-0.6441650390625,0.6103515625,-0.2441406100988388,0.30517578125
856088,-0.0616455078125,-0.7401123046875,-0.6414794921875,0.6713866591453552,-0.2441406100988388,0.30517578125
856121,-0.0654296875,-0.7415771484375,-0.6409912109375,0.6103515625,-0.30517578125,0.2441406100988388
856138,-0.0657958984375,-0.742431640625,-0.6424560546875,0.6103515625,-0.30517578125,0.30517578125
856154,-0.0640869140625,-0.74365234375,-0.6453857421875,0.6103515625,-0.30517578125,0.30517578125
856186,-0.0648193359375,-0.7462158203125,-0.6451416015625,0.6103515625,-0.2441406100988388,0.3662109076976776
856202,-0.0650634765625,-0.744384765625,-0.64208984375,0.6713866591453552,-0.2441406100988388,0.30517578125
856218,-0.06298828125,-0.740234375,-0.639892578125,0.7324218153953552,-0.30517578125,0.30517578125
856234,-0.062744140625,-0.7435302734375,-0.643310546875,0.6713866591453552,-0.2441406100988388,0.30517578125
856259,-0.0628662109375,-0.74169921875,-0.6424560546875,0.6713866591453552,-0.2441406100988388,0.30517578125
856275,-0.0653076171875,-0.7452392578125,-0.645263671875,0.7324218153953552,-0.30517578125,0.3662109076976776
856292,-0.0648193359375,-0.7415771484375,-0.641357421875,0.6713866591453552,-0.2441406100988388,0.30517578125
856309,-0.0645751953125,-0.74462890625,-0.6441650390625,0.6713866591453552,-0.30517578125,0.30517578125
856326,-0.0621337890625,-0.7421875,-0.6444091796875,0.7324218153953552,-0.30517578125,0.30517578125
856359,-0.0655517578125,-0.74658203125,-0.64453125,0.7324218153953552,-0.30517578125,0.30517578125
856376,-0.0634765625,-0.7440185546875,-0.64306640625,0.7324218153953552,-0.30517578125,0.30517578125
856417,-0.0634765625,-0.7392578125,-0.64208984375,0.7934569716453552,-0.2441406100988388,0.30517578125
856434,-0.0631103515625,-0.7371826171875,-0.639404296875,0.7934569716453552,-0.2441406100988388,0.30517578125
856450,-0.065185546875,-0.7474365234375,-0.6473388671875,0.7324218153953552,-0.2441406100988388,0.30517578125
856481,-0.064208984375,-0.7406005859375,-0.6402587890625,0.7934569716453552,-0.30517578125,0.30517578125
856497,-0.0634765625,-0.745849609375,-0.6451416015625,0.7934569716453552,-0.30517578125,0.3662109076976776
856514,-0.063232421875,-0.7403564453125,-0.6417236328125,0.8544921278953552,-0.30517578125,0.3662109076976776
856546,-0.0643310546875,-0.7447509765625,-0.644775390625,0.7324218153953552,-0.30517578125,0.30517578125
856562,-0.063232421875,-0.7403564453125,-0.6414794921875,0.7934569716453552,-0.30517578125,0.3662109076976776
856578,-0.064453125,-0.7459716796875,-0.645751953125,0.8544921278953552,-0.30517578125,0.3662109076976776
856594,-0.0645751953125,-0.7454833984375,-0.645751953125,0.8544921278953552,-0.30517578125,0.30517578125
856614,-0.06396484375,-0.74169921875,-0.642578125,0.8544921278953552,-0.30517578125,0.30517578125
856630,-0.0640869140625,-0.7457275390625,-0.6456298828125,0.7934569716453552,-0.30517578125,0.30517578125
856646,-0.0633544921875,-0.7435302734375,-0.6446533203125,0.7934569716453552,-0.2441406100988388,0.2441406100988388
856662,-0.0634765625,-0.7418212890625,-0.6422119140625,0.7324218153953552,-0.2441406100988388,0.2441406100988388
856684,-0.0634765625,-0.744140625,-0.64501953125,0.7324218153953552,-0.2441406100988388,0.2441406100988388
856700,-0.063232421875,-0.7393798828125,-0.6397705078125,0.7934569716453552,-0.2441406100988388,0.30517578125
856717,-0.0640869140625,-0.741943359375,-0.642333984375,0.7324218153953552,-0.2441406100988388,0.30517578125
856734,-0.063232421875,-0.740966796875,-0.6455078125,0.7934569716453552,-0.2441406100988388,0.30517578125
856750,-0.0640869140625,-0.7398681640625,-0.64208984375,0.7934569716453552,-0.2441406100988388,0.30517578125
856784,-0.0625,-0.7425537109375,-0.643798828125,0.6713866591453552,-0.30517578125,0.30517578125
856800,-0.062744140625,-0.7418212890625,-0.643310546875,0.6713866591453552,-0.2441406100988388,0.30517578125
856816,-0.06396484375,-0.7430419921875,-0.6451416015625,0.6103515625,-0.1831054538488388,0.30517578125
856852,-0.0648193359375,-0.7437744140625,-0.6439208984375,0.6713866591453552,-0.30517578125,0.30517578125
856874,-0.06396484375,-0.7432861328125,-0.6441650390625,0.7324218153953552,-0.2441406100988388,0.30517578125
856890,-0.0640869140625,-0.74267578125,-0.6436767578125,0.7324218153953552,-0.1831054538488388,0.2441406100988388
856911,-0.064208984375,-0.7423095703125,-0.642578125,0.6713866591453552,-0.1220703050494194,0.2441406100988388
856928,-0.0633544921875,-0.7391357421875,-0.6402587890625,0.6103515625,-0.1831054538488388,0.30517578125
856944,-0.0638427734375,-0.7432861328125,-0.643310546875,0.6103515625,-0.2441406100988388,0.30517578125
856961,-0.0650634765625,-0.7445068359375,-0.645263671875,0.6103515625,-0.1831054538488388,0.2441406100988388
856978,-0.065185546875,-0.74365234375,-0.6446533203125,0.6103515625,-0.1831054538488388,0.2441406100988388
856994,-0.0631103515625,-0.7420654296875,-0.6429443359375,0.6103515625,-0.1831054538488388,0.30517578125
857024,-0.064453125,-0.741943359375,-0.6427001953125,0.6103515625,-0.30517578125,0.2441406100988388
857045,-0.06494140625,-0.742431640625,-0.6427001953125,0.6103515625,-0.2441406100988388,0.3662109076976776
857062,-0.064208984375,-0.7415771484375,-0.642333984375,0.6103515625,-0.2441406100988388,0.3662109076976776
857079,-0.0643310546875,-0.7420654296875,-0.64208984375,0.54931640625,-0.30517578125,0.30517578125
857144,-0.063720703125,-0.7440185546875,-0.642333984375,0.6713866591453552,-0.30517578125,0.30517578125
857165,-0.063720703125,-0.7431640625,-0.6427001953125,0.6713866591453552,-0.2441406100988388,0.30517578125
857181,-0.0645751953125,-0.7425537109375,-0.6417236328125,0.6713866591453552,-0.30517578125,0.30517578125
857198,-0.065185546875,-0.7447509765625,-0.6439208984375,0.6713866591453552,-0.30517578125,0.3662109076976776
857215,-0.064208984375,-0.7506103515625,-0.64892578125,0.6713866591453552,-0.2441406100988388,0.30517578125
857231,-0.0635986328125,-0.740234375,-0.640380859375,0.6713866591453552,-0.2441406100988388,0.3662109076976776
857265,-0.0643310546875,-0.741943359375,-0.642578125,0.7324218153953552,-0.30517578125,0.30517578125
857281,-0.0634765625,-0.741943359375,-0.642578125,0.8544921278953552,-0.2441406100988388,0.3662109076976776
857297,-0.063720703125,-0.741455078125,-0.6416015625,0.7934569716453552,-0.2441406100988388,0.3662109076976776
857313,-0.0640869140625,-0.7418212890625,-0.6409912109375,0.7324218153953552,-0.30517578125,0.30517578125
857333,-0.06396484375,-0.7447509765625,-0.644287109375,0.7934569716453552,-0.30517578125,0.3662109076976776
857355,-0.0638427734375,-0.7430419921875,-0.6427001953125,0.7934569716453552,-0.3662109076976776,0.3662109076976776
857371,-0.0643310546875,-0.741455078125,-0.64111328125,0.7934569716453552,-0.30517578125,0.3662109076976776
857388,-0.063720703125,-0.7435302734375,-0.6429443359375,0.7934569716453552,-0.30517578125,0.3662109076976776
857405,-0.063232421875,-0.7459716796875,-0.646240234375,0.7324218153953552,-0.2441406100988388,0.30517578125
857438,-0.064453125,-0.7423095703125,-0.6439208984375,0.7934569716453552,-0.2441406100988388,0.30517578125
857455,-0.065185546875,-0.744140625,-0.6444091796875,0.7934569716453552,-0.2441406100988388,0.30517578125
857471,-0.0638427734375,-0.7392578125,-0.6414794921875,0.7934569716453552,-0.30517578125,0.2441406100988388
857503,-0.0645751953125,-0.7431640625,-0.64306640625,0.7934569716453552,-0.30517578125,0.30517578125
857568,-0.0626220703125,-0.741455078125,-0.643310546875,0.7934569716453552,-0.30517578125,0.3662109076976776
857589,-0.0643310546875,-0.7431640625,-0.6441650390625,0.7934569716453552,-0.30517578125,0.30517578125
857605,-0.0628662109375,-0.7401123046875,-0.642333984375,0.7324218153953552,-0.30517578125,0.30517578125
857622,-0.061279296875,-0.7401123046875,-0.6414794921875,0.6713866591453552,-0.2441406100988388,0.2441406100988388
857639,-0.062255859375,-0.742919921875,-0.6435546875,0.7324218153953552,-0.2441406100988388,0.2441406100988388
857655,-0.0665283203125,-0.759033203125,-0.656982421875,0.7934569716453552,-0.30517578125,0.30517578125
857672,-0.0665283203125,-0.7315673828125,-0.6339111328125,0.6713866591453552,-0.30517578125,0.3662109076976776
857693,-0.061279296875,-0.740234375,-0.6409912109375,0.7324218153953552,-0.2441406100988388,0.2441406100988388
857709,-0.060546875,-0.747314453125,-0.64697265625,0.7324218153953552,-0.1831054538488388,0.2441406100988388
857725,-0.0655517578125,-0.74169921875,-0.642578125,0.6713866591453552,-0.2441406100988388,0.30517578125
857741,-0.06689453125,-0.7410888671875,-0.644287109375,0.6713866591453552,-0.2441406100988388,0.3662109076976776
857757,-0.062744140625,-0.74267578125,-0.6453857421875,0.6103515625,-0.1831054538488388,0.30517578125
857773,-0.061767578125,-0.7425537109375,-0.6439208984375,0.6103515625,-0.2441406100988388,0.2441406100988388
857805,-0.0655517578125,-0.7430419921875,-0.6435546875,0.7324218153953552,-0.1831054538488388,0.3662109076976776
857821,-0.0634765625,-0.7430419921875,-0.6444091796875,0.6713866591453552,-0.2441406100988388,0.30517578125
857837,-0.0628662109375,-0.7427978515625,-0.64453125,0.6713866591453552,-0.30517578125,0.30517578125
857853,-0.0631103515625,-0.7396240234375,-0.6409912109375,0.6713866591453552,-0.2441406100988388,0.30517578125
857873,-0.0648193359375,-0.7445068359375,-0.6434326171875,0.6713866591453552,-0.2441406100988388,0.30517578125
857889,-0.0643310546875,-0.7451171875,-0.644775390625,0.6103515625,-0.2441406100988388,0.2441406100988388
857905,-0.064453125,-0.7425537109375,-0.6431884765625,0.6713866591453552,-0.30517578125,0.2441406100988388
857924,-0.0635986328125,-0.7412109375,-0.643798828125,0.6103515625,-0.2441406100988388,0.30517578125
857979,-0.064208984375,-0.744140625,-0.6444091796875,0.6713866591453552,-0.30517578125,0.2441406100988388
857996,-0.063720703125,-0.742431640625,-0.6446533203125,0.7324218153953552,-0.2441406100988388,0.30517578125
858012,-0.06396484375,-0.7420654296875,-0.6436767578125,0.7324218153953552,-0.2441406100988388,0.3662109076976776
858045,-0.0645751953125,-0.7431640625,-0.642822265625,0.7934569716453552,-0.2441406100988388,0.30517578125
858061,-0.0643310546875,-0.744873046875,-0.6427001953125,0.7934569716453552,-0.2441406100988388,0.30517578125
858077,-0.063232421875,-0.7431640625,-0.6431884765625,0.7324218153953552,-0.2441406100988388,0.2441406100988388
858093,-0.0631103515625,-0.740966796875,-0.642578125,0.7324218153953552,-0.2441406100988388,0.30517578125
858113,-0.065185546875,-0.7431640625,-0.6427001953125,0.7324218153953552,-0.2441406100988388,0.30517578125
858135,-0.0650634765625,-0.7430419921875,-0.642578125,0.6713866591453552,-0.2441406100988388,0.30517578125
858151,-0.064208984375,-0.741943359375,-0.6419677734375,0.7324218153953552,-0.2441406100988388,0.30517578125
858168,-0.0645751953125,-0.743408203125,-0.6451416015625,0.7324218153953552,-0.30517578125,0.30517578125
858185,-0.0640869140625,-0.7425537109375,-0.6434326171875,0.7934569716453552,-0.30517578125,0.3662109076976776
858218,-0.065185546875,-0.741943359375,-0.6419677734375,0.7324218153953552,-0.2441406100988388,0.30517578125
858235,-0.06494140625,-0.7430419921875,-0.6439208984375,0.7934569716453552,-0.30517578125,0.3662109076976776
858251,-0.06494140625,-0.7437744140625,-0.644287109375,0.8544921278953552,-0.3662109076976776,0.3662109076976776
858283,-0.0631103515625,-0.7421875,-0.6422119140625,0.7324218153953552,-0.30517578125,0.2441406100988388
858347,-0.0640869140625,-0.743408203125,-0.6446533203125,0.7324218153953552,-0.2441406100988388,0.3662109076976776
858363,-0.064453125,-0.7420654296875,-0.6434326171875,0.6713866591453552,-0.2441406100988388,0.3662109076976776
858379,-0.0654296875,-0.7410888671875,-0.64208984375,0.7324218153953552,-0.30517578125,0.3662109076976776
858395,-0.0640869140625,-0.74267578125,-0.6435546875,0.7324218153953552,-0.2441406100988388,0.30517578125
858415,-0.0625,-0.743896484375,-0.6429443359375,0.6713866591453552,-0.2441406100988388,0.30517578125
858431,-0.0633544921875,-0.7454833984375,-0.643798828125,0.7324218153953552,-0.2441406100988388,0.30517578125
858447,-0.066162109375,-0.7406005859375,-0.6402587890625,0.6713866591453552,-0.2441406100988388,0.2441406100988388
858463,-0.0650634765625,-0.7425537109375,-0.643798828125,0.6713866591453552,-0.2441406100988388,0.2441406100988388
858479,-0.064208984375,-0.7467041015625,-0.6466064453125,0.6713866591453552,-0.2441406100988388,0.2441406100988388
858495,-0.0625,-0.7427978515625,-0.6436767578125,0.7934569716453552,-0.30517578125,0.3662109076976776
858528,-0.066162109375,-0.7427978515625,-0.6435546875,0.6713866591453552,-0.2441406100988388,0.30517578125
858549,-0.0643310546875,-0.7420654296875,-0.64208984375,0.6713866591453552,-0.30517578125,0.30517578125
858565,-0.0640869140625,-0.7462158203125,-0.6473388671875,0.6103515625,-0.30517578125,0.2441406100988388
858582,-0.0645751953125,-0.741943359375,-0.64453125,0.7324218153953552,-0.2441406100988388,0.30517578125
858599,-0.0657958984375,-0.74072265625,-0.6407470703125,0.7324218153953552,-0.2441406100988388,0.30517578125
858615,-0.0631103515625,-0.74560546875,-0.6456298828125,0.6103515625,-0.2441406100988388,0.30517578125
858632,-0.061767578125,-0.7403564453125,-0.6416015625,0.6103515625,-0.1831054538488388,0.2441406100988388
858699,-0.06494140625,-0.7470703125,-0.6478271484375,0.6103515625,-0.1831054538488388,0.2441406100988388
858721,-0.063232421875,-0.738525390625,-0.6402587890625,0.7324218153953552,-0.30517578125,0.30517578125
858738,-0.0655517578125,-0.746826171875,-0.6458740234375,0.7324218153953552,-0.3662109076976776,0.30517578125
858755,-0.06494140625,-0.7469482421875,-0.6473388671875,0.6713866591453552,-0.30517578125,0.30517578125
858771,-0.0623779296875,-0.737060546875,-0.638671875,0.6713866591453552,-0.30517578125,0.30517578125
858788,-0.0648193359375,-0.746337890625,-0.6458740234375,0.6713866591453552,-0.2441406100988388,0.3662109076976776
858821,-0.064208984375,-0.7410888671875,-0.641845703125,0.7324218153953552,-0.2441406100988388,0.3662109076976776
858838,-0.0648193359375,-0.744140625,-0.6455078125,0.6713866591453552,-0.2441406100988388,0.3662109076976776
858859,-0.063232421875,-0.740234375,-0.6387939453125,0.7324218153953552,-0.2441406100988388,0.30517578125
858875,-0.0653076171875,-0.7471923828125,-0.646728515625,0.6713866591453552,-0.2441406100988388,0.30517578125
858942,-0.0631103515625,-0.742431640625,-0.642822265625,0.7324218153953552,-0.2441406100988388,0.30517578125
858958,-0.0643310546875,-0.744140625,-0.6431884765625,0.7324218153953552,-0.3662109076976776,0.3662109076976776
858975,-0.064453125,-0.7431640625,-0.6441650390625,0.6713866591453552,-0.3662109076976776,0.3662109076976776
859007,-0.0648193359375,-0.7431640625,-0.6456298828125,0.7324218153953552,-0.2441406100988388,0.30517578125
859023,-0.06494140625,-0.743896484375,-0.6466064453125,0.7324218153953552,-0.2441406100988388,0.2441406100988388
859039,-0.06396484375,-0.7401123046875,-0.6417236328125,0.7324218153953552,-0.30517578125,0.30517578125
859055,-0.064208984375,-0.7440185546875,-0.6446533203125,0.7324218153953552,-0.30517578125,0.30517578125
859074,-0.0631103515625,-0.7425537109375,-0.644287109375,0.6713866591453552,-0.30517578125,0.3662109076976776
859095,-0.0625,-0.7415771484375,-0.644775390625,0.7324218153953552,-0.30517578125,0.30517578125
859112,-0.0654296875,-0.741943359375,-0.644287109375,0.6713866591453552,-0.2441406100988388,0.2441406100988388
859129,-0.0645751953125,-0.740966796875,-0.6419677734375,0.6713866591453552,-0.2441406100988388,0.30517578125
859145,-0.063232421875,-0.7427978515625,-0.64453125,0.7324218153953552,-0.2441406100988388,0.3662109076976776
859179,-0.0653076171875,-0.741943359375,-0.64208984375,0.7934569716453552,-0.30517578125,0.2441406100988388
859196,-0.0643310546875,-0.7421875,-0.6427001953125,0.7324218153953552,-0.30517578125,0.2441406100988388
859217,-0.06396484375,-0.741943359375,-0.6434326171875,0.6713866591453552,-0.2441406100988388,0.2441406100988388
859233,-0.063720703125,-0.7430419921875,-0.643310546875,0.6713866591453552,-0.2441406100988388,0.30517578125
859300,-0.0635986328125,-0.7430419921875,-0.64306640625,0.6713866591453552,-0.30517578125,0.30517578125
859317,-0.0640869140625,-0.7420654296875,-0.641845703125,0.7324218153953552,-0.2441406100988388,0.30517578125
859334,-0.06396484375,-0.7418212890625,-0.6417236328125,0.7324218153953552,-0.2441406100988388,0.3662109076976776
859362,-0.06494140625,-0.7440185546875,-0.6441650390625,0.7324218153953552,-0.2441406100988388,0.30517578125
859384,-0.064697265625,-0.7431640625,-0.6429443359375,0.6713866591453552,-0.2441406100988388,0.3662109076976776
859404,-0.064208984375,-0.741943359375,-0.6431884765625,0.6713866591453552,-0.2441406100988388,0.3662109076976776
859422,-0.06298828125,-0.7420654296875,-0.6431884765625,0.7324218153953552,-0.2441406100988388,0.30517578125
859439,-0.06298828125,-0.743896484375,-0.64453125,0.7324218153953552,-0.30517578125,0.30517578125
859459,-0.063720703125,-0.7431640625,-0.6448974609375,0.6713866591453552,-0.30517578125,0.30517578125
859476,-0.063720703125,-0.74169921875,-0.6424560546875,0.6713866591453552,-0.2441406100988388,0.30517578125
859492,-0.06396484375,-0.7431640625,-0.6439208984375,0.6713866591453552,-0.2441406100988388,0.30517578125
859509,-0.064208984375,-0.742431640625,-0.64306640625,0.6713866591453552,-0.30517578125,0.3662109076976776
859542,-0.065673828125,-0.7432861328125,-0.6429443359375,0.7324218153953552,-0.30517578125,0.30517578125
859558,-0.0643310546875,-0.7423095703125,-0.64404296875,0.7324218153953552,-0.3662109076976776,0.30517578125
859574,-0.0640869140625,-0.7421875,-0.6435546875,0.7324218153953552,-0.30517578125,0.30517578125
859605,-0.064208984375,-0.7427978515625,-0.6431884765625,0.7324218153953552,-0.30517578125,0.3662109076976776
859660,-0.06298828125,-0.743408203125,-0.6435546875,0.7324218153953552,-0.2441406100988388,0.30517578125
859677,-0.062744140625,-0.7432861328125,-0.6427001953125,0.7324218153953552,-0.2441406100988388,0.30517578125
859693,-0.064208984375,-0.7425537109375,-0.643310546875,0.6713866591453552,-0.2441406100988388,0.2441406100988388
859727,-0.064208984375,-0.7420654296875,-0.64306640625,0.7324218153953552,-0.2441406100988388,0.3662109076976776
859743,-0.0645751953125,-0.74267578125,-0.642333984375,0.6713866591453552,-0.2441406100988388,0.3662109076976776
859759,-0.0645751953125,-0.7425537109375,-0.6427001953125,0.7324218153953552,-0.2441406100988388,0.3662109076976776
859775,-0.064697265625,-0.7431640625,-0.644287109375,0.7324218153953552,-0.2441406100988388,0.30517578125
859829,-0.0633544921875,-0.7420654296875,-0.642333984375,0.7324218153953552,-0.2441406100988388,0.30517578125
859855,-0.064697265625,-0.7432861328125,-0.644287109375,0.7324218153953552,-0.2441406100988388,0.30517578125
859872,-0.064208984375,-0.742431640625,-0.6448974609375,0.7324218153953552,-0.2441406100988388,0.30517578125
859901,-0.064697265625,-0.7430419921875,-0.642822265625,0.7934569716453552,-0.30517578125,0.4272460639476776
859918,-0.0645751953125,-0.742919921875,-0.6422119140625,0.7324218153953552,-0.30517578125,0.3662109076976776
859934,-0.0640869140625,-0.742431640625,-0.6422119140625,0.6713866591453552,-0.30517578125,0.2441406100988388
859962,-0.0635986328125,-0.7435302734375,-0.645263671875,0.6713866591453552,-0.2441406100988388,0.30517578125
859984,-0.0634765625,-0.7420654296875,-0.642822265625,0.7324218153953552,-0.2441406100988388,0.2441406100988388
860000,-0.064697265625,-0.742431640625,-0.6446533203125,0.7934569716453552,-0.2441406100988388,0.2441406100988388
860017,-0.064208984375,-0.742431640625,-0.64453125,0.7934569716453552,-0.30517578125,0.30517578125
860034,-0.063720703125,-0.7425537109375,-0.642578125,0.7324218153953552,-0.30517578125,0.30517578125
860050,-0.0634765625,-0.7430419921875,-0.6435546875,0.7324218153953552,-0.30517578125,0.30517578125
860082,-0.0640869140625,-0.742431640625,-0.643798828125,0.7934569716453552,-0.1831054538488388,0.2441406100988388
860104,-0.06396484375,-0.74267578125,-0.6439208984375,0.7324218153953552,-0.1831054538488388,0.30517578125
860120,-0.0640869140625,-0.7440185546875,-0.64306640625,0.6713866591453552,-0.2441406100988388,0.3662109076976776
860137,-0.064697265625,-0.7431640625,-0.6431884765625,0.7324218153953552,-0.3662109076976776,0.30517578125
860154,-0.0638427734375,-0.7410888671875,-0.6435546875,0.7324218153953552,-0.3662109076976776,0.30517578125
860171,-0.064453125,-0.7410888671875,-0.642333984375,0.6713866591453552,-0.2441406100988388,0.3662109076976776
860202,-0.064208984375,-0.7425537109375,-0.643310546875,0.7324218153953552,-0.30517578125,0.2441406100988388
860224,-0.0640869140625,-0.74365234375,-0.6436767578125,0.7324218153953552,-0.30517578125,0.3662109076976776
860240,-0.06494140625,-0.7415771484375,-0.64208984375,0.7324218153953552,-0.30517578125,0.3662109076976776
860257,-0.0648193359375,-0.7418212890625,-0.642578125,0.6713866591453552,-0.30517578125,0.30517578125
860274,-0.06396484375,-0.7430419921875,-0.6435546875,0.7324218153953552,-0.30517578125,0.3662109076976776
860291,-0.063720703125,-0.7430419921875,-0.6439208984375,0.7324218153953552,-0.30517578125,0.30517578125
860321,-0.064453125,-0.7415771484375,-0.6436767578125,0.7324218153953552,-0.30517578125,0.30517578125
860338,-0.06494140625,-0.7418212890625,-0.641845703125,0.7934569716453552,-0.30517578125,0.30517578125
860354,-0.0645751953125,-0.7430419921875,-0.642578125,0.7934569716453552,-0.30517578125,0.30517578125
860382,-0.063720703125,-0.743896484375,-0.642822265625,0.7934569716453552,-0.1831054538488388,0.30517578125
860404,-0.063232421875,-0.7442626953125,-0.6435546875,0.7324218153953552,-0.2441406100988388,0.30517578125
860420,-0.0628662109375,-0.740966796875,-0.64404296875,0.7324218153953552,-0.30517578125,0.30517578125
860437,-0.064453125,-0.7425537109375,-0.644287109375,0.7324218153953552,-0.2441406100988388,0.30517578125
860454,-0.064697265625,-0.7421875,-0.6436767578125,0.7324218153953552,-0.2441406100988388,0.30517578125
860470,-0.0640869140625,-0.7435302734375,-0.6448974609375,0.7324218153953552,-0.30517578125,0.3662109076976776
860504,-0.0643310546875,-0.7423095703125,-0.6424560546875,0.7324218153953552,-0.2441406100988388,0.2441406100988388
860568,-0.0643310546875,-0.7437744140625,-0.6446533203125,0.7324218153953552,-0.2441406100988388,0.30517578125
860584,-0.0634765625,-0.744384765625,-0.64453125,0.7324218153953552,-0.2441406100988388,0.2441406100988388
860600,-0.065673828125,-0.7413330078125,-0.64208984375,0.7324218153953552,-0.2441406100988388,0.2441406100988388
860616,-0.065673828125,-0.74267578125,-0.64306640625,0.7324218153953552,-0.2441406100988388,0.3662109076976776
860636,-0.0634765625,-0.7445068359375,-0.64404296875,0.7324218153953552,-0.30517578125,0.3662109076976776
860657,-0.0618896484375,-0.7420654296875,-0.64208984375,0.7934569716453552,-0.30517578125,0.2441406100988388
860673,-0.0635986328125,-0.7432861328125,-0.6441650390625,0.7934569716453552,-0.30517578125,0.30517578125
860690,-0.0655517578125,-0.7432861328125,-0.64501953125,0.6713866591453552,-0.30517578125,0.3662109076976776
860707,-0.0640869140625,-0.74072265625,-0.64306640625,0.7324218153953552,-0.30517578125,0.2441406100988388
860740,-0.062255859375,-0.7423095703125,-0.6435546875,0.6713866591453552,-0.2441406100988388,0.30517578125
860761,-0.0667724609375,-0.743896484375,-0.6429443359375,0.6713866591453552,-0.30517578125,0.30517578125
860781,-0.0626220703125,-0.7418212890625,-0.6427001953125,0.6713866591453552,-0.2441406100988388,0.2441406100988388
860797,-0.0621337890625,-0.74169921875,-0.6434326171875,0.6713866591453552,-0.30517578125,0.30517578125
860819,-0.0650634765625,-0.742431640625,-0.6441650390625,0.7324218153953552,-0.30517578125,0.30517578125
860839,-0.065185546875,-0.7401123046875,-0.6407470703125,0.7324218153953552,-0.30517578125,0.3662109076976776
860855,-0.0640869140625,-0.7452392578125,-0.6446533203125,0.6713866591453552,-0.30517578125,0.30517578125
860925,-0.0640869140625,-0.7420654296875,-0.6439208984375,0.6713866591453552,-0.30517578125,0.30517578125
860941,-0.0635986328125,-0.7432861328125,-0.64453125,0.7324218153953552,-0.30517578125,0.30517578125
860958,-0.0628662109375,-0.7398681640625,-0.64013671875,0.7934569716453552,-0.4272460639476776,0.3662109076976776
860974,-0.0657958984375,-0.7454833984375,-0.6444091796875,0.6713866591453552,-0.30517578125,0.3662109076976776
860994,-0.063232421875,-0.740478515625,-0.6429443359375,0.7324218153953552,-0.2441406100988388,0.30517578125
861016,-0.0625,-0.7386474609375,-0.6405029296875,0.7934569716453552,-0.30517578125,0.3662109076976776
861032,-0.0655517578125,-0.7471923828125,-0.6470947265625,0.7324218153953552,-0.30517578125,0.30517578125
861049,-0.063232421875,-0.738525390625,-0.6397705078125,0.7324218153953552,-0.30517578125,0.30517578125
861066,-0.0645751953125,-0.7470703125,-0.645263671875,0.6713866591453552,-0.30517578125,0.30517578125
861099,-0.0635986328125,-0.740966796875,-0.642578125,0.7324218153953552,-0.30517578125,0.3662109076976776
861116,-0.06494140625,-0.7451171875,-0.6463623046875,0.6713866591453552,-0.30517578125,0.30517578125
861132,-0.0633544921875,-0.7406005859375,-0.642333984375,0.7324218153953552,-0.30517578125,0.30517578125
861164,-0.0645751953125,-0.7454833984375,-0.645751953125,0.7324218153953552,-0.30517578125,0.30517578125
861229,-0.062255859375,-0.7418212890625,-0.6417236328125,0.7934569716453552,-0.30517578125,0.3662109076976776
861250,-0.0648193359375,-0.744140625,-0.6451416015625,0.7934569716453552,-0.30517578125,0.3662109076976776
861266,-0.0650634765625,-0.741455078125,-0.642822265625,0.7934569716453552,-0.30517578125,0.30517578125
861279,-0.063232421875,-0.740234375,-0.641357421875,0.7934569716453552,-0.30517578125,0.3662109076976776
861296,-0.0626220703125,-0.7431640625,-0.645263671875,0.7324218153953552,-0.30517578125,0.30517578125
861312,-0.0638427734375,-0.7427978515625,-0.645751953125,0.7324218153953552,-0.2441406100988388,0.30517578125
861342,-0.0638427734375,-0.7418212890625,-0.6436767578125,0.7324218153953552,-0.2441406100988388,0.30517578125
861358,-0.0621337890625,-0.744140625,-0.6448974609375,0.7324218153953552,-0.30517578125,0.2441406100988388
861374,-0.062255859375,-0.742919921875,-0.64306640625,0.7324218153953552,-0.2441406100988388,0.2441406100988388
861402,-0.065185546875,-0.741455078125,-0.6429443359375,0.6713866591453552,-0.2441406100988388,0.2441406100988388
861424,-0.06396484375,-0.7421875,-0.6435546875,0.7324218153953552,-0.30517578125,0.30517578125
861440,-0.061767578125,-0.74365234375,-0.64453125,0.7324218153953552,-0.2441406100988388,0.30517578125
861457,-0.0638427734375,-0.742431640625,-0.6434326171875,0.7324218153953552,-0.2441406100988388,0.30517578125
861522,-0.06396484375,-0.741943359375,-0.64306640625,0.6713866591453552,-0.30517578125,0.30517578125
861595,-0.0638427734375,-0.74365234375,-0.642822265625,0.6713866591453552,-0.30517578125,0.2441406100988388
861612,-0.0640869140625,-0.7427978515625,-0.6424560546875,0.6713866591453552,-0.2441406100988388,0.2441406100988388
861645,-0.063232421875,-0.7427978515625,-0.6441650390625,0.7324218153953552,-0.2441406100988388,0.3662109076976776
861662,-0.063232421875,-0.741943359375,-0.6441650390625,0.6713866591453552,-0.3662109076976776,0.30517578125
861678,-0.0645751953125,-0.741943359375,-0.6435546875,0.6713866591453552,-0.2441406100988388,0.30517578125
861695,-0.06396484375,-0.7427978515625,-0.644287109375,0.6713866591453552,-0.1831054538488388,0.3662109076976776
861749,-0.0633544921875,-0.7425537109375,-0.64404296875,0.7324218153953552,-0.30517578125,0.2441406100988388
861775,-0.0643310546875,-0.7420654296875,-0.6436767578125,0.6103515625,-0.2441406100988388,0.2441406100988388
861792,-0.063232421875,-0.7420654296875,-0.643798828125,0.6713866591453552,-0.30517578125,0.30517578125
861825,-0.064453125,-0.742431640625,-0.643798828125,0.7324218153953552,-0.30517578125,0.3662109076976776
861842,-0.064453125,-0.74267578125,-0.6435546875,0.7324218153953552,-0.30517578125,0.3662109076976776
861858,-0.063232421875,-0.7427978515625,-0.6434326171875,0.7324218153953552,-0.2441406100988388,0.30517578125
861874,-0.0635986328125,-0.74267578125,-0.643310546875,0.7324218153953552,-0.2441406100988388,0.2441406100988388
861895,-0.0645751953125,-0.7427978515625,-0.643310546875,0.6713866591453552,-0.2441406100988388,0.30517578125
861911,-0.064453125,-0.741943359375,-0.6434326171875,0.6713866591453552,-0.2441406100988388,0.2441406100988388
861927,-0.063720703125,-0.7420654296875,-0.6435546875,0.7324218153953552,-0.30517578125,0.30517578125
861943,-0.0640869140625,-0.7415771484375,-0.64306640625,0.7324218153953552,-0.2441406100988388,0.3662109076976776
861959,-0.064208984375,-0.7427978515625,-0.642578125,0.7324218153953552,-0.2441406100988388,0.30517578125
861975,-0.06396484375,-0.74267578125,-0.6419677734375,0.7324218153953552,-0.2441406100988388,0.30517578125
862007,-0.0643310546875,-0.7430419921875,-0.6436767578125,0.7324218153953552,-0.2441406100988388,0.2441406100988388
862023,-0.064453125,-0.7425537109375,-0.6448974609375,0.7324218153953552,-0.2441406100988388,0.30517578125
862039,-0.0640869140625,-0.7421875,-0.6441650390625,0.7324218153953552,-0.2441406100988388,0.3662109076976776
862055,-0.0633544921875,-0.7420654296875,-0.6436767578125,0.7324218153953552,-0.30517578125,0.30517578125
862075,-0.0625,-0.743408203125,-0.6441650390625,0.6713866591453552,-0.30517578125,0.2441406100988388
862091,-0.0631103515625,-0.7432861328125,-0.6435546875,0.6713866591453552,-0.30517578125,0.3662109076976776
862107,-0.0654296875,-0.7427978515625,-0.643310546875,0.7324218153953552,-0.2441406100988388,0.3662109076976776
862123,-0.0643310546875,-0.7420654296875,-0.6429443359375,0.7934569716453552,-0.2441406100988388,0.3662109076976776
862139,-0.0635986328125,-0.7418212890625,-0.642333984375,0.7324218153953552,-0.2441406100988388,0.3662109076976776
862155,-0.0640869140625,-0.7431640625,-0.6434326171875,0.7324218153953552,-0.2441406100988388,0.3662109076976776
862187,-0.0635986328125,-0.74267578125,-0.643310546875,0.7324218153953552,-0.2441406100988388,0.30517578125
862203,-0.0634765625,-0.741943359375,-0.64404296875,0.7324218153953552,-0.2441406100988388,0.3662109076976776
862219,-0.0643310546875,-0.7421875,-0.64404296875,0.7324218153953552,-0.30517578125,0.3662109076976776
862235,-0.0643310546875,-0.7421875,-0.6436767578125,0.7324218153953552,-0.30517578125,0.3662109076976776
862255,-0.064453125,-0.74267578125,-0.6434326171875,0.7324218153953552,-0.30517578125,0.3662109076976776
862271,-0.0635986328125,-0.7415771484375,-0.6435546875,0.6713866591453552,-0.2441406100988388,0.3662109076976776
862287,-0.0634765625,-0.74169921875,-0.6434326171875,0.7324218153953552,-0.2441406100988388,0.30517578125
862303,-0.0640869140625,-0.743408203125,-0.6441650390625,0.7934569716453552,-0.2441406100988388,0.30517578125
862319,-0.0631103515625,-0.744140625,-0.643798828125,0.7324218153953552,-0.30517578125,0.3662109076976776
862335,-0.063232421875,-0.7430419921875,-0.6431884765625,0.7324218153953552,-0.30517578125,0.3662109076976776
862367,-0.0640869140625,-0.742431640625,-0.6427001953125,0.7324218153953552,-0.30517578125,0.3662109076976776
862383,-0.0633544921875,-0.7425537109375,-0.64306640625,0.7324218153953552,-0.3662109076976776,0.30517578125
862399,-0.0635986328125,-0.7420654296875,-0.643798828125,0.7324218153953552,-0.2441406100988388,0.30517578125
862415,-0.064453125,-0.7425537109375,-0.6441650390625,0.7324218153953552,-0.1831054538488388,0.30517578125
862435,-0.0638427734375,-0.742431640625,-0.6444091796875,0.6713866591453552,-0.2441406100988388,0.30517578125
862451,-0.0623779296875,-0.741943359375,-0.6435546875,0.7324218153953552,-0.30517578125,0.30517578125
862467,-0.0640869140625,-0.7427978515625,-0.6427001953125,0.7934569716453552,-0.30517578125,0.3662109076976776
862488,-0.0643310546875,-0.744140625,-0.6435546875,0.7324218153953552,-0.2441406100988388,0.30517578125
862504,-0.064697265625,-0.7427978515625,-0.64306640625,0.7324218153953552,-0.2441406100988388,0.2441406100988388
862521,-0.064453125,-0.7408447265625,-0.6427001953125,0.7324218153953552,-0.2441406100988388,0.30517578125
862538,-0.0638427734375,-0.743408203125,-0.644287109375,0.7324218153953552,-0.2441406100988388,0.30517578125
862555,-0.063720703125,-0.7437744140625,-0.64453125,0.7324218153953552,-0.1831054538488388,0.30517578125
862571,-0.0645751953125,-0.742431640625,-0.643310546875,0.7324218153953552,-0.2441406100988388,0.2441406100988388
862604,-0.0633544921875,-0.743896484375,-0.64453125,0.7324218153953552,-0.30517578125,0.3662109076976776
862620,-0.06396484375,-0.7427978515625,-0.6429443359375,0.6713866591453552,-0.2441406100988388,0.30517578125
862636,-0.0643310546875,-0.74267578125,-0.6424560546875,0.6713866591453552,-0.2441406100988388,0.30517578125
862672,-0.0643310546875,-0.741943359375,-0.643798828125,0.7324218153953552,-0.30517578125,0.3662109076976776
862692,-0.0618896484375,-0.7413330078125,-0.6435546875,0.7324218153953552,-0.2441406100988388,0.30517578125
862709,-0.064208984375,-0.7430419921875,-0.6439208984375,0.7324218153953552,-0.30517578125,0.30517578125
862732,-0.065673828125,-0.7427978515625,-0.6434326171875,0.7324218153953552,-0.30517578125,0.3662109076976776
862749,-0.0625,-0.7413330078125,-0.643310546875,0.7324218153953552,-0.2441406100988388,0.3662109076976776
862766,-0.062744140625,-0.7423095703125,-0.643798828125,0.7324218153953552,-0.2441406100988388,0.30517578125
862785,-0.064453125,-0.741943359375,-0.6441650390625,0.7324218153953552,-0.30517578125,0.30517578125
862801,-0.0648193359375,-0.7425537109375,-0.642822265625,0.7934569716453552,-0.2441406100988388,0.30517578125
862818,-0.0650634765625,-0.742919921875,-0.643798828125,0.7934569716453552,-0.2441406100988388,0.30517578125
862834,-0.0645751953125,-0.742431640625,-0.6431884765625,0.7324218153953552,-0.2441406100988388,0.2441406100988388
862855,-0.0638427734375,-0.74365234375,-0.642333984375,0.7324218153953552,-0.30517578125,0.2441406100988388
862876,-0.0650634765625,-0.7430419921875,-0.642822265625,0.6713866591453552,-0.2441406100988388,0.30517578125
862892,-0.064697265625,-0.7437744140625,-0.6431884765625,0.6713866591453552,-0.30517578125,0.30517578125
862909,-0.0635986328125,-0.741943359375,-0.6435546875,0.7324218153953552,-0.2441406100988388,0.3662109076976776
862926,-0.0628662109375,-0.7403564453125,-0.6422119140625,0.7324218153953552,-0.30517578125,0.3662109076976776
862959,-0.0665283203125,-0.7408447265625,-0.642822265625,0.7324218153953552,-0.2441406100988388,0.30517578125
862976,-0.065185546875,-0.7406005859375,-0.6417236328125,0.7324218153953552,-0.2441406100988388,0.30517578125
862992,-0.06201171875,-0.744140625,-0.64404296875,0.7324218153953552,-0.2441406100988388,0.30517578125
863024,-0.06494140625,-0.7412109375,-0.642822265625,0.7324218153953552,-0.30517578125,0.4272460639476776
863040,-0.064697265625,-0.7415771484375,-0.6435546875,0.7324218153953552,-0.2441406100988388,0.3662109076976776
863056,-0.06396484375,-0.7430419921875,-0.643310546875,0.7324218153953552,-0.2441406100988388,0.30517578125
863092,-0.0633544921875,-0.7435302734375,-0.644287109375,0.6713866591453552,-0.30517578125,0.30517578125
863108,-0.06494140625,-0.742919921875,-0.642822265625,0.6713866591453552,-0.30517578125,0.3662109076976776
863124,-0.065185546875,-0.743408203125,-0.6436767578125,0.7934569716453552,-0.2441406100988388,0.3662109076976776
863140,-0.06298828125,-0.7425537109375,-0.642333984375,0.7324218153953552,-0.2441406100988388,0.30517578125
863157,-0.0638427734375,-0.742919921875,-0.6429443359375,0.7324218153953552,-0.2441406100988388,0.30517578125
863178,-0.0635986328125,-0.741943359375,-0.64306640625,0.7934569716453552,-0.2441406100988388,0.30517578125
863194,-0.064208984375,-0.742431640625,-0.642333984375,0.7934569716453552,-0.30517578125,0.30517578125
863212,-0.0643310546875,-0.74365234375,-0.6436767578125,0.7324218153953552,-0.30517578125,0.30517578125
863229,-0.0628662109375,-0.7425537109375,-0.6429443359375,0.7324218153953552,-0.2441406100988388,0.2441406100988388
863262,-0.06396484375,-0.7420654296875,-0.6436767578125,0.7324218153953552,-0.2441406100988388,0.30517578125
863279,-0.062744140625,-0.741455078125,-0.642333984375,0.7324218153953552,-0.2441406100988388,0.30517578125
863295,-0.065185546875,-0.744873046875,-0.644775390625,0.6713866591453552,-0.2441406100988388,0.30517578125
863327,-0.062255859375,-0.7401123046875,-0.6405029296875,0.7324218153953552,-0.2441406100988388,0.3662109076976776
863343,-0.0645751953125,-0.7451171875,-0.64453125,0.7324218153953552,-0.30517578125,0.3662109076976776
863359,-0.0638427734375,-0.740478515625,-0.642822265625,0.7324218153953552,-0.2441406100988388,0.30517578125
863375,-0.0628662109375,-0.7396240234375,-0.6417236328125,0.7324218153953552,-0.30517578125,0.30517578125
863400,-0.0635986328125,-0.7447509765625,-0.645751953125,0.7324218153953552,-0.2441406100988388,0.3662109076976776
863416,-0.0633544921875,-0.739501953125,-0.642822265625,0.7324218153953552,-0.30517578125,0.30517578125
863433,-0.0650634765625,-0.744384765625,-0.643798828125,0.7324218153953552,-0.30517578125,0.30517578125
863450,-0.06591796875,-0.7462158203125,-0.645263671875,0.7324218153953552,-0.30517578125,0.30517578125
863467,-0.063720703125,-0.7408447265625,-0.64208984375,0.7934569716453552,-0.2441406100988388,0.3662109076976776
863499,-0.064697265625,-0.742431640625,-0.6446533203125,0.6103515625,-0.2441406100988388,0.2441406100988388
863564,-0.0628662109375,-0.7425537109375,-0.6441650390625,0.7934569716453552,-0.2441406100988388,0.2441406100988388
863585,-0.0643310546875,-0.741943359375,-0.64404296875,0.7324218153953552,-0.2441406100988388,0.30517578125
863601,-0.06396484375,-0.74169921875,-0.6429443359375,0.7324218153953552,-0.2441406100988388,0.30517578125
863618,-0.0645751953125,-0.7435302734375,-0.6439208984375,0.6713866591453552,-0.30517578125,0.30517578125
863635,-0.0638427734375,-0.741943359375,-0.644287109375,0.6713866591453552,-0.30517578125,0.30517578125
863651,-0.0634765625,-0.740478515625,-0.640869140625,0.7324218153953552,-0.30517578125,0.30517578125
863682,-0.06396484375,-0.743408203125,-0.6436767578125,0.7324218153953552,-0.30517578125,0.30517578125
863704,-0.0634765625,-0.7406005859375,-0.64111328125,0.7934569716453552,-0.2441406100988388,0.2441406100988388
863720,-0.064697265625,-0.74169921875,-0.6434326171875,0.6713866591453552,-0.30517578125,0.30517578125
863737,-0.0626220703125,-0.74267578125,-0.64306640625,0.7324218153953552,-0.30517578125,0.2441406100988388
863754,-0.063232421875,-0.7431640625,-0.64501953125,0.7324218153953552,-0.30517578125,0.2441406100988388
863770,-0.064208984375,-0.7427978515625,-0.6444091796875,0.7324218153953552,-0.30517578125,0.30517578125
863802,-0.0635986328125,-0.74365234375,-0.644287109375,0.7324218153953552,-0.30517578125,0.30517578125
863824,-0.0638427734375,-0.743408203125,-0.643798828125,0.6713866591453552,-0.30517578125,0.3662109076976776
863840,-0.0633544921875,-0.7415771484375,-0.6416015625,0.7324218153953552,-0.30517578125,0.3662109076976776
863857,-0.064208984375,-0.7427978515625,-0.643310546875,0.7324218153953552,-0.2441406100988388,0.3662109076976776
863874,-0.0633544921875,-0.7420654296875,-0.6434326171875,0.7324218153953552,-0.2441406100988388,0.30517578125
863890,-0.0633544921875,-0.74169921875,-0.642578125,0.7324218153953552,-0.2441406100988388,0.30517578125
863924,-0.064697265625,-0.7425537109375,-0.6435546875,0.6713866591453552,-0.2441406100988388,0.3662109076976776
863940,-0.064208984375,-0.74169921875,-0.642333984375,0.6713866591453552,-0.2441406100988388,0.30517578125
863956,-0.0640869140625,-0.7412109375,-0.6424560546875,0.6713866591453552,-0.30517578125,0.30517578125
863991,-0.0640869140625,-0.743896484375,-0.644775390625,0.7324218153953552,-0.30517578125,0.30517578125
864046,-0.06396484375,-0.74169921875,-0.643310546875,0.7934569716453552,-0.2441406100988388,0.3662109076976776
864062,-0.0640869140625,-0.7421875,-0.6429443359375,0.7934569716453552,-0.2441406100988388,0.3662109076976776
864079,-0.064697265625,-0.7418212890625,-0.643798828125,0.6103515625,-0.2441406100988388,0.30517578125
864096,-0.0645751953125,-0.7413330078125,-0.6431884765625,0.6713866591453552,-0.2441406100988388,0.30517578125
864112,-0.0643310546875,-0.7431640625,-0.6424560546875,0.7324218153953552,-0.2441406100988388,0.2441406100988388
864129,-0.0640869140625,-0.7432861328125,-0.642578125,0.7934569716453552,-0.30517578125,0.30517578125
864162,-0.0638427734375,-0.7421875,-0.6439208984375,0.7934569716453552,-0.30517578125,0.30517578125
864184,-0.064208984375,-0.742431640625,-0.643310546875,0.7324218153953552,-0.2441406100988388,0.30517578125
864200,-0.0650634765625,-0.7431640625,-0.6444091796875,0.7324218153953552,-0.30517578125,0.30517578125
864217,-0.064453125,-0.742431640625,-0.6439208984375,0.7324218153953552,-0.30517578125,0.2441406100988388
864234,-0.064208984375,-0.7425537109375,-0.6431884765625,0.7324218153953552,-0.1831054538488388,0.30517578125
864250,-0.064453125,-0.744384765625,-0.643798828125,0.7324218153953552,-0.2441406100988388,0.30517578125
864284,-0.0643310546875,-0.742919921875,-0.6441650390625,0.6713866591453552,-0.30517578125,0.3662109076976776
864300,-0.0640869140625,-0.7432861328125,-0.6441650390625,0.6713866591453552,-0.2441406100988388,0.3662109076976776
864316,-0.0625,-0.7418212890625,-0.642578125,0.7934569716453552,-0.2441406100988388,0.3662109076976776
864352,-0.064697265625,-0.7423095703125,-0.6429443359375,0.6713866591453552,-0.30517578125,0.30517578125
864374,-0.063720703125,-0.7421875,-0.643310546875,0.6713866591453552,-0.30517578125,0.30517578125
864390,-0.0640869140625,-0.7420654296875,-0.6446533203125,0.7324218153953552,-0.30517578125,0.30517578125
864411,-0.064697265625,-0.7435302734375,-0.64404296875,0.7934569716453552,-0.2441406100988388,0.30517578125
864428,-0.0638427734375,-0.7430419921875,-0.643798828125,0.7934569716453552,-0.2441406100988388,0.3662109076976776
864444,-0.0634765625,-0.7427978515625,-0.64306640625,0.7324218153953552,-0.2441406100988388,0.30517578125
864459,-0.062744140625,-0.7415771484375,-0.6419677734375,0.6713866591453552,-0.30517578125,0.30517578125
864524,-0.063720703125,-0.7418212890625,-0.6435546875,0.7324218153953552,-0.2441406100988388,0.2441406100988388
864540,-0.0633544921875,-0.7427978515625,-0.643798828125,0.7324218153953552,-0.2441406100988388,0.30517578125
864590,-0.0645751953125,-0.741943359375,-0.6431884765625,0.7324218153953552,-0.2441406100988388,0.30517578125
864612,-0.064208984375,-0.741943359375,-0.641845703125,0.7934569716453552,-0.2441406100988388,0.2441406100988388
864628,-0.06494140625,-0.7435302734375,-0.6441650390625,0.7934569716453552,-0.2441406100988388,0.30517578125
864647,-0.063232421875,-0.7408447265625,-0.64208984375,0.6713866591453552,-0.2441406100988388,0.30517578125
864697,-0.0635986328125,-0.7430419921875,-0.6424560546875,0.6713866591453552,-0.2441406100988388,0.30517578125
864720,-0.064453125,-0.7413330078125,-0.64306640625,0.6713866591453552,-0.2441406100988388,0.30517578125
864737,-0.0643310546875,-0.7415771484375,-0.6427001953125,0.6713866591453552,-0.2441406100988388,0.30517578125
864754,-0.0638427734375,-0.7425537109375,-0.6436767578125,0.7934569716453552,-0.2441406100988388,0.30517578125
864774,-0.0635986328125,-0.7420654296875,-0.642578125,0.7324218153953552,-0.2441406100988388,0.30517578125
864791,-0.064208984375,-0.7420654296875,-0.64306640625,0.7324218153953552,-0.30517578125,0.30517578125
864823,-0.0643310546875,-0.7423095703125,-0.6427001953125,0.7934569716453552,-0.3662109076976776,0.3662109076976776
864840,-0.0631103515625,-0.744384765625,-0.642578125,0.7324218153953552,-0.30517578125,0.30517578125
864856,-0.0633544921875,-0.7427978515625,-0.644775390625,0.7324218153953552,-0.30517578125,0.30517578125
864892,-0.06396484375,-0.742919921875,-0.6436767578125,0.7324218153953552,-0.30517578125,0.3662109076976776
864908,-0.064453125,-0.742431640625,-0.6446533203125,0.7324218153953552,-0.30517578125,0.30517578125
864924,-0.0643310546875,-0.7427978515625,-0.64404296875,0.7934569716453552,-0.30517578125,0.30517578125
864940,-0.0634765625,-0.7425537109375,-0.6439208984375,0.7934569716453552,-0.30517578125,0.30517578125
864957,-0.063720703125,-0.7425537109375,-0.6429443359375,0.7324218153953552,-0.30517578125,0.30517578125
864978,-0.06396484375,-0.7432861328125,-0.64306640625,0.7324218153953552,-0.2441406100988388,0.30517578125
864994,-0.06298828125,-0.742919921875,-0.6436767578125,0.6103515625,-0.2441406100988388,0.30517578125
865011,-0.063232421875,-0.7430419921875,-0.6439208984375,0.6713866591453552,-0.3662109076976776,0.30517578125
865028,-0.064208984375,-0.7415771484375,-0.6427001953125,0.6713866591453552,-0.3662109076976776,0.30517578125
865061,-0.064208984375,-0.7418212890625,-0.643798828125,0.7324218153953552,-0.2441406100988388,0.3662109076976776
865078,-0.063720703125,-0.7445068359375,-0.644287109375,0.6713866591453552,-0.30517578125,0.30517578125
865094,-0.0634765625,-0.7430419921875,-0.643310546875,0.6713866591453552,-0.2441406100988388,0.30517578125
865127,-0.0653076171875,-0.7435302734375,-0.6424560546875,0.6713866591453552,-0.30517578125,0.30517578125
865148,-0.0653076171875,-0.7430419921875,-0.6429443359375,0.6713866591453552,-0.30517578125,0.2441406100988388
865164,-0.06494140625,-0.7420654296875,-0.643310546875,0.6713866591453552,-0.2441406100988388,0.30517578125
865180,-0.0626220703125,-0.743408203125,-0.642333984375,0.7324218153953552,-0.2441406100988388,0.30517578125
865196,-0.0631103515625,-0.7418212890625,-0.641357421875,0.7934569716453552,-0.2441406100988388,0.30517578125
865213,-0.0638427734375,-0.7406005859375,-0.6416015625,0.7324218153953552,-0.2441406100988388,0.2441406100988388
865247,-0.064208984375,-0.7408447265625,-0.6429443359375,0.6713866591453552,-0.2441406100988388,0.2441406100988388
865268,-0.0634765625,-0.7410888671875,-0.6419677734375,0.7324218153953552,-0.2441406100988388,0.2441406100988388
865284,-0.064697265625,-0.744384765625,-0.643310546875,0.7324218153953552,-0.2441406100988388,0.1831054538488388
865301,-0.06591796875,-0.7420654296875,-0.6434326171875,0.7324218153953552,-0.2441406100988388,0.2441406100988388
865318,-0.063232421875,-0.740478515625,-0.642822265625,0.7324218153953552,-0.2441406100988388,0.3662109076976776
865334,-0.0618896484375,-0.7406005859375,-0.6424560546875,0.7324218153953552,-0.30517578125,0.30517578125
865371,-0.065673828125,-0.7459716796875,-0.6474609375,0.7324218153953552,-0.30517578125,0.30517578125
865423,-0.0633544921875,-0.74462890625,-0.645263671875,0.7324218153953552,-0.30517578125,0.3662109076976776
865439,-0.06396484375,-0.741943359375,-0.641357421875,0.7324218153953552,-0.2441406100988388,0.30517578125
865455,-0.0645751953125,-0.742431640625,-0.64306640625,0.6713866591453552,-0.2441406100988388,0.2441406100988388
865487,-0.0640869140625,-0.74267578125,-0.644287109375,0.6713866591453552,-0.2441406100988388,0.30517578125
865508,-0.063232421875,-0.7421875,-0.6429443359375,0.6713866591453552,-0.30517578125,0.2441406100988388
865525,-0.063720703125,-0.7410888671875,-0.6414794921875,0.7934569716453552,-0.30517578125,0.2441406100988388
865542,-0.0653076171875,-0.74462890625,-0.6453857421875,0.7934569716453552,-0.30517578125,0.30517578125
865558,-0.062744140625,-0.741455078125,-0.6441650390625,0.7324218153953552,-0.2441406100988388,0.2441406100988388
865575,-0.0633544921875,-0.74072265625,-0.6427001953125,0.7324218153953552,-0.2441406100988388,0.30517578125
865612,-0.0625,-0.7410888671875,-0.640380859375,0.7324218153953552,-0.2441406100988388,0.2441406100988388
865628,-0.0643310546875,-0.7437744140625,-0.6473388671875,0.6713866591453552,-0.2441406100988388,0.30517578125
865644,-0.06396484375,-0.7420654296875,-0.6461181640625,0.6713866591453552,-0.2441406100988388,0.2441406100988388
865660,-0.0634765625,-0.7412109375,-0.6429443359375,0.7324218153953552,-0.30517578125,0.30517578125
865723,-0.065673828125,-0.7449951171875,-0.6446533203125,0.6713866591453552,-0.2441406100988388,0.30517578125
865795,-0.0640869140625,-0.7430419921875,-0.6434326171875,0.7324218153953552,-0.2441406100988388,0.30517578125
865812,-0.065185546875,-0.7435302734375,-0.6453857421875,0.6713866591453552,-0.2441406100988388,0.30517578125
865845,-0.063720703125,-0.7403564453125,-0.6400146484375,0.7324218153953552,-0.2441406100988388,0.2441406100988388
865878,-0.0625,-0.74072265625,-0.641357421875,0.7324218153953552,-0.30517578125,0.30517578125
865921,-0.0633544921875,-0.7413330078125,-0.6429443359375,0.6713866591453552,-0.2441406100988388,0.4272460639476776
865938,-0.063720703125,-0.7412109375,-0.642578125,0.7324218153953552,-0.30517578125,0.3662109076976776
865955,-0.064453125,-0.7445068359375,-0.6444091796875,0.7324218153953552,-0.2441406100988388,0.2441406100988388
866004,-0.0625,-0.7418212890625,-0.644287109375,0.6713866591453552,-0.1831054538488388,0.30517578125
866036,-0.0653076171875,-0.744384765625,-0.6446533203125,0.7324218153953552,-0.30517578125,0.30517578125
866053,-0.0626220703125,-0.7427978515625,-0.6431884765625,0.7324218153953552,-0.30517578125,0.30517578125
866086,-0.0631103515625,-0.742919921875,-0.6436767578125,0.7324218153953552,-0.30517578125,0.30517578125
866103,-0.0645751953125,-0.739013671875,-0.6414794921875,0.6713866591453552,-0.30517578125,0.30517578125
866119,-0.06396484375,-0.7427978515625,-0.643798828125,0.6713866591453552,-0.30517578125,0.3662109076976776
866135,-0.063232421875,-0.7423095703125,-0.6434326171875,0.6713866591453552,-0.2441406100988388,0.2441406100988388
866155,-0.0631103515625,-0.741943359375,-0.642578125,0.6713866591453552,-0.2441406100988388,0.1831054538488388
866171,-0.0643310546875,-0.7470703125,-0.6448974609375,0.7324218153953552,-0.3662109076976776,0.2441406100988388
866187,-0.0653076171875,-0.7479248046875,-0.646240234375,0.7934569716453552,-0.3662109076976776,0.30517578125
866203,-0.0648193359375,-0.7449951171875,-0.6463623046875,0.6713866591453552,-0.2441406100988388,0.2441406100988388
866224,-0.0635986328125,-0.740234375,-0.642333984375,0.6713866591453552,-0.2441406100988388,0.30517578125
866240,-0.064453125,-0.741455078125,-0.6424560546875,0.7324218153953552,-0.3662109076976776,0.3662109076976776
866257,-0.064453125,-0.741455078125,-0.642333984375,0.6713866591453552,-0.30517578125,0.3662109076976776
866274,-0.0643310546875,-0.74169921875,-0.6422119140625,0.6713866591453552,-0.30517578125,0.3662109076976776
866291,-0.063720703125,-0.7420654296875,-0.6424560546875,0.7324218153953552,-0.30517578125,0.30517578125
866323,-0.0645751953125,-0.742919921875,-0.6429443359375,0.7324218153953552,-0.30517578125,0.30517578125
866340,-0.06494140625,-0.7431640625,-0.6434326171875,0.7324218153953552,-0.30517578125,0.30517578125
866356,-0.064453125,-0.7430419921875,-0.6434326171875,0.6713866591453552,-0.30517578125,0.30517578125
866392,-0.06396484375,-0.74267578125,-0.644775390625,0.6713866591453552,-0.2441406100988388,0.30517578125
866408,-0.062744140625,-0.741943359375,-0.6439208984375,0.7324218153953552,-0.2441406100988388,0.3662109076976776
866424,-0.063232421875,-0.743896484375,-0.6441650390625,0.7324218153953552,-0.2441406100988388,0.30517578125
866440,-0.0653076171875,-0.7418212890625,-0.6427001953125,0.7324218153953552,-0.2441406100988388,0.2441406100988388
866457,-0.0654296875,-0.741455078125,-0.6439208984375,0.7324218153953552,-0.30517578125,0.30517578125
866478,-0.063720703125,-0.741943359375,-0.644287109375,0.6713866591453552,-0.2441406100988388,0.30517578125
866494,-0.0645751953125,-0.7431640625,-0.6434326171875,0.6713866591453552,-0.30517578125,0.30517578125
866561,-0.0634765625,-0.7430419921875,-0.6453857421875,0.7324218153953552,-0.2441406100988388,0.30517578125
866578,-0.0640869140625,-0.74267578125,-0.6444091796875,0.7324218153953552,-0.2441406100988388,0.30517578125
866594,-0.0634765625,-0.741943359375,-0.64306640625,0.6713866591453552,-0.30517578125,0.30517578125
866627,-0.064208984375,-0.7423095703125,-0.6441650390625,0.6713866591453552,-0.1831054538488388,0.3662109076976776
866648,-0.0650634765625,-0.7435302734375,-0.6441650390625,0.6713866591453552,-0.2441406100988388,0.2441406100988388
866664,-0.064208984375,-0.74169921875,-0.64404296875,0.6713866591453552,-0.2441406100988388,0.2441406100988388
866681,-0.064208984375,-0.74169921875,-0.6436767578125,0.7324218153953552,-0.30517578125,0.2441406100988388
866698,-0.0635986328125,-0.742431640625,-0.643798828125,0.7324218153953552,-0.2441406100988388,0.30517578125
866718,-0.0638427734375,-0.7431640625,-0.6434326171875,0.6713866591453552,-0.2441406100988388,0.30517578125
866739,-0.0645751953125,-0.7440185546875,-0.6441650390625,0.6713866591453552,-0.2441406100988388,0.30517578125
866756,-0.065673828125,-0.739990234375,-0.642822265625,0.7324218153953552,-0.2441406100988388,0.30517578125
866772,-0.064453125,-0.7408447265625,-0.6422119140625,0.7324218153953552,-0.2441406100988388,0.3662109076976776
866804,-0.062255859375,-0.744873046875,-0.64453125,0.7324218153953552,-0.2441406100988388,0.30517578125
866868,-0.0634765625,-0.742919921875,-0.6436767578125,0.7324218153953552,-0.2441406100988388,0.3662109076976776
866884,-0.063720703125,-0.7421875,-0.6441650390625,0.6713866591453552,-0.30517578125,0.3662109076976776
866900,-0.064453125,-0.7432861328125,-0.6446533203125,0.7324218153953552,-0.30517578125,0.3662109076976776
866916,-0.0643310546875,-0.7442626953125,-0.64453125,0.7324218153953552,-0.30517578125,0.30517578125
866970,-0.0633544921875,-0.741943359375,-0.64306640625,0.7934569716453552,-0.30517578125,0.30517578125
866996,-0.0648193359375,-0.7421875,-0.6427001953125,0.7934569716453552,-0.2441406100988388,0.30517578125
867013,-0.063232421875,-0.7406005859375,-0.64306640625,0.6713866591453552,-0.2441406100988388,0.30517578125
867050,-0.0638427734375,-0.742919921875,-0.64501953125,0.7324218153953552,-0.2441406100988388,0.30517578125
867067,-0.0643310546875,-0.740234375,-0.6414794921875,0.7934569716453552,-0.2441406100988388,0.3662109076976776
867083,-0.0633544921875,-0.740478515625,-0.6407470703125,0.7324218153953552,-0.2441406100988388,0.30517578125
867100,-0.062744140625,-0.7420654296875,-0.64208984375,0.7934569716453552,-0.2441406100988388,0.30517578125
867117,-0.06396484375,-0.7415771484375,-0.643310546875,0.6713866591453552,-0.1831054538488388,0.30517578125
867138,-0.06494140625,-0.741455078125,-0.6414794921875,0.7324218153953552,-0.30517578125,0.3662109076976776
867154,-0.0621337890625,-0.7418212890625,-0.6419677734375,0.6713866591453552,-0.30517578125,0.3662109076976776
867171,-0.061279296875,-0.740234375,-0.641845703125,0.6103515625,-0.2441406100988388,0.2441406100988388
867188,-0.0635986328125,-0.743896484375,-0.643798828125,0.6713866591453552,-0.2441406100988388,0.2441406100988388
867221,-0.0657958984375,-0.755615234375,-0.6551513671875,0.7934569716453552,-0.2441406100988388,0.30517578125
867238,-0.0648193359375,-0.7413330078125,-0.64404296875,0.7934569716453552,-0.30517578125,0.30517578125
867254,-0.06298828125,-0.734619140625,-0.6363525390625,0.7934569716453552,-0.30517578125,0.30517578125
867302,-0.0657958984375,-0.740966796875,-0.6409912109375,0.7324218153953552,-0.2441406100988388,0.30517578125
867370,-0.0655517578125,-0.7467041015625,-0.6441650390625,0.7934569716453552,-0.2441406100988388,0.30517578125
867414,-0.0623779296875,-0.7401123046875,-0.642822265625,0.7324218153953552,-0.2441406100988388,0.30517578125
867431,-0.063232421875,-0.74169921875,-0.6434326171875,0.7324218153953552,-0.1831054538488388,0.2441406100988388
867463,-0.0633544921875,-0.7415771484375,-0.642333984375,0.6713866591453552,-0.2441406100988388,0.30517578125
867479,-0.0626220703125,-0.7393798828125,-0.641357421875,0.6713866591453552,-0.30517578125,0.2441406100988388
867495,-0.063232421875,-0.74169921875,-0.643310546875,0.6713866591453552,-0.30517578125,0.30517578125
867532,-0.064453125,-0.7437744140625,-0.64501953125,0.6713866591453552,-0.2441406100988388,0.30517578125
867548,-0.0645751953125,-0.742919921875,-0.6439208984375,0.7324218153953552,-0.30517578125,0.30517578125
867564,-0.063232421875,-0.7430419921875,-0.6446533203125,0.7324218153953552,-0.2441406100988388,0.2441406100988388
867580,-0.0628662109375,-0.7430419921875,-0.6448974609375,0.7324218153953552,-0.2441406100988388,0.30517578125
867602,-0.063232421875,-0.7423095703125,-0.6424560546875,0.7324218153953552,-0.2441406100988388,0.30517578125
867618,-0.0648193359375,-0.744873046875,-0.6439208984375,0.6713866591453552,-0.30517578125,0.3662109076976776
867635,-0.0640869140625,-0.7396240234375,-0.6409912109375,0.7324218153953552,-0.30517578125,0.30517578125
867652,-0.0631103515625,-0.74072265625,-0.641357421875,0.7324218153953552,-0.30517578125,0.3662109076976776
867668,-0.0625,-0.7454833984375,-0.646484375,0.6713866591453552,-0.2441406100988388,0.3662109076976776
867702,-0.06494140625,-0.740234375,-0.641845703125,0.7324218153953552,-0.30517578125,0.30517578125
867718,-0.0611572265625,-0.741455078125,-0.6427001953125,0.7324218153953552,-0.2441406100988388,0.30517578125
867734,-0.0631103515625,-0.7442626953125,-0.6441650390625,0.6713866591453552,-0.2441406100988388,0.30517578125
867764,-0.0645751953125,-0.7412109375,-0.6427001953125,0.6103515625,-0.2441406100988388,0.1831054538488388
867785,-0.06494140625,-0.7437744140625,-0.6448974609375,0.7324218153953552,-0.2441406100988388,0.30517578125
867801,-0.0625,-0.7435302734375,-0.64404296875,0.7324218153953552,-0.30517578125,0.30517578125
867818,-0.0631103515625,-0.7431640625,-0.6435546875,0.6713866591453552,-0.30517578125,0.3662109076976776
867835,-0.0655517578125,-0.7457275390625,-0.646728515625,0.6713866591453552,-0.30517578125,0.2441406100988388
867851,-0.0638427734375,-0.7386474609375,-0.640380859375,0.7324218153953552,-0.30517578125,0.30517578125
867872,-0.063232421875,-0.7437744140625,-0.6436767578125,0.6713866591453552,-0.30517578125,0.30517578125
867892,-0.063232421875,-0.74072265625,-0.64013671875,0.6713866591453552,-0.2441406100988388,0.30517578125
867913,-0.0648193359375,-0.7442626953125,-0.6448974609375,0.7324218153953552,-0.30517578125,0.30517578125
867929,-0.06396484375,-0.7412109375,-0.6427001953125,0.6713866591453552,-0.30517578125,0.30517578125
867948,-0.0635986328125,-0.7440185546875,-0.6461181640625,0.6713866591453552,-0.30517578125,0.30517578125
867964,-0.0638427734375,-0.743408203125,-0.6455078125,0.6713866591453552,-0.30517578125,0.30517578125
867981,-0.0638427734375,-0.7425537109375,-0.642333984375,0.7324218153953552,-0.2441406100988388,0.30517578125
867998,-0.0643310546875,-0.7435302734375,-0.6439208984375,0.7324218153953552,-0.2441406100988388,0.3662109076976776
868014,-0.0643310546875,-0.73974609375,-0.64208984375,0.7324218153953552,-0.30517578125,0.3662109076976776
868031,-0.064208984375,-0.7451171875,-0.646240234375,0.7324218153953552,-0.30517578125,0.2441406100988388
868064,-0.0645751953125,-0.7423095703125,-0.6435546875,0.7324218153953552,-0.30517578125,0.30517578125
868080,-0.064697265625,-0.7427978515625,-0.6424560546875,0.6713866591453552,-0.2441406100988388,0.30517578125
868096,-0.064208984375,-0.741455078125,-0.6419677734375,0.7324218153953552,-0.2441406100988388,0.3662109076976776
868132,-0.0625,-0.740234375,-0.642333984375,0.7324218153953552,-0.30517578125,0.2441406100988388
868153,-0.064453125,-0.7451171875,-0.6446533203125,0.6713866591453552,-0.30517578125,0.2441406100988388
868190,-0.0645751953125,-0.7420654296875,-0.6436767578125,0.6713866591453552,-0.2441406100988388,0.30517578125
868240,-0.0633544921875,-0.740966796875,-0.6427001953125,0.7324218153953552,-0.2441406100988388,0.30517578125
868256,-0.063232421875,-0.7418212890625,-0.6439208984375,0.7934569716453552,-0.2441406100988388,0.30517578125
868273,-0.0633544921875,-0.7423095703125,-0.6439208984375,0.7324218153953552,-0.2441406100988388,0.30517578125
868305,-0.0648193359375,-0.744384765625,-0.645263671875,0.7324218153953552,-0.2441406100988388,0.3662109076976776
868321,-0.063232421875,-0.7437744140625,-0.6424560546875,0.7324218153953552,-0.2441406100988388,0.3662109076976776
868337,-0.064208984375,-0.7435302734375,-0.64208984375,0.7324218153953552,-0.2441406100988388,0.30517578125
868373,-0.0633544921875,-0.7418212890625,-0.6424560546875,0.6713866591453552,-0.30517578125,0.30517578125
868389,-0.0638427734375,-0.7420654296875,-0.643798828125,0.7324218153953552,-0.30517578125,0.30517578125
868405,-0.0634765625,-0.7413330078125,-0.6429443359375,0.7324218153953552,-0.3662109076976776,0.3662109076976776
868421,-0.064697265625,-0.7420654296875,-0.6431884765625,0.6713866591453552,-0.30517578125,0.3662109076976776
868484,-0.0634765625,-0.742431640625,-0.6441650390625,0.6713866591453552,-0.2441406100988388,0.30517578125
868505,-0.0638427734375,-0.741943359375,-0.6434326171875,0.7324218153953552,-0.30517578125,0.30517578125
868521,-0.0633544921875,-0.7430419921875,-0.642578125,0.7324218153953552,-0.2441406100988388,0.30517578125
868538,-0.0640869140625,-0.7474365234375,-0.6470947265625,0.7934569716453552,-0.2441406100988388,0.30517578125
868555,-0.0654296875,-0.7490234375,-0.6474609375,0.7324218153953552,-0.2441406100988388,0.2441406100988388
868571,-0.06494140625,-0.7401123046875,-0.6409912109375,0.7324218153953552,-0.30517578125,0.2441406100988388
868605,-0.061279296875,-0.7421875,-0.6436767578125,0.6713866591453552,-0.30517578125,0.2441406100988388
868621,-0.0633544921875,-0.7421875,-0.6409912109375,0.6713866591453552,-0.1831054538488388,0.30517578125
868673,-0.0614013671875,-0.742431640625,-0.6446533203125,0.6713866591453552,-0.2441406100988388,0.30517578125
868689,-0.0631103515625,-0.7435302734375,-0.6441650390625,0.6713866591453552,-0.2441406100988388,0.30517578125
868705,-0.064208984375,-0.7430419921875,-0.6434326171875,0.6713866591453552,-0.2441406100988388,0.30517578125
868720,-0.063720703125,-0.7431640625,-0.6434326171875,0.6713866591453552,-0.2441406100988388,0.30517578125
868774,-0.0634765625,-0.7425537109375,-0.6427001953125,0.6713866591453552,-0.1831054538488388,0.2441406100988388
868800,-0.0640869140625,-0.7415771484375,-0.6441650390625,0.6713866591453552,-0.2441406100988388,0.30517578125
868817,-0.0640869140625,-0.7412109375,-0.64404296875,0.6713866591453552,-0.30517578125,0.3662109076976776
868833,-0.0645751953125,-0.7415771484375,-0.6435546875,0.7324218153953552,-0.2441406100988388,0.30517578125
868852,-0.064453125,-0.741943359375,-0.6439208984375,0.7324218153953552,-0.30517578125,0.30517578125
868869,-0.0631103515625,-0.7435302734375,-0.6429443359375,0.6713866591453552,-0.3662109076976776,0.3662109076976776
868885,-0.0633544921875,-0.742919921875,-0.6429443359375,0.7324218153953552,-0.3662109076976776,0.3662109076976776
868900,-0.0638427734375,-0.741455078125,-0.644287109375,0.7324218153953552,-0.30517578125,0.30517578125
868954,-0.0628662109375,-0.742431640625,-0.6435546875,0.6713866591453552,-0.2441406100988388,0.2441406100988388
868980,-0.06396484375,-0.7423095703125,-0.6439208984375,0.6713866591453552,-0.2441406100988388,0.2441406100988388
868997,-0.0640869140625,-0.741455078125,-0.6429443359375,0.7324218153953552,-0.2441406100988388,0.30517578125
869030,-0.06494140625,-0.7435302734375,-0.64404296875,0.7324218153953552,-0.2441406100988388,0.30517578125
869093,-0.06396484375,-0.74365234375,-0.64453125,0.7324218153953552,-0.2441406100988388,0.3662109076976776
869110,-0.064453125,-0.744140625,-0.644287109375,0.7324218153953552,-0.30517578125,0.30517578125
869141,-0.0640869140625,-0.74169921875,-0.642822265625,0.7324218153953552,-0.30517578125,0.30517578125
869157,-0.06396484375,-0.73974609375,-0.6414794921875,0.7324218153953552,-0.30517578125,0.2441406100988388
869174,-0.0634765625,-0.736572265625,-0.6385498046875,0.6713866591453552,-0.2441406100988388,0.30517578125
869206,-0.0648193359375,-0.744873046875,-0.643798828125,0.6713866591453552,-0.3662109076976776,0.30517578125
869238,-0.0638427734375,-0.738525390625,-0.6416015625,0.6713866591453552,-0.3662109076976776,0.30517578125
869337,-0.064453125,-0.7327880859375,-0.6351318359375,0.6713866591453552,-0.2441406100988388,0.3662109076976776
869354,-0.063720703125,-0.744873046875,-0.645263671875,0.7324218153953552,-0.2441406100988388,0.3662109076976776
869391,-0.0665283203125,-0.7427978515625,-0.644775390625,0.6713866591453552,-0.2441406100988388,0.30517578125
869407,-0.06494140625,-0.742919921875,-0.6448974609375,0.6713866591453552,-0.2441406100988388,0.30517578125
869424,-0.0616455078125,-0.7391357421875,-0.6412353515625,0.7324218153953552,-0.30517578125,0.30517578125
869440,-0.063720703125,-0.7451171875,-0.6466064453125,0.7324218153953552,-0.30517578125,0.30517578125
869462,-0.0653076171875,-0.7427978515625,-0.644287109375,0.7324218153953552,-0.30517578125,0.30517578125
869478,-0.0654296875,-0.7423095703125,-0.642333984375,0.7934569716453552,-0.30517578125,0.30517578125
869495,-0.063232421875,-0.7437744140625,-0.6458740234375,0.7324218153953552,-0.2441406100988388,0.30517578125
869512,-0.06396484375,-0.7418212890625,-0.6429443359375,0.6713866591453552,-0.2441406100988388,0.30517578125
869529,-0.0645751953125,-0.7430419921875,-0.6427001953125,0.6713866591453552,-0.2441406100988388,0.30517578125
869562,-0.0626220703125,-0.741455078125,-0.6422119140625,0.7324218153953552,-0.30517578125,0.3662109076976776
869578,-0.0625,-0.7403564453125,-0.6412353515625,0.7324218153953552,-0.3662109076976776,0.30517578125
869594,-0.064697265625,-0.744140625,-0.642578125,0.7324218153953552,-0.30517578125,0.2441406100988388
869642,-0.0634765625,-0.74267578125,-0.643310546875,0.7324218153953552,-0.3662109076976776,0.30517578125
869694,-0.0635986328125,-0.7425537109375,-0.644287109375,0.7324218153953552,-0.2441406100988388,0.3662109076976776
869711,-0.062744140625,-0.7435302734375,-0.645263671875,0.7324218153953552,-0.3662109076976776,0.3662109076976776
869742,-0.064453125,-0.74072265625,-0.640625,0.6713866591453552,-0.2441406100988388,0.30517578125
869758,-0.0638427734375,-0.7403564453125,-0.6402587890625,0.6713866591453552,-0.1831054538488388,0.2441406100988388
869775,-0.064453125,-0.743896484375,-0.64453125,0.7324218153953552,-0.30517578125,0.2441406100988388
869807,-0.06298828125,-0.7435302734375,-0.6455078125,0.6713866591453552,-0.30517578125,0.30517578125
869823,-0.0648193359375,-0.7408447265625,-0.642333984375,0.6713866591453552,-0.2441406100988388,0.3662109076976776
869839,-0.0648193359375,-0.7413330078125,-0.6419677734375,0.6713866591453552,-0.2441406100988388,0.3662109076976776
869855,-0.0634765625,-0.7437744140625,-0.6444091796875,0.7324218153953552,-0.30517578125,0.2441406100988388
869879,-0.0638427734375,-0.7435302734375,-0.6448974609375,0.7324218153953552,-0.30517578125,0.30517578125
869895,-0.0645751953125,-0.7437744140625,-0.6448974609375,0.7324218153953552,-0.30517578125,0.30517578125
869912,-0.0626220703125,-0.7420654296875,-0.6435546875,0.6713866591453552,-0.2441406100988388,0.30517578125
869932,-0.0640869140625,-0.741455078125,-0.644287109375,0.6713866591453552,-0.2441406100988388,0.30517578125
869948,-0.0635986328125,-0.743896484375,-0.6396484375,0.7324218153953552,-0.1831054538488388,0.30517578125
869982,-0.0638427734375,-0.7484130859375,-0.639404296875,1.3427733182907104,-0.30517578125,0.30517578125
869998,-0.0643310546875,-0.742919921875,-0.6400146484375,1.6479490995407104,-0.30517578125,0.1831054538488388
870014,-0.0635986328125,-0.745849609375,-0.642333984375,1.8920897245407104,-0.3662109076976776,0.2441406100988388
870043,-0.064697265625,-0.7421875,-0.6427001953125,2.01416015625,-0.30517578125,0.30517578125
870065,-0.06396484375,-0.7425537109375,-0.641357421875,2.0751953125,-0.3662109076976776,0.2441406100988388
870081,-0.063720703125,-0.7431640625,-0.6434326171875,2.197265625,-0.3662109076976776,0.1831054538488388
870097,-0.062744140625,-0.73974609375,-0.645263671875,2.3193359375,-0.3662109076976776,0.1831054538488388
870163,-0.062744140625,-0.737548828125,-0.64990234375,1.8310545682907104,-0.3662109076976776,0.2441406100988388
870184,-0.06396484375,-0.7376708984375,-0.650634765625,1.3427733182907104,-0.3662109076976776,0.1831054538488388
870200,-0.0648193359375,-0.7353515625,-0.65283203125,1.220703125,-0.30517578125,0.2441406100988388
870216,-0.06396484375,-0.7371826171875,-0.6497802734375,0.8544921278953552,-0.30517578125,0.30517578125
870236,-0.0626220703125,-0.7369384765625,-0.64794921875,0.3662109076976776,-0.2441406100988388,0.30517578125
870252,-0.06298828125,-0.7401123046875,-0.6466064453125,0.30517578125,-0.1831054538488388,0.2441406100988388
870284,-0.06494140625,-0.73876953125,-0.6478271484375,0.30517578125,-0.2441406100988388,0.2441406100988388
870305,-0.063720703125,-0.7391357421875,-0.64892578125,0.30517578125,-0.1831054538488388,0.30517578125
870321,-0.0621337890625,-0.7398681640625,-0.6434326171875,0.4272460639476776,-0.1831054538488388,0.30517578125
870371,-0.0645751953125,-0.7376708984375,-0.645263671875,0.9765624403953552,-0.30517578125,0.3662109076976776
870415,-0.064208984375,-0.7420654296875,-0.6441650390625,1.03759765625,-0.30517578125,0.3662109076976776
870432,-0.065185546875,-0.739990234375,-0.6451416015625,1.15966796875,-0.30517578125,0.30517578125
870465,-0.06201171875,-0.7412109375,-0.645751953125,1.3427733182907104,-0.30517578125,0.30517578125
870482,-0.0623779296875,-0.7435302734375,-0.642578125,1.5258787870407104,-0.3662109076976776,0.30517578125
870499,-0.064697265625,-0.7401123046875,-0.6435546875,1.8920897245407104,-0.4882812201976776,0.30517578125
870515,-0.065185546875,-0.7364501953125,-0.6492919921875,1.9531248807907104,-0.4882812201976776,0.4272460639476776
870535,-0.0635986328125,-0.73876953125,-0.6514892578125,1.7700194120407104,-0.4272460639476776,0.4882812201976776
870551,-0.062744140625,-0.739501953125,-0.6470947265625,1.7089842557907104,-0.4272460639476776,0.4272460639476776
870567,-0.062744140625,-0.73876953125,-0.6527099609375,1.5869139432907104,-0.4272460639476776,0.30517578125
870584,-0.063720703125,-0.7373046875,-0.6507568359375,1.5258787870407104,-0.30517578125,0.30517578125
870605,-0.0648193359375,-0.736083984375,-0.6456298828125,1.6479490995407104,-0.30517578125,0.30517578125
870621,-0.0626220703125,-0.741455078125,-0.6468505859375,1.8920897245407104,-0.4272460639476776,0.3662109076976776
870638,-0.0625,-0.7340087890625,-0.6494140625,2.01416015625,-0.4272460639476776,0.30517578125
870655,-0.0626220703125,-0.737548828125,-0.645751953125,2.13623046875,-0.3662109076976776,0.3662109076976776
870671,-0.061279296875,-0.7366943359375,-0.6505126953125,2.25830078125,-0.4272460639476776,0.30517578125
870702,-0.0654296875,-0.733642578125,-0.65283203125,2.197265625,-0.3662109076976776,0.2441406100988388
870724,-0.0648193359375,-0.73193359375,-0.6490478515625,2.01416015625,-0.3662109076976776,0.2441406100988388
870740,-0.064697265625,-0.7340087890625,-0.6588134765625,1.5869139432907104,-0.3662109076976776,0.2441406100988388
870757,-0.0640869140625,-0.73193359375,-0.6544189453125,1.4038084745407104,-0.3662109076976776,0.30517578125
870774,-0.065185546875,-0.7318115234375,-0.65576171875,0.8544921278953552,-0.30517578125,0.30517578125
870790,-0.064208984375,-0.7340087890625,-0.65673828125,0.30517578125,-0.2441406100988388,0.3662109076976776
870823,-0.0635986328125,-0.73876953125,-0.6546630859375,-0.2441406100988388,-0.1831054538488388,0.30517578125
870840,-0.063720703125,-0.7303466796875,-0.650634765625,-0.4882812201976776,-0.1831054538488388,0.30517578125
870856,-0.063232421875,-0.736572265625,-0.6546630859375,-0.7324218153953552,-0.1831054538488388,0.4272460639476776
870892,-0.0638427734375,-0.7342529296875,-0.6510009765625,-1.15966796875,-0.1831054538488388,0.4272460639476776
870908,-0.0640869140625,-0.7392578125,-0.6492919921875,-1.220703125,-0.1831054538488388,0.4272460639476776
870924,-0.0633544921875,-0.7373046875,-0.645751953125,-1.220703125,-0.1831054538488388,0.4272460639476776
870940,-0.06396484375,-0.7391357421875,-0.6514892578125,-1.2817381620407104,-0.2441406100988388,0.4882812201976776
870962,-0.0633544921875,-0.7337646484375,-0.6468505859375,-1.4038084745407104,-0.2441406100988388,0.4272460639476776
870978,-0.0633544921875,-0.740966796875,-0.6478271484375,-1.4038084745407104,-0.1831054538488388,0.4272460639476776
870995,-0.0621337890625,-0.74072265625,-0.6473388671875,-1.4038084745407104,-0.2441406100988388,0.4882812201976776
871012,-0.06298828125,-0.7381591796875,-0.6500244140625,-1.5258787870407104,-0.30517578125,0.4882812201976776
871029,-0.0654296875,-0.7362060546875,-0.6529541015625,-1.8920897245407104,-0.2441406100988388,0.4882812201976776
871062,-0.0625,-0.7442626953125,-0.6448974609375,-2.25830078125,-0.1831054538488388,0.4272460639476776
871078,-0.062744140625,-0.73876953125,-0.6474609375,-2.50244140625,-0.1831054538488388,0.3662109076976776
871094,-0.0640869140625,-0.736328125,-0.648681640625,-2.685546636581421,-0.1220703050494194,0.4272460639476776
871123,-0.061767578125,-0.7391357421875,-0.6494140625,-3.845214605331421,-0.1220703050494194,0.6103515625
871145,-0.0625,-0.7388916015625,-0.648681640625,-4.57763671875,-0.1220703050494194,0.6103515625
871161,-0.0640869140625,-0.742431640625,-0.6427001953125,-4.94384765625,-0.0610351525247097,0.6713866591453552
871178,-0.06396484375,-0.748291015625,-0.646484375,-5.554198741912842,-0.1220703050494194,0.6713866591453552
871195,-0.063232421875,-0.742431640625,-0.64990234375,-6.408690929412842,-0.0610351525247097,0.54931640625
871211,-0.062744140625,-0.7410888671875,-0.64794921875,-6.958007335662842,0.0610351525247097,0.4882812201976776
871242,-0.063232421875,-0.7508544921875,-0.6358642578125,-8.97216796875,0.1220703050494194,0.7324218153953552
871264,-0.0640869140625,-0.752197265625,-0.6376953125,-9.521484375,0.1220703050494194,0.7324218153953552
871280,-0.063232421875,-0.7529296875,-0.6298828125,-9.82666015625,0.2441406100988388,0.6713866591453552
871300,-0.0633544921875,-0.7545166015625,-0.627685546875,-10.253905296325684,0.3662109076976776,0.6103515625
871317,-0.063720703125,-0.76123046875,-0.6190185546875,-10.314940452575684,0.3662109076976776,0.6103515625
871334,-0.065185546875,-0.76513671875,-0.6180419921875,-10.131834983825684,0.30517578125,0.6713866591453552
871365,-0.0626220703125,-0.7735595703125,-0.6041259765625,-9.27734375,0.3662109076976776,0.54931640625
871382,-0.063232421875,-0.7757568359375,-0.6009521484375,-8.23974609375,0.30517578125,0.4272460639476776
871398,-0.0643310546875,-0.775146484375,-0.596923828125,-7.019042491912842,0.30517578125,0.3662109076976776
871414,-0.0645751953125,-0.778076171875,-0.5936279296875,-6.286620616912842,0.1831054538488388,0.4272460639476776
871434,-0.065673828125,-0.777587890625,-0.59423828125,-4.69970703125,0.0,0.3662109076976776
871456,-0.064697265625,-0.7828369140625,-0.5921630859375,-3.173827886581421,0.1220703050494194,0.30517578125
871472,-0.064453125,-0.78564453125,-0.590087890625,-2.38037109375,0.1220703050494194,0.2441406100988388
871489,-0.0634765625,-0.7784423828125,-0.590576171875,-0.7934569716453552,0.0,0.0610351525247097
871506,-0.0638427734375,-0.7781982421875,-0.5947265625,0.6713866591453552,-0.1220703050494194,0.0610351525247097
871539,-0.0638427734375,-0.7808837890625,-0.5892333984375,3.173827886581421,-0.30517578125,0.2441406100988388
871556,-0.06396484375,-0.782470703125,-0.591552734375,3.845214605331421,-0.4272460639476776,0.1831054538488388
871572,-0.0638427734375,-0.777099609375,-0.596923828125,4.94384765625,-0.4882812201976776,0.0610351525247097
871604,-0.06396484375,-0.7763671875,-0.602294921875,6.347655773162842,-0.4882812201976776,0.0610351525247097
871620,-0.062744140625,-0.77392578125,-0.601806640625,7.202147960662842,-0.6103515625,0.0610351525247097
871636,-0.0638427734375,-0.7745361328125,-0.60205078125,7.629394054412842,-0.6103515625,0.0610351525247097
871672,-0.0640869140625,-0.7667236328125,-0.609375,9.21630859375,-0.7934569716453552,0.1220703050494194
871688,-0.0611572265625,-0.773681640625,-0.6099853515625,9.6435546875,-0.8544921278953552,0.1831054538488388
871704,-0.060791015625,-0.7620849609375,-0.612060546875,10.375975608825684,-0.9155272841453552,0.0
871720,-0.065673828125,-0.764892578125,-0.61767578125,11.047362327575684,-0.9765624403953552,0.3662109076976776
871742,-0.0662841796875,-0.772216796875,-0.612548828125,11.535643577575684,-1.15966796875,0.4882812201976776
871758,-0.064208984375,-0.758544921875,-0.6141357421875,12.573241233825684,-1.220703125,0.1831054538488388
871775,-0.064697265625,-0.7626953125,-0.6224365234375,13.183592796325684,-1.03759765625,0.0
871792,-0.066162109375,-0.7540283203125,-0.6370849609375,13.366698265075684,-0.9765624403953552,-0.0610351525247097
871809,-0.0638427734375,-0.7445068359375,-0.6357421875,13.793944358825684,-0.8544921278953552,-0.1831054538488388
871842,-0.060546875,-0.7490234375,-0.63671875,13.671874046325684,-0.7324218153953552,-0.0610351525247097
871858,-0.061767578125,-0.7452392578125,-0.641357421875,13.610838890075684,-0.8544921278953552,-0.1831054538488388
871874,-0.063232421875,-0.7392578125,-0.6502685546875,13.244627952575684,-0.9155272841453552,-0.30517578125
871903,-0.065673828125,-0.722412109375,-0.667236328125,11.413573265075684,-0.7324218153953552,-0.0610351525247097
871925,-0.061767578125,-0.7281494140625,-0.666259765625,10.009765625,-0.6713866591453552,0.0610351525247097
871941,-0.061279296875,-0.7301025390625,-0.6602783203125,9.33837890625,-0.6103515625,0.0
871958,-0.0631103515625,-0.7269287109375,-0.6639404296875,7.934569835662842,-0.6713866591453552,0.0
871975,-0.06494140625,-0.7152099609375,-0.6783447265625,6.103515148162842,-0.6103515625,0.0
871991,-0.0625,-0.7091064453125,-0.6834716796875,5.0048828125,-0.4882812201976776,0.1220703050494194
872022,-0.063720703125,-0.7235107421875,-0.6739501953125,0.7934569716453552,-0.1831054538488388,0.4272460639476776
872044,-0.0633544921875,-0.7203369140625,-0.6676025390625,0.0,-0.2441406100988388,0.3662109076976776
872060,-0.062744140625,-0.715576171875,-0.677734375,-1.7089842557907104,-0.2441406100988388,0.3662109076976776
872077,-0.0635986328125,-0.71484375,-0.6790771484375,-3.540038824081421,-0.1220703050494194,0.4882812201976776
872094,-0.0628662109375,-0.718505859375,-0.6707763671875,-4.39453125,-0.0610351525247097,0.6713866591453552
872110,-0.0626220703125,-0.7310791015625,-0.6583251953125,-5.798339366912842,0.0610351525247097,0.7324218153953552
872144,-0.06494140625,-0.732177734375,-0.6578369140625,-7.080077648162842,-0.0610351525247097,0.6103515625
872160,-0.0623779296875,-0.725830078125,-0.6612548828125,-7.812499523162842,0.0610351525247097,0.6713866591453552
872176,-0.0615234375,-0.7310791015625,-0.6572265625,-8.056640625,0.1831054538488388,0.6713866591453552
872212,-0.0640869140625,-0.7501220703125,-0.6368408203125,-7.629394054412842,0.1220703050494194,0.4882812201976776
872260,-0.0623779296875,-0.743896484375,-0.6405029296875,-7.019042491912842,0.1831054538488388,0.4272460639476776
872277,-0.0631103515625,-0.748046875,-0.63720703125,-6.530761241912842,0.1220703050494194,0.4882812201976776
872298,-0.0645751953125,-0.755615234375,-0.6259765625,-5.737304210662842,0.1831054538488388,0.4272460639476776
872314,-0.064453125,-0.7578125,-0.622802734375,-5.310058116912842,0.1831054538488388,0.30517578125
872331,-0.0640869140625,-0.7469482421875,-0.628173828125,-4.33349609375,0.1831054538488388,0.0
872348,-0.065185546875,-0.7462158203125,-0.6312255859375,-3.906249761581421,0.1831054538488388,0.0
872381,-0.0582275390625,-0.735107421875,-0.632080078125,-5.249022960662842,-0.4272460639476776,0.7934569716453552
872398,-0.056640625,-0.7325439453125,-0.6295166015625,-6.225585460662842,-1.03759765625,1.4038084745407104
872444,-0.08251953125,-0.800048828125,-0.84765625,-15.502928733825684,-7.690429210662842,10.925292015075684
872465,-0.154296875,-1.4864501953125,-1.3692626953125,-13.061522483825684,-6.530761241912842,10.803221702575684
872485,-0.1492919921875,-1.7703857421875,-1.41015625,-0.8544921278953552,-0.6103515625,3.906249761581421
872501,-0.138916015625,-1.6209716796875,-1.3109130859375,9.8876953125,1.6479490995407104,-2.0751953125
872518,-0.1173095703125,-1.3714599609375,-1.1624755859375,16.78466796875,3.906249761581421,-4.39453125
872535,-0.0850830078125,-1.0968017578125,-0.8240966796875,18.61572265625,3.906249761581421,-3.356933355331421
872551,-0.0755615234375,-1.0152587890625,-0.6766357421875,19.4091796875,2.0751953125,-0.8544921278953552
872572,-0.083740234375,-1.06396484375,-0.79248046875,20.385740280151367,-1.4648436307907104,1.7089842557907104
872589,-0.0987548828125,-1.14013671875,-0.896484375,21.301267623901367,-1.15966796875,1.7089842557907104
872605,-0.1094970703125,-1.1500244140625,-0.97900390625,23.132322311401367,0.0610351525247097,0.8544921278953552
872621,-0.093505859375,-1.1492919921875,-0.9600830078125,24.353025436401367,0.6103515625,1.0986328125
872637,-0.0792236328125,-1.1339111328125,-0.9251708984375,26.123044967651367,1.0986328125,0.4882812201976776
872653,-0.0548095703125,-1.06640625,-0.8494873046875,26.977537155151367,1.03759765625,0.30517578125
872686,-0.048583984375,-0.9971923828125,-0.8824462890625,25.451658248901367,1.220703125,0.6103515625
872707,-0.047607421875,-1.002197265625,-0.8978271484375,23.559568405151367,2.197265625,-0.30517578125
872723,-0.047607421875,-0.9873046875,-0.90576171875,22.705076217651367,2.685546636581421,-0.54931640625
872740,-0.0531005859375,-0.9881591796875,-0.921875,20.935056686401367,3.417968511581421,-1.4038084745407104
872757,-0.0687255859375,-0.9560546875,-0.94677734375,18.85986328125,4.94384765625,-2.563476324081421
872773,-0.068115234375,-0.849365234375,-0.877197265625,17.578125,5.981444835662842,-3.540038824081421
872807,-0.0523681640625,-0.6400146484375,-0.682861328125,12.695311546325684,7.080077648162842,-3.845214605331421
872823,-0.062255859375,-0.5985107421875,-0.6475830078125,11.169432640075684,7.019042491912842,-3.723144292831421
872839,-0.062744140625,-0.5721435546875,-0.619384765625,10.681151390075684,7.141112804412842,-3.906249761581421
872855,-0.0609130859375,-0.4984130859375,-0.5679931640625,11.047362327575684,7.263183116912842,-3.906249761581421
872875,-0.0557861328125,-0.4361572265625,-0.4991455078125,12.512206077575684,7.385253429412842,-4.08935546875
872891,-0.0487060546875,-0.3338623046875,-0.3841552734375,13.305663108825684,7.385253429412842,-4.33349609375
872907,-0.0438232421875,-0.2557373046875,-0.3135986328125,14.404295921325684,7.080077648162842,-4.33349609375
872924,-0.035400390625,-0.1317138671875,-0.1783447265625,14.770506858825684,5.981444835662842,-3.356933355331421
872945,-0.0308837890625,-0.0809326171875,-0.1259765625,14.587401390075684,5.310058116912842,-2.746581792831421
872961,-0.021484375,-0.000244140625,-0.0546875,13.488768577575684,3.845214605331421,-1.5869139432907104
872978,-0.0111083984375,0.0655517578125,-0.013671875,10.620116233825684,2.807616949081421,0.0610351525247097
872995,-0.001708984375,0.0965576171875,0.0091552734375,8.36181640625,2.197265625,0.9765624403953552
873011,0.000244140625,0.066650390625,-0.000244140625,3.906249761581421,1.0986328125,2.50244140625
873061,-0.00146484375,-0.1700439453125,-0.1356201171875,9.1552734375,-0.8544921278953552,3.356933355331421
873113,-0.0469970703125,-0.6259765625,-0.5445556640625,13.549803733825684,-2.807616949081421,5.737304210662842
873130,-0.0526123046875,-0.6954345703125,-0.66162109375,16.7236328125,-3.173827886581421,5.0048828125
873162,-0.075927734375,-0.7620849609375,-1.0665283203125,11.840819358825684,-2.50244140625,1.8310545682907104
873178,-0.078125,-0.8187255859375,-1.0068359375,16.6015625,-0.4272460639476776,1.8310545682907104
873195,-0.095458984375,-0.81494140625,-0.96923828125,17.39501953125,0.4272460639476776,0.4272460639476776
873227,-0.1036376953125,-0.6864013671875,-0.8541259765625,18.49365234375,0.9155272841453552,-0.7934569716453552
873243,-0.0924072265625,-0.6226806640625,-0.722412109375,17.39501953125,1.03759765625,-0.7934569716453552
873259,-0.091552734375,-0.5958251953125,-0.6727294921875,16.66259765625,0.7934569716453552,-0.54931640625
873275,-0.0958251953125,-0.568603515625,-0.6195068359375,14.282225608825684,0.2441406100988388,-0.3662109076976776
873296,-0.100830078125,-0.56005859375,-0.6104736328125,12.634276390075684,-0.1220703050494194,-0.0610351525247097
873317,-0.1085205078125,-0.5391845703125,-0.62548828125,11.291502952575684,-0.30517578125,0.0
873334,-0.1138916015625,-0.5684814453125,-0.6597900390625,10.009765625,-0.7934569716453552,0.4882812201976776
873351,-0.1143798828125,-0.5762939453125,-0.6953125,7.812499523162842,-1.220703125,0.54931640625
873367,-0.1107177734375,-0.59130859375,-0.7506103515625,7.324218273162842,-1.220703125,0.7324218153953552
873400,-0.1156005859375,-0.6292724609375,-0.81982421875,4.638671875,-1.15966796875,1.3427733182907104
873449,-0.0924072265625,-0.6522216796875,-0.8367919921875,1.5869139432907104,-0.7324218153953552,0.9155272841453552
873480,-0.084716796875,-0.6361083984375,-0.79638671875,-1.220703125,-0.7324218153953552,1.0986328125
873497,-0.0770263671875,-0.6351318359375,-0.7662353515625,-2.44140625,-0.6713866591453552,1.15966796875
873514,-0.0711669921875,-0.6353759765625,-0.7452392578125,-4.638671875,-0.7324218153953552,0.9155272841453552
873534,-0.05712890625,-0.608154296875,-0.71826171875,-6.774901866912842,-0.9765624403953552,0.7934569716453552
873551,-0.0543212890625,-0.600341796875,-0.7181396484375,-8.6669921875,-1.15966796875,0.7934569716453552
873584,-0.0533447265625,-0.59033203125,-0.7142333984375,-11.169432640075684,-1.2817381620407104,0.7934569716453552
873600,-0.0543212890625,-0.5972900390625,-0.7249755859375,-12.573241233825684,-1.3427733182907104,0.7934569716453552
873616,-0.0548095703125,-0.6083984375,-0.73828125,-13.183592796325684,-1.4038084745407104,0.8544921278953552
873652,-0.061767578125,-0.63671875,-0.7557373046875,-13.244627952575684,-1.7089842557907104,0.6713866591453552
873668,-0.07080078125,-0.6480712890625,-0.77001953125,-13.000487327575684,-1.7700194120407104,0.4272460639476776
873684,-0.08154296875,-0.651123046875,-0.772216796875,-12.512206077575684,-1.7700194120407104,0.3662109076976776
873700,-0.0848388671875,-0.6539306640625,-0.7645263671875,-11.535643577575684,-1.8310545682907104,0.1831054538488388
873717,-0.0858154296875,-0.6527099609375,-0.75,-10.253905296325684,-2.01416015625,0.0
873738,-0.0853271484375,-0.647216796875,-0.7398681640625,-9.70458984375,-2.13623046875,-0.0610351525247097
873754,-0.0882568359375,-0.6234130859375,-0.72314453125,-8.48388671875,-2.38037109375,-0.0610351525247097
873771,-0.08837890625,-0.6104736328125,-0.7154541015625,-7.385253429412842,-2.746581792831421,0.1831054538488388
873788,-0.083740234375,-0.6153564453125,-0.710205078125,-6.713866710662842,-2.868652105331421,0.1831054538488388
873821,-0.0811767578125,-0.6099853515625,-0.7103271484375,-4.5166015625,-3.417968511581421,0.54931640625
873838,-0.0789794921875,-0.612548828125,-0.71337890625,-3.601073980331421,-3.417968511581421,0.6103515625
873854,-0.076171875,-0.61181640625,-0.707275390625,-3.112792730331421,-3.479003667831421,0.7324218153953552
873886,-0.0670166015625,-0.629150390625,-0.68994140625,-1.0986328125,-3.662109136581421,1.03759765625
873934,-0.0584716796875,-0.6226806640625,-0.664794921875,1.3427733182907104,-3.967284917831421,0.8544921278953552
873961,-0.0537109375,-0.616943359375,-0.6597900390625,2.868652105331421,-3.784179449081421,0.54931640625
873978,-0.049072265625,-0.5927734375,-0.64013671875,3.051757574081421,-3.723144292831421,0.3662109076976776
873995,-0.04833984375,-0.57763671875,-0.631103515625,2.929687261581421,-3.662109136581421,0.30517578125
874012,-0.05126953125,-0.5733642578125,-0.635986328125,2.197265625,-3.601073980331421,0.4882812201976776
874028,-0.05322265625,-0.586669921875,-0.6531982421875,1.2817381620407104,-3.234863042831421,0.3662109076976776
874061,-0.05322265625,-0.6041259765625,-0.6607666015625,0.0,-2.868652105331421,0.2441406100988388
874078,-0.056884765625,-0.6239013671875,-0.682373046875,-0.7934569716453552,-2.563476324081421,0.1220703050494194
874099,-0.0574951171875,-0.62646484375,-0.6842041015625,-1.220703125,-2.3193359375,-0.1220703050494194
874115,-0.05517578125,-0.6138916015625,-0.6708984375,-1.8920897245407104,-2.01416015625,-0.4272460639476776
874132,-0.0543212890625,-0.599365234375,-0.6590576171875,-2.868652105331421,-1.8920897245407104,-0.4882812201976776
874149,-0.0560302734375,-0.591796875,-0.65185546875,-3.479003667831421,-1.8310545682907104,-0.4272460639476776
874182,-0.054931640625,-0.571044921875,-0.6282958984375,-6.286620616912842,-1.4038084745407104,-0.4882812201976776
874199,-0.055419921875,-0.5738525390625,-0.633544921875,-7.751464366912842,-1.5258787870407104,-0.1831054538488388
874215,-0.056396484375,-0.5872802734375,-0.644287109375,-8.36181640625,-1.4648436307907104,-0.2441406100988388
874247,-0.055908203125,-0.6015625,-0.663818359375,-10.314940452575684,-0.8544921278953552,-0.54931640625
874263,-0.0567626953125,-0.603759765625,-0.6669921875,-10.620116233825684,-0.6713866591453552,-0.6713866591453552
874279,-0.060302734375,-0.6038818359375,-0.6641845703125,-10.864256858825684,-0.4272460639476776,-0.6713866591453552
874295,-0.06201171875,-0.6044921875,-0.6629638671875,-10.925292015075684,-0.3662109076976776,-0.6713866591453552
874320,-0.0633544921875,-0.611328125,-0.6693115234375,-10.742186546325684,-0.3662109076976776,-0.6103515625
874336,-0.062255859375,-0.626953125,-0.6844482421875,-10.314940452575684,-0.2441406100988388,-0.6103515625
874353,-0.064453125,-0.650390625,-0.7069091796875,-9.27734375,0.0,-0.7934569716453552
874370,-0.0657958984375,-0.64501953125,-0.6925048828125,-8.6669921875,0.2441406100988388,-0.9765624403953552
874386,-0.0650634765625,-0.630615234375,-0.6788330078125,-7.446288585662842,0.3662109076976776,-1.03759765625
874420,-0.069580078125,-0.6337890625,-0.6904296875,-5.249022960662842,0.2441406100988388,-0.6713866591453552
874437,-0.070556640625,-0.6337890625,-0.6884765625,-4.7607421875,0.4272460639476776,-0.6713866591453552
874458,-0.06640625,-0.6173095703125,-0.6668701171875,-3.845214605331421,0.4882812201976776,-0.6713866591453552
874474,-0.061767578125,-0.603515625,-0.6568603515625,-3.356933355331421,0.30517578125,-0.3662109076976776
874538,-0.0579833984375,-0.657958984375,-0.7071533203125,-1.8310545682907104,-0.0610351525247097,0.4272460639476776
874556,-0.0565185546875,-0.676025390625,-0.724609375,-1.4038084745407104,0.1220703050494194,0.4272460639476776
874572,-0.058349609375,-0.699462890625,-0.7421875,-0.1831054538488388,0.6103515625,0.0610351525247097
874603,-0.057373046875,-0.6805419921875,-0.7052001953125,1.4648436307907104,0.9765624403953552,-0.2441406100988388
874624,-0.0589599609375,-0.66015625,-0.68994140625,1.9531248807907104,0.9765624403953552,-0.2441406100988388
874640,-0.0587158203125,-0.649658203125,-0.6864013671875,2.01416015625,0.9765624403953552,-0.2441406100988388
874657,-0.0595703125,-0.6461181640625,-0.6865234375,2.0751953125,1.03759765625,-0.0610351525247097
874674,-0.06396484375,-0.6650390625,-0.7027587890625,2.38037109375,1.0986328125,0.0610351525247097
874690,-0.0670166015625,-0.685546875,-0.7158203125,2.624511480331421,1.15966796875,0.0610351525247097
874722,-0.0732421875,-0.6998291015625,-0.7249755859375,3.906249761581421,1.4038084745407104,-0.30517578125
874738,-0.069580078125,-0.6898193359375,-0.71923828125,4.21142578125,1.4038084745407104,-0.3662109076976776
874754,-0.0687255859375,-0.688232421875,-0.7249755859375,4.82177734375,1.220703125,-0.2441406100988388
874783,-0.0684814453125,-0.6859130859375,-0.7274169921875,5.371093273162842,1.3427733182907104,-0.2441406100988388
874805,-0.0699462890625,-0.6842041015625,-0.7232666015625,5.676269054412842,1.220703125,-0.1831054538488388
874821,-0.068115234375,-0.6839599609375,-0.7203369140625,5.798339366912842,1.15966796875,0.0
874838,-0.0662841796875,-0.69384765625,-0.7314453125,6.042479991912842,0.8544921278953552,0.30517578125
874904,-0.0650634765625,-0.711669921875,-0.7567138671875,7.019042491912842,1.15966796875,0.2441406100988388
874925,-0.0633544921875,-0.70654296875,-0.763916015625,6.774901866912842,1.15966796875,0.3662109076976776
874945,-0.0587158203125,-0.6976318359375,-0.755859375,6.347655773162842,1.15966796875,0.54931640625
874961,-0.054931640625,-0.700927734375,-0.7503662109375,6.164550304412842,0.9155272841453552,0.7324218153953552
874978,-0.05712890625,-0.7020263671875,-0.7532958984375,6.164550304412842,0.9155272841453552,0.7324218153953552
875003,-0.0582275390625,-0.6942138671875,-0.73828125,6.225585460662842,0.7934569716453552,0.9765624403953552
875022,-0.0599365234375,-0.69287109375,-0.7347412109375,6.103515148162842,0.4272460639476776,1.15966796875
875038,-0.060302734375,-0.69970703125,-0.7490234375,6.164550304412842,0.3662109076976776,1.2817381620407104
875055,-0.0614013671875,-0.7042236328125,-0.7501220703125,6.347655773162842,0.4272460639476776,1.2817381620407104
875092,-0.072509765625,-0.703369140625,-0.7574462890625,6.591796398162842,0.30517578125,1.4648436307907104
875108,-0.0765380859375,-0.7037353515625,-0.7547607421875,6.591796398162842,0.1831054538488388,1.5869139432907104
875124,-0.0826416015625,-0.7174072265625,-0.7744140625,6.713866710662842,-0.1220703050494194,1.8310545682907104
875140,-0.085693359375,-0.744873046875,-0.803955078125,7.019042491912842,-0.1831054538488388,1.7700194120407104
875157,-0.0863037109375,-0.7486572265625,-0.8079833984375,7.202147960662842,-0.0610351525247097,1.5869139432907104
875178,-0.0869140625,-0.7342529296875,-0.7998046875,7.568358898162842,-0.0610351525247097,1.5258787870407104
875194,-0.08935546875,-0.731201171875,-0.80517578125,7.751464366912842,-0.1220703050494194,1.5869139432907104
875212,-0.0869140625,-0.72509765625,-0.80078125,7.995604991912842,-0.0610351525247097,1.5258787870407104
875229,-0.0858154296875,-0.7216796875,-0.7978515625,8.11767578125,-0.0610351525247097,1.5258787870407104
875262,-0.08642578125,-0.6971435546875,-0.7720947265625,8.11767578125,-0.2441406100988388,1.5258787870407104
875278,-0.0849609375,-0.6929931640625,-0.7679443359375,8.056640625,-0.3662109076976776,1.5258787870407104
875294,-0.0816650390625,-0.6951904296875,-0.7745361328125,7.812499523162842,-0.6103515625,1.6479490995407104
875323,-0.0804443359375,-0.7066650390625,-0.7955322265625,7.141112804412842,-0.9765624403953552,1.5869139432907104
875345,-0.0849609375,-0.6947021484375,-0.7984619140625,6.835937023162842,-0.9155272841453552,1.5258787870407104
875361,-0.086181640625,-0.6766357421875,-0.7767333984375,5.981444835662842,-0.7934569716453552,1.5869139432907104
875378,-0.083740234375,-0.6658935546875,-0.7662353515625,4.94384765625,-0.9765624403953552,1.7700194120407104
875395,-0.075927734375,-0.6656494140625,-0.7569580078125,4.45556640625,-1.15966796875,2.01416015625
875411,-0.0706787109375,-0.6763916015625,-0.777099609375,3.662109136581421,-1.5869139432907104,2.197265625
875445,-0.0655517578125,-0.661865234375,-0.7593994140625,3.173827886581421,-1.4038084745407104,2.38037109375
875461,-0.062744140625,-0.6693115234375,-0.7515869140625,3.234863042831421,-1.5869139432907104,2.44140625
875477,-0.061279296875,-0.67138671875,-0.755126953125,3.173827886581421,-1.6479490995407104,2.44140625
875518,-0.055908203125,-0.6502685546875,-0.72265625,2.563476324081421,-1.5258787870407104,2.25830078125
875534,-0.0535888671875,-0.6534423828125,-0.7225341796875,2.25830078125,-1.5869139432907104,2.3193359375
875551,-0.05712890625,-0.6458740234375,-0.7186279296875,1.7089842557907104,-1.5869139432907104,2.3193359375
875572,-0.098876953125,-0.6981201171875,-0.7666015625,0.7324218153953552,-4.8828125,5.126952648162842
875588,-0.1314697265625,-1.6630859375,-1.9356689453125,-4.45556640625,1.3427733182907104,0.2441406100988388
875605,-0.0250244140625,-0.368896484375,-0.3699951171875,-6.286620616912842,3.234863042831421,-2.25830078125
875622,-0.0018310546875,-0.23486328125,-0.2542724609375,-5.0048828125,0.1220703050494194,0.54931640625
875638,-0.0159912109375,-0.460693359375,-0.492919921875,-0.7324218153953552,-2.3193359375,1.7700194120407104
875654,-0.0931396484375,-1.1036376953125,-1.282470703125,0.8544921278953552,-0.54931640625,-0.54931640625
875684,-0.0313720703125,-0.3521728515625,-0.485107421875,-0.6713866591453552,-0.4882812201976776,0.1831054538488388
875705,-0.1053466796875,-0.7900390625,-0.9224853515625,0.0,-0.2441406100988388,0.7324218153953552
875722,-0.0509033203125,-0.6219482421875,-0.677734375,-0.1220703050494194,1.0986328125,-0.30517578125
875739,-0.0401611328125,-0.6026611328125,-0.6280517578125,0.6713866591453552,0.0,0.0
875755,-0.0616455078125,-0.6898193359375,-0.803466796875,0.8544921278953552,-0.4882812201976776,-0.0610351525247097
875772,-0.0557861328125,-0.5965576171875,-0.728515625,0.1220703050494194,0.1220703050494194,-0.4272460639476776
875805,-0.071044921875,-0.6590576171875,-0.7689208984375,-1.6479490995407104,0.2441406100988388,0.4272460639476776
875821,-0.054931640625,-0.637451171875,-0.7174072265625,-1.6479490995407104,0.1220703050494194,0.3662109076976776
875837,-0.0562744140625,-0.6651611328125,-0.73486328125,-1.15966796875,-0.1831054538488388,0.30517578125
875878,-0.06494140625,-0.631103515625,-0.74560546875,-1.2817381620407104,-0.2441406100988388,0.2441406100988388
875894,-0.0623779296875,-0.64453125,-0.7520751953125,-1.5258787870407104,0.0,0.2441406100988388
875911,-0.0579833984375,-0.6458740234375,-0.7342529296875,-1.5869139432907104,0.0,0.3662109076976776
875932,-0.06103515625,-0.653076171875,-0.7322998046875,-1.15966796875,-0.2441406100988388,0.3662109076976776
875948,-0.0650634765625,-0.6495361328125,-0.737060546875,-0.8544921278953552,-0.1831054538488388,0.1831054538488388
875965,-0.060302734375,-0.640625,-0.74169921875,-0.7934569716453552,-0.1831054538488388,0.30517578125
875982,-0.0584716796875,-0.6427001953125,-0.741943359375,-0.7324218153953552,-0.1220703050494194,0.3662109076976776
876046,-0.0626220703125,-0.64697265625,-0.7449951171875,0.6713866591453552,-0.3662109076976776,0.2441406100988388
876066,-0.0574951171875,-0.64208984375,-0.7373046875,0.6103515625,-0.2441406100988388,0.30517578125
876082,-0.0615234375,-0.649658203125,-0.740478515625,0.7324218153953552,-0.1831054538488388,0.2441406100988388
876102,-0.064208984375,-0.6514892578125,-0.730712890625,0.8544921278953552,-0.1831054538488388,0.30517578125
876123,-0.0626220703125,-0.64794921875,-0.7398681640625,1.0986328125,-0.30517578125,0.2441406100988388
876144,-0.060302734375,-0.644775390625,-0.7392578125,1.15966796875,-0.30517578125,0.2441406100988388
876159,-0.06103515625,-0.6458740234375,-0.7452392578125,1.2817381620407104,-0.2441406100988388,0.30517578125
876176,-0.063720703125,-0.6466064453125,-0.7296142578125,1.3427733182907104,-0.1831054538488388,0.30517578125
876192,-0.063720703125,-0.649169921875,-0.7314453125,1.7700194120407104,-0.2441406100988388,0.2441406100988388
876242,-0.061279296875,-0.6435546875,-0.7408447265625,2.563476324081421,-0.4272460639476776,0.1831054538488388
876294,-0.059326171875,-0.6466064453125,-0.7374267578125,3.051757574081421,-0.4272460639476776,0.1831054538488388
876311,-0.0606689453125,-0.6422119140625,-0.7393798828125,2.990722417831421,-0.4272460639476776,0.1831054538488388
876342,-0.06298828125,-0.64404296875,-0.745361328125,2.929687261581421,-0.3662109076976776,0.2441406100988388
876358,-0.06103515625,-0.642578125,-0.740966796875,2.990722417831421,-0.3662109076976776,0.2441406100988388
876374,-0.0611572265625,-0.64111328125,-0.7403564453125,3.051757574081421,-0.30517578125,0.1831054538488388
876407,-0.0634765625,-0.6400146484375,-0.745849609375,3.051757574081421,-0.3662109076976776,0.1831054538488388
876423,-0.0635986328125,-0.6405029296875,-0.746337890625,3.112792730331421,-0.3662109076976776,0.2441406100988388
876439,-0.0609130859375,-0.640380859375,-0.7470703125,3.051757574081421,-0.3662109076976776,0.1831054538488388
876455,-0.0587158203125,-0.637451171875,-0.744384765625,2.990722417831421,-0.3662109076976776,0.1831054538488388
876475,-0.0640869140625,-0.63720703125,-0.745849609375,2.868652105331421,-0.4272460639476776,0.2441406100988388
876491,-0.0648193359375,-0.6356201171875,-0.7437744140625,2.868652105331421,-0.4272460639476776,0.2441406100988388
876507,-0.062744140625,-0.6383056640625,-0.74853515625,2.807616949081421,-0.4272460639476776,0.2441406100988388
876523,-0.060546875,-0.639404296875,-0.75,2.746581792831421,-0.4272460639476776,0.1831054538488388
876544,-0.0594482421875,-0.635009765625,-0.749755859375,2.624511480331421,-0.3662109076976776,0.2441406100988388
876560,-0.063232421875,-0.6334228515625,-0.74755859375,2.44140625,-0.3662109076976776,0.1831054538488388
876610,-0.0579833984375,-0.63330078125,-0.748046875,1.9531248807907104,-0.3662109076976776,0.2441406100988388
876654,-0.0623779296875,-0.632568359375,-0.7493896484375,1.5258787870407104,-0.30517578125,0.30517578125
876671,-0.062744140625,-0.6341552734375,-0.75146484375,1.3427733182907104,-0.2441406100988388,0.30517578125
876702,-0.060791015625,-0.6337890625,-0.7520751953125,1.0986328125,-0.3662109076976776,0.30517578125
876718,-0.060546875,-0.633544921875,-0.751953125,0.9155272841453552,-0.30517578125,0.30517578125
876735,-0.0615234375,-0.6309814453125,-0.7518310546875,0.7934569716453552,-0.30517578125,0.3662109076976776
876767,-0.0628662109375,-0.6331787109375,-0.751708984375,0.3662109076976776,-0.2441406100988388,0.30517578125
876783,-0.061279296875,-0.635009765625,-0.7515869140625,0.2441406100988388,-0.2441406100988388,0.3662109076976776
876799,-0.05908203125,-0.63232421875,-0.749755859375,0.0610351525247097,-0.3662109076976776,0.2441406100988388
876815,-0.0631103515625,-0.6322021484375,-0.752197265625,-0.0610351525247097,-0.3662109076976776,0.1831054538488388
876840,-0.062255859375,-0.6324462890625,-0.7508544921875,-0.30517578125,-0.30517578125,0.2441406100988388
876856,-0.0609130859375,-0.631591796875,-0.7537841796875,-0.6713866591453552,-0.2441406100988388,0.3662109076976776
876873,-0.0625,-0.6309814453125,-0.75,-1.0986328125,-0.2441406100988388,0.3662109076976776
876890,-0.06396484375,-0.6348876953125,-0.748291015625,-1.220703125,-0.2441406100988388,0.3662109076976776
876907,-0.0589599609375,-0.63720703125,-0.747802734375,-1.4038084745407104,-0.2441406100988388,0.4882812201976776
876939,-0.0621337890625,-0.6387939453125,-0.7431640625,-1.5258787870407104,-0.30517578125,0.4882812201976776
876988,-0.0633544921875,-0.638671875,-0.7381591796875,-1.0986328125,-0.1831054538488388,0.54931640625
877020,-0.0592041015625,-0.6458740234375,-0.740234375,-0.4882812201976776,-0.30517578125,0.4882812201976776
877037,-0.0596923828125,-0.6458740234375,-0.739501953125,0.1831054538488388,-0.4882812201976776,0.4882812201976776
877053,-0.0618896484375,-0.64501953125,-0.73876953125,0.7934569716453552,-0.4272460639476776,0.4272460639476776
877074,-0.0628662109375,-0.6402587890625,-0.741455078125,1.3427733182907104,-0.54931640625,0.4272460639476776
877090,-0.060302734375,-0.6453857421875,-0.741455078125,2.13623046875,-0.54931640625,0.54931640625
877107,-0.0596923828125,-0.648681640625,-0.7364501953125,2.990722417831421,-0.54931640625,0.3662109076976776
877123,-0.060791015625,-0.6466064453125,-0.7374267578125,3.417968511581421,-0.4882812201976776,0.2441406100988388
877144,-0.0628662109375,-0.642333984375,-0.7392578125,4.21142578125,-0.6103515625,0.2441406100988388
877160,-0.0606689453125,-0.64111328125,-0.7454833984375,4.57763671875,-0.6103515625,0.2441406100988388
877177,-0.0595703125,-0.6416015625,-0.7410888671875,5.249022960662842,-0.4882812201976776,0.2441406100988388
877194,-0.0615234375,-0.6395263671875,-0.740966796875,6.164550304412842,-0.4882812201976776,0.0610351525247097
877210,-0.064453125,-0.6356201171875,-0.7449951171875,6.530761241912842,-0.54931640625,0.0610351525247097
877243,-0.0592041015625,-0.6309814453125,-0.7529296875,7.019042491912842,-0.54931640625,0.0
877265,-0.0582275390625,-0.6278076171875,-0.7552490234375,6.896972179412842,-0.54931640625,0.0
877281,-0.0628662109375,-0.6217041015625,-0.7596435546875,6.652831554412842,-0.4882812201976776,0.0
877298,-0.0633544921875,-0.6220703125,-0.7615966796875,6.042479991912842,-0.4272460639476776,0.0
877315,-0.060791015625,-0.6217041015625,-0.7642822265625,5.187987804412842,-0.4882812201976776,0.0610351525247097
877331,-0.0574951171875,-0.61669921875,-0.76171875,4.69970703125,-0.4882812201976776,0.1220703050494194
877363,-0.0611572265625,-0.6197509765625,-0.7669677734375,2.807616949081421,-0.30517578125,0.2441406100988388
877385,-0.0618896484375,-0.6138916015625,-0.7645263671875,1.7700194120407104,-0.2441406100988388,0.30517578125
877401,-0.0584716796875,-0.6187744140625,-0.7642822265625,1.3427733182907104,-0.2441406100988388,0.30517578125
877418,-0.0592041015625,-0.6173095703125,-0.7623291015625,0.6103515625,-0.2441406100988388,0.2441406100988388
877484,-0.0601806640625,-0.6212158203125,-0.7611083984375,-1.3427733182907104,-0.1220703050494194,0.30517578125
877501,-0.06005859375,-0.61962890625,-0.7603759765625,-1.8920897245407104,0.0,0.2441406100988388
877517,-0.0618896484375,-0.62060546875,-0.7611083984375,-2.197265625,0.1220703050494194,0.2441406100988388
877553,-0.0516357421875,-0.6241455078125,-0.7249755859375,-2.868652105331421,-0.3662109076976776,0.4272460639476776
877569,-0.0523681640625,-0.5968017578125,-0.774658203125,-3.906249761581421,-2.3193359375,1.5869139432907104
877585,-0.0516357421875,-0.590087890625,-0.7828369140625,-5.676269054412842,-3.417968511581421,2.563476324081421
877601,-0.054443359375,-0.5489501953125,-0.8536376953125,-11.718749046325684,-7.080077648162842,5.554198741912842
877618,-0.106689453125,-0.782958984375,-1.330078125,-13.854979515075684,-8.11767578125,7.202147960662842
877639,-0.12890625,-1.01904296875,-1.5858154296875,-11.474608421325684,-2.563476324081421,6.225585460662842
877655,-0.1180419921875,-1.388427734375,-1.6400146484375,-2.563476324081421,2.197265625,2.197265625
877672,-0.0836181640625,-1.3779296875,-1.4378662109375,1.8310545682907104,3.479003667831421,-0.4272460639476776
877689,-0.0679931640625,-1.071533203125,-1.12646484375,9.8876953125,4.7607421875,-4.08935546875
877722,-0.0845947265625,-0.86376953125,-0.89794921875,16.05224609375,1.220703125,-0.4272460639476776
877738,-0.0970458984375,-0.9671630859375,-0.9642333984375,17.39501953125,0.3662109076976776,0.30517578125
877754,-0.0980224609375,-1.0078125,-1.0308837890625,21.972654342651367,-0.6103515625,0.6103515625
877786,-0.100830078125,-1.1011962890625,-1.1646728515625,29.357908248901367,0.30517578125,-1.4648436307907104
877802,-0.0975341796875,-0.973388671875,-1.099365234375,31.982419967651367,0.9765624403953552,-1.7089842557907104
877818,-0.0816650390625,-0.8702392578125,-1.0355224609375,32.470703125,0.7934569716453552,-1.3427733182907104
877834,-0.069580078125,-0.87109375,-0.9959716796875,32.470703125,0.3662109076976776,0.0
877859,-0.067138671875,-0.8792724609375,-0.982421875,31.555173873901367,-0.4272460639476776,0.1220703050494194
877875,-0.0753173828125,-0.893798828125,-1.0166015625,30.456541061401367,-0.4272460639476776,-0.1831054538488388
877892,-0.06640625,-0.83251953125,-1.060546875,29.663084030151367,-0.1831054538488388,-0.6713866591453552
877913,-0.0556640625,-0.7979736328125,-1.0555419921875,27.099607467651367,0.4882812201976776,-0.6103515625
877929,-0.0557861328125,-0.7412109375,-1.05029296875,23.498533248901367,0.9765624403953552,-0.4272460639476776
877962,-0.0595703125,-0.6153564453125,-0.9481201171875,15.991209983825684,3.051757574081421,-1.0986328125
877984,-0.0452880859375,-0.517822265625,-0.8173828125,14.038084983825684,3.356933355331421,-1.03759765625
878000,-0.0406494140625,-0.4375,-0.7066650390625,9.94873046875,3.417968511581421,-0.8544921278953552
878017,-0.0404052734375,-0.3837890625,-0.6365966796875,6.225585460662842,3.662109136581421,-0.9155272841453552
878034,-0.0413818359375,-0.274658203125,-0.4954833984375,4.33349609375,3.479003667831421,-0.6713866591453552
878050,-0.0379638671875,-0.2056884765625,-0.390380859375,0.4272460639476776,2.868652105331421,-0.1220703050494194
878084,-0.0272216796875,-0.13134765625,-0.2445068359375,-6.774901866912842,1.7089842557907104,0.4882812201976776
878100,-0.029296875,-0.0792236328125,-0.16650390625,-10.498045921325684,1.0986328125,0.7934569716453552
878116,-0.0340576171875,-0.0472412109375,-0.1402587890625,-12.207030296325684,1.03759765625,0.9155272841453552
878148,-0.0194091796875,0.087890625,-0.0189208984375,-13.000487327575684,0.4882812201976776,2.685546636581421
878196,-0.01025390625,0.0072021484375,-0.067138671875,-25.756834030151367,-1.7089842557907104,5.859374523162842
878217,-0.0166015625,-0.0865478515625,-0.1954345703125,-21.423337936401367,-2.13623046875,6.103515148162842
878234,-0.0244140625,-0.299072265625,-0.339599609375,-16.4794921875,-2.13623046875,6.225585460662842
878266,0.010498046875,-0.2835693359375,-0.460205078125,-10.864256858825684,-3.784179449081421,6.896972179412842
878283,-0.0537109375,-0.64794921875,-0.747314453125,-4.57763671875,-4.150390625,5.920409679412842
878299,-0.0662841796875,-0.758544921875,-0.9710693359375,-7.080077648162842,-2.38037109375,5.126952648162842
878315,-0.069091796875,-0.8736572265625,-1.124755859375,-5.493163585662842,-0.1831054538488388,2.13623046875
878335,-0.072265625,-0.8106689453125,-1.0333251953125,0.4272460639476776,0.8544921278953552,0.7324218153953552
878351,-0.091064453125,-0.812255859375,-0.9564208984375,4.33349609375,0.9765624403953552,-1.15966796875
878367,-0.0950927734375,-0.7374267578125,-0.9456787109375,7.385253429412842,1.220703125,-1.5258787870407104
878383,-0.0885009765625,-0.60986328125,-0.8729248046875,14.160155296325684,1.4648436307907104,-2.3193359375
878404,-0.090576171875,-0.548828125,-0.810546875,15.686034202575684,1.5869139432907104,-2.38037109375
878420,-0.080810546875,-0.4385986328125,-0.68701171875,16.4794921875,1.15966796875,-2.13623046875
878437,-0.08154296875,-0.344482421875,-0.654052734375,17.51708984375,0.4272460639476776,-1.15966796875
878454,-0.0826416015625,-0.368408203125,-0.669677734375,17.27294921875,0.0610351525247097,-0.6103515625
878470,-0.089111328125,-0.423828125,-0.7119140625,17.39501953125,-0.3662109076976776,-0.1831054538488388
878503,-0.0894775390625,-0.4986572265625,-0.7696533203125,17.7001953125,-0.6103515625,0.1831054538488388
878525,-0.0872802734375,-0.5234375,-0.786376953125,18.00537109375,-0.7324218153953552,0.2441406100988388
878541,-0.0816650390625,-0.5673828125,-0.8487548828125,19.10400390625,-1.03759765625,0.2441406100988388
878558,-0.0797119140625,-0.5819091796875,-0.86181640625,20.568845748901367,-1.2817381620407104,0.4882812201976776
878575,-0.072998046875,-0.58837890625,-0.87841796875,21.362302780151367,-1.4038084745407104,0.54931640625
878591,-0.060302734375,-0.5916748046875,-0.8731689453125,22.827146530151367,-1.5258787870407104,0.6103515625
878624,-0.0421142578125,-0.542236328125,-0.8109130859375,23.132322311401367,-2.01416015625,0.4272460639476776
878641,-0.037841796875,-0.510009765625,-0.796630859375,22.705076217651367,-2.3193359375,0.4882812201976776
878657,-0.0352783203125,-0.50927734375,-0.797607421875,21.972654342651367,-2.746581792831421,0.6103515625
878693,-0.02734375,-0.4906005859375,-0.8194580078125,16.9677734375,-3.112792730331421,0.1220703050494194
878709,-0.0289306640625,-0.4852294921875,-0.8328857421875,15.136717796325684,-3.112792730331421,0.0610351525247097
878725,-0.0338134765625,-0.495849609375,-0.861572265625,11.596678733825684,-2.929687261581421,-0.54931640625
878741,-0.0260009765625,-0.49462890625,-0.8499755859375,9.8876953125,-2.746581792831421,-0.9155272841453552
878758,-0.02392578125,-0.41259765625,-0.8623046875,10.864256858825684,-2.25830078125,-0.7324218153953552
878779,-0.0472412109375,-0.5262451171875,-0.8944091796875,13.793944358825684,-2.0751953125,-0.7934569716453552
878795,-0.04833984375,-0.4754638671875,-0.9000244140625,11.718749046325684,-1.9531248807907104,-1.15966796875
878812,-0.0469970703125,-0.477294921875,-0.8973388671875,8.056640625,-1.3427733182907104,-1.15966796875
878829,-0.0513916015625,-0.4822998046875,-0.894775390625,6.164550304412842,-1.220703125,-1.4038084745407104
878862,-0.0546875,-0.486083984375,-0.8746337890625,3.417968511581421,-0.6713866591453552,-1.8310545682907104
878879,-0.0552978515625,-0.4854736328125,-0.8646240234375,1.4648436307907104,-0.4882812201976776,-1.8310545682907104
878895,-0.058349609375,-0.47998046875,-0.871826171875,-0.0610351525247097,-0.4272460639476776,-1.8310545682907104
878923,-0.057373046875,-0.4854736328125,-0.86669921875,-1.4038084745407104,-0.0610351525247097,-2.01416015625
878945,-0.0577392578125,-0.4873046875,-0.864501953125,-2.0751953125,-0.0610351525247097,-2.01416015625
878961,-0.0592041015625,-0.48046875,-0.85693359375,-2.746581792831421,0.0,-2.197265625
878978,-0.0556640625,-0.472900390625,-0.8448486328125,-4.08935546875,0.0610351525247097,-2.13623046875
878995,-0.0550537109375,-0.4783935546875,-0.843505859375,-4.33349609375,0.0,-2.0751953125
879011,-0.05615234375,-0.4857177734375,-0.8421630859375,-5.0048828125,0.1220703050494194,-2.13623046875
879045,-0.0487060546875,-0.44287109375,-0.7650146484375,-6.225585460662842,0.6103515625,-2.807616949081421
879061,-0.045166015625,-0.4215087890625,-0.72705078125,-6.652831554412842,0.54931640625,-2.807616949081421
879077,-0.04052734375,-0.3992919921875,-0.6705322265625,-8.11767578125,0.1831054538488388,-2.929687261581421
879113,-0.0223388671875,-0.2977294921875,-0.5748291015625,-11.230467796325684,0.30517578125,-3.295898199081421
879129,-0.0184326171875,-0.2740478515625,-0.5540771484375,-14.526366233825684,0.2441406100988388,-2.990722417831421
879145,-0.00927734375,-0.2528076171875,-0.52197265625,-17.39501953125,-0.0610351525247097,-2.563476324081421
879161,-0.00927734375,-0.263916015625,-0.531005859375,-18.98193359375,-0.3662109076976776,-2.25830078125
879178,-0.017578125,-0.32080078125,-0.5887451171875,-21.179197311401367,-0.30517578125,-2.38037109375
879199,-0.0234375,-0.360107421875,-0.6402587890625,-22.521970748901367,-0.0610351525247097,-2.50244140625
879215,-0.0301513671875,-0.403076171875,-0.6934814453125,-22.644041061401367,0.0,-2.563476324081421
879282,-0.0577392578125,-0.448486328125,-0.6912841796875,-17.88330078125,0.54931640625,-3.356933355331421
879302,-0.0609130859375,-0.4559326171875,-0.6866455078125,-16.17431640625,0.30517578125,-3.112792730331421
879322,-0.0626220703125,-0.4566650390625,-0.6663818359375,-14.099120140075684,-0.1220703050494194,-2.868652105331421
879343,-0.0726318359375,-0.4803466796875,-0.6707763671875,-11.474608421325684,-0.6713866591453552,-2.563476324081421
879363,-0.083740234375,-0.515869140625,-0.7064208984375,-8.4228515625,-0.8544921278953552,-2.624511480331421
879379,-0.0859375,-0.51220703125,-0.6925048828125,-5.310058116912842,-0.9765624403953552,-2.868652105331421
879395,-0.0904541015625,-0.4984130859375,-0.6925048828125,-2.624511480331421,-1.3427733182907104,-2.563476324081421
879415,-0.090087890625,-0.498291015625,-0.705078125,-0.30517578125,-1.7089842557907104,-2.197265625
879435,-0.0875244140625,-0.5223388671875,-0.735595703125,2.0751953125,-2.0751953125,-1.7700194120407104
879451,-0.088134765625,-0.537841796875,-0.7569580078125,3.173827886581421,-2.13623046875,-1.7089842557907104
879467,-0.09423828125,-0.5621337890625,-0.7802734375,5.615233898162842,-2.0751953125,-1.6479490995407104
879488,-0.098388671875,-0.563232421875,-0.7840576171875,6.774901866912842,-2.13623046875,-1.5869139432907104
879504,-0.10498046875,-0.5670166015625,-0.7952880859375,9.09423828125,-2.13623046875,-1.4038084745407104
879520,-0.0997314453125,-0.5426025390625,-0.774169921875,10.620116233825684,-2.197265625,-1.220703125
879536,-0.09423828125,-0.5360107421875,-0.7589111328125,11.047362327575684,-2.50244140625,-0.7324218153953552
879553,-0.0953369140625,-0.5462646484375,-0.7730712890625,11.779784202575684,-3.417968511581421,0.1831054538488388
879586,-0.094970703125,-0.6083984375,-0.8577880859375,14.038084983825684,-3.601073980331421,0.54931640625
879602,-0.0908203125,-0.6005859375,-0.854736328125,14.221190452575684,-3.662109136581421,0.6713866591453552
879618,-0.0841064453125,-0.5809326171875,-0.8631591796875,14.038084983825684,-3.662109136581421,1.03759765625
879634,-0.0716552734375,-0.5633544921875,-0.8333740234375,13.732909202575684,-3.540038824081421,1.220703125
879654,-0.058837890625,-0.560302734375,-0.829345703125,13.183592796325684,-3.967284917831421,1.7089842557907104
879670,-0.055908203125,-0.587646484375,-0.854248046875,12.634276390075684,-4.57763671875,2.3193359375
879702,-0.0450439453125,-0.641357421875,-0.949951171875,11.779784202575684,-4.0283203125,2.13623046875
879718,-0.0389404296875,-0.642822265625,-0.96533203125,10.742186546325684,-3.112792730331421,1.4648436307907104
