tMillis,ax,ay,az,gx,gy,gz
407479,0.0399169921875,0.0052490234375,1.0255126953125,0.7934569716453552,-0.1831054538488388,0.1831054538488388
407496,0.039794921875,0.0057373046875,1.025390625,0.7934569716453552,-0.1831054538488388,0.2441406100988388
407512,0.040283203125,0.00537109375,1.0262451171875,0.7934569716453552,-0.1831054538488388,0.2441406100988388
407545,0.03857421875,0.0054931640625,1.0250244140625,0.7934569716453552,-0.2441406100988388,0.2441406100988388
407598,0.0404052734375,0.006103515625,1.025634765625,0.7324218153953552,-0.1831054538488388,0.2441406100988388
407615,0.040283203125,0.00634765625,1.026123046875,0.7934569716453552,-0.1831054538488388,0.2441406100988388
407650,0.040283203125,0.005859375,1.025390625,0.7324218153953552,-0.1831054538488388,0.1831054538488388
407667,0.039306640625,0.0052490234375,1.0244140625,0.7324218153953552,-0.1831054538488388,0.1831054538488388
407684,0.0394287109375,0.0050048828125,1.025390625,0.7324218153953552,-0.1831054538488388,0.2441406100988388
407700,0.0396728515625,0.005859375,1.025390625,0.8544921278953552,-0.2441406100988388,0.2441406100988388
407754,0.03955078125,0.0059814453125,1.0264892578125,0.7934569716453552,-0.30517578125,0.2441406100988388
407779,0.03955078125,0.005126953125,1.0255126953125,0.7934569716453552,-0.1831054538488388,0.2441406100988388
407796,0.03955078125,0.0052490234375,1.0250244140625,0.7934569716453552,-0.1831054538488388,0.2441406100988388
407831,0.040283203125,0.0054931640625,1.0250244140625,0.8544921278953552,-0.1220703050494194,0.1831054538488388
407847,0.0401611328125,0.0057373046875,1.02490234375,0.8544921278953552,-0.1220703050494194,0.1831054538488388
407864,0.039794921875,0.00537109375,1.025146484375,0.7934569716453552,-0.1831054538488388,0.1831054538488388
407880,0.0396728515625,0.0068359375,1.0247802734375,0.7934569716453552,-0.1831054538488388,0.1831054538488388
407897,0.0399169921875,0.006591796875,1.0252685546875,0.7934569716453552,-0.1831054538488388,0.2441406100988388
407918,0.0399169921875,0.0062255859375,1.025634765625,0.7934569716453552,-0.1831054538488388,0.1831054538488388
407968,0.0401611328125,0.00634765625,1.0262451171875,0.7934569716453552,-0.1831054538488388,0.30517578125
408022,0.0401611328125,0.0054931640625,1.0257568359375,0.7934569716453552,-0.1831054538488388,0.2441406100988388
408039,0.039794921875,0.0057373046875,1.02587890625,0.7324218153953552,-0.1220703050494194,0.2441406100988388
408056,0.0391845703125,0.005615234375,1.0260009765625,0.7324218153953552,-0.1831054538488388,0.2441406100988388
408076,0.039306640625,0.005615234375,1.024658203125,0.7934569716453552,-0.2441406100988388,0.2441406100988388
408093,0.0400390625,0.005859375,1.0263671875,0.7324218153953552,-0.1831054538488388,0.2441406100988388
408109,0.0390625,0.00537109375,1.0264892578125,0.7934569716453552,-0.1831054538488388,0.2441406100988388
408126,0.0391845703125,0.005126953125,1.0250244140625,0.7934569716453552,-0.2441406100988388,0.2441406100988388
408142,0.0399169921875,0.0059814453125,1.0240478515625,0.9155272841453552,-0.2441406100988388,0.30517578125
408158,0.0394287109375,0.0059814453125,1.02490234375,0.7934569716453552,-0.1831054538488388,0.2441406100988388
408193,0.0396728515625,0.0057373046875,1.0255126953125,0.8544921278953552,-0.1831054538488388,0.2441406100988388
408249,0.0401611328125,0.005859375,1.0247802734375,0.7934569716453552,-0.1831054538488388,0.2441406100988388
408266,0.03955078125,0.005126953125,1.026611328125,0.8544921278953552,-0.1220703050494194,0.2441406100988388
408283,0.039306640625,0.0057373046875,1.0262451171875,0.8544921278953552,-0.1220703050494194,0.2441406100988388
408299,0.039306640625,0.005859375,1.02490234375,0.7934569716453552,-0.1831054538488388,0.2441406100988388
408316,0.038818359375,0.00634765625,1.0250244140625,0.7324218153953552,-0.1831054538488388,0.2441406100988388
408332,0.0382080078125,0.0059814453125,1.0252685546875,0.7324218153953552,-0.1831054538488388,0.30517578125
408365,0.040283203125,0.006103515625,1.024658203125,0.7934569716453552,-0.1831054538488388,0.1831054538488388
408381,0.03955078125,0.006103515625,1.0250244140625,0.7934569716453552,-0.1220703050494194,0.2441406100988388
408397,0.0394287109375,0.006103515625,1.0245361328125,0.8544921278953552,-0.1831054538488388,0.2441406100988388
408429,0.0401611328125,0.00634765625,1.0262451171875,0.7934569716453552,-0.1831054538488388,0.2441406100988388
408445,0.0401611328125,0.0067138671875,1.02587890625,0.8544921278953552,-0.1220703050494194,0.2441406100988388
408461,0.0401611328125,0.006103515625,1.0257568359375,0.7934569716453552,-0.1220703050494194,0.2441406100988388
408477,0.039794921875,0.005615234375,1.0255126953125,0.7934569716453552,-0.1831054538488388,0.2441406100988388
408502,0.0391845703125,0.0067138671875,1.025634765625,0.7934569716453552,-0.1831054538488388,0.1831054538488388
408518,0.0408935546875,0.005859375,1.024169921875,0.8544921278953552,-0.1831054538488388,0.30517578125
408539,0.0399169921875,0.005615234375,1.02490234375,0.7934569716453552,-0.1831054538488388,0.30517578125
408556,0.03955078125,0.0064697265625,1.02490234375,0.7934569716453552,-0.1831054538488388,0.2441406100988388
408576,0.039306640625,0.00634765625,1.0238037109375,0.7934569716453552,-0.1831054538488388,0.2441406100988388
408609,0.040283203125,0.0064697265625,1.026123046875,0.7934569716453552,-0.1831054538488388,0.1831054538488388
408662,0.0408935546875,0.006103515625,1.0252685546875,0.7934569716453552,-0.2441406100988388,0.2441406100988388
408679,0.040283203125,0.0059814453125,1.0255126953125,0.7934569716453552,-0.2441406100988388,0.2441406100988388
408700,0.0401611328125,0.005859375,1.026123046875,0.8544921278953552,-0.2441406100988388,0.30517578125
408716,0.0399169921875,0.0054931640625,1.0252685546875,0.7324218153953552,-0.1831054538488388,0.1831054538488388
408733,0.0401611328125,0.00537109375,1.0247802734375,0.7324218153953552,-0.1831054538488388,0.1831054538488388
408750,0.0399169921875,0.005126953125,1.0242919921875,0.7934569716453552,-0.1831054538488388,0.1831054538488388
408781,0.039306640625,0.006103515625,1.026611328125,0.7934569716453552,-0.1831054538488388,0.2441406100988388
408798,0.039794921875,0.0059814453125,1.0262451171875,0.7934569716453552,-0.1831054538488388,0.2441406100988388
408814,0.039794921875,0.006103515625,1.02392578125,0.8544921278953552,-0.1831054538488388,0.2441406100988388
408846,0.039794921875,0.00537109375,1.025390625,0.7934569716453552,-0.1220703050494194,0.2441406100988388
408867,0.0382080078125,0.005615234375,1.0247802734375,0.8544921278953552,-0.1831054538488388,0.30517578125
408883,0.0386962890625,0.0052490234375,1.023681640625,0.7934569716453552,-0.1831054538488388,0.2441406100988388
408900,0.039306640625,0.006103515625,1.0242919921875,0.8544921278953552,-0.1831054538488388,0.2441406100988388
408966,0.03955078125,0.005126953125,1.0234375,0.8544921278953552,-0.1831054538488388,0.2441406100988388
409039,0.039794921875,0.006103515625,1.025146484375,0.7934569716453552,-0.1831054538488388,0.2441406100988388
409056,0.0390625,0.006591796875,1.0250244140625,0.7934569716453552,-0.1831054538488388,0.2441406100988388
409093,0.040283203125,0.0057373046875,1.0242919921875,0.7934569716453552,-0.1220703050494194,0.2441406100988388
409110,0.0399169921875,0.0057373046875,1.0240478515625,0.8544921278953552,-0.1220703050494194,0.2441406100988388
409126,0.0386962890625,0.006103515625,1.024169921875,0.7934569716453552,-0.1831054538488388,0.2441406100988388
409142,0.0391845703125,0.0054931640625,1.025146484375,0.7934569716453552,-0.1831054538488388,0.1831054538488388
409191,0.0406494140625,0.006103515625,1.0264892578125,0.7934569716453552,-0.1831054538488388,0.2441406100988388
409223,0.04052734375,0.0059814453125,1.0255126953125,0.7324218153953552,-0.2441406100988388,0.1831054538488388
409240,0.03955078125,0.0059814453125,1.025390625,0.7934569716453552,-0.2441406100988388,0.1831054538488388
409256,0.0406494140625,0.005859375,1.0247802734375,0.7934569716453552,-0.1831054538488388,0.1831054538488388
409277,0.0399169921875,0.0062255859375,1.0250244140625,0.7934569716453552,-0.1831054538488388,0.2441406100988388
409293,0.040283203125,0.0064697265625,1.024658203125,0.7934569716453552,-0.1831054538488388,0.2441406100988388
409310,0.0404052734375,0.005859375,1.0250244140625,0.7934569716453552,-0.1831054538488388,0.2441406100988388
409323,0.0400390625,0.005859375,1.025390625,0.7934569716453552,-0.1831054538488388,0.30517578125
409378,0.039794921875,0.0052490234375,1.025146484375,0.7934569716453552,-0.1831054538488388,0.2441406100988388
409402,0.039306640625,0.0057373046875,1.0250244140625,0.7934569716453552,-0.1831054538488388,0.2441406100988388
409419,0.038818359375,0.0052490234375,1.025634765625,0.7324218153953552,-0.1831054538488388,0.30517578125
409435,0.039306640625,0.005615234375,1.02490234375,0.7934569716453552,-0.1831054538488388,0.2441406100988388
409455,0.03955078125,0.0062255859375,1.0245361328125,0.7934569716453552,-0.1831054538488388,0.1831054538488388
409472,0.0406494140625,0.00537109375,1.0250244140625,0.7934569716453552,-0.1831054538488388,0.1831054538488388
409488,0.0408935546875,0.005615234375,1.0252685546875,0.7934569716453552,-0.2441406100988388,0.2441406100988388
409504,0.0401611328125,0.00634765625,1.025634765625,0.7934569716453552,-0.1220703050494194,0.2441406100988388
409520,0.0401611328125,0.0057373046875,1.0252685546875,0.7934569716453552,-0.1220703050494194,0.2441406100988388
409536,0.0394287109375,0.0062255859375,1.0264892578125,0.7934569716453552,-0.1831054538488388,0.2441406100988388
409568,0.03955078125,0.005859375,1.0262451171875,0.7934569716453552,-0.1220703050494194,0.2441406100988388
409616,0.0400390625,0.0064697265625,1.0247802734375,0.7324218153953552,-0.2441406100988388,0.2441406100988388
409638,0.0400390625,0.0059814453125,1.025390625,0.7934569716453552,-0.1831054538488388,0.1831054538488388
409655,0.0401611328125,0.0062255859375,1.026123046875,0.7934569716453552,-0.1831054538488388,0.1831054538488388
409688,0.038818359375,0.00537109375,1.025634765625,0.7934569716453552,-0.2441406100988388,0.2441406100988388
409705,0.0401611328125,0.005126953125,1.025390625,0.7934569716453552,-0.2441406100988388,0.2441406100988388
409722,0.0404052734375,0.006103515625,1.025146484375,0.7934569716453552,-0.2441406100988388,0.2441406100988388
409738,0.0406494140625,0.0064697265625,1.02587890625,0.7934569716453552,-0.1831054538488388,0.2441406100988388
409759,0.0401611328125,0.0057373046875,1.0255126953125,0.7934569716453552,-0.1831054538488388,0.2441406100988388
409780,0.040283203125,0.0057373046875,1.02392578125,0.7324218153953552,-0.1831054538488388,0.2441406100988388
409796,0.039794921875,0.0059814453125,1.0238037109375,0.7324218153953552,-0.1831054538488388,0.1831054538488388
409813,0.0404052734375,0.0057373046875,1.0242919921875,0.7934569716453552,-0.1220703050494194,0.1220703050494194
409867,0.0400390625,0.0062255859375,1.0262451171875,0.7934569716453552,-0.2441406100988388,0.1831054538488388
409944,0.0400390625,0.0052490234375,1.025390625,0.7934569716453552,-0.1220703050494194,0.30517578125
409964,0.0394287109375,0.005615234375,1.0252685546875,0.7934569716453552,-0.1831054538488388,0.30517578125
409984,0.0399169921875,0.0057373046875,1.025146484375,0.7324218153953552,-0.1831054538488388,0.1831054538488388
410004,0.03955078125,0.00537109375,1.024169921875,0.7934569716453552,-0.1831054538488388,0.1831054538488388
410024,0.0400390625,0.0059814453125,1.0260009765625,0.8544921278953552,-0.1831054538488388,0.2441406100988388
410040,0.039306640625,0.0059814453125,1.02490234375,0.7324218153953552,-0.1831054538488388,0.2441406100988388
410057,0.040283203125,0.005859375,1.02587890625,0.7324218153953552,-0.1831054538488388,0.2441406100988388
410074,0.0404052734375,0.0057373046875,1.0263671875,0.7324218153953552,-0.1220703050494194,0.2441406100988388
410105,0.0400390625,0.00537109375,1.0260009765625,0.7934569716453552,-0.1831054538488388,0.2441406100988388
410122,0.039794921875,0.0059814453125,1.0260009765625,0.7934569716453552,-0.1220703050494194,0.2441406100988388
410138,0.0400390625,0.0062255859375,1.0255126953125,0.7934569716453552,-0.1831054538488388,0.2441406100988388
410170,0.0399169921875,0.0057373046875,1.02587890625,0.7934569716453552,-0.1831054538488388,0.2441406100988388
410218,0.0399169921875,0.00634765625,1.0250244140625,0.8544921278953552,-0.1220703050494194,0.1831054538488388
410240,0.04052734375,0.0057373046875,1.0242919921875,0.8544921278953552,-0.1220703050494194,0.1831054538488388
410257,0.040283203125,0.0050048828125,1.0252685546875,0.7324218153953552,-0.1220703050494194,0.1831054538488388
410274,0.04052734375,0.00537109375,1.025634765625,0.7324218153953552,-0.1831054538488388,0.2441406100988388
410294,0.0399169921875,0.0064697265625,1.025634765625,0.7934569716453552,-0.2441406100988388,0.2441406100988388
410311,0.0394287109375,0.0059814453125,1.0252685546875,0.7324218153953552,-0.1220703050494194,0.1831054538488388
410327,0.0400390625,0.005615234375,1.025390625,0.7934569716453552,-0.1831054538488388,0.1831054538488388
410344,0.0404052734375,0.005615234375,1.0255126953125,0.7934569716453552,-0.1831054538488388,0.2441406100988388
410360,0.03955078125,0.0050048828125,1.025634765625,0.7934569716453552,-0.2441406100988388,0.2441406100988388
410376,0.0394287109375,0.0057373046875,1.0257568359375,0.7934569716453552,-0.1831054538488388,0.1831054538488388
410408,0.0396728515625,0.0064697265625,1.0247802734375,0.7934569716453552,-0.1220703050494194,0.30517578125
410456,0.0396728515625,0.0057373046875,1.025390625,0.8544921278953552,-0.1831054538488388,0.2441406100988388
410483,0.0401611328125,0.0059814453125,1.025634765625,0.7324218153953552,-0.1831054538488388,0.1831054538488388
410500,0.0401611328125,0.0057373046875,1.0255126953125,0.7324218153953552,-0.1220703050494194,0.1831054538488388
410517,0.0406494140625,0.00537109375,1.02490234375,0.8544921278953552,-0.1831054538488388,0.30517578125
410567,0.0396728515625,0.006103515625,1.025146484375,0.7324218153953552,-0.1220703050494194,0.2441406100988388
410599,0.04052734375,0.0062255859375,1.025634765625,0.7934569716453552,-0.1831054538488388,0.2441406100988388
410616,0.0404052734375,0.006103515625,1.0262451171875,0.7324218153953552,-0.2441406100988388,0.1831054538488388
410653,0.0391845703125,0.0050048828125,1.024658203125,0.7324218153953552,-0.1831054538488388,0.1831054538488388
410670,0.0401611328125,0.005859375,1.0245361328125,0.7934569716453552,-0.2441406100988388,0.2441406100988388
410687,0.0391845703125,0.006103515625,1.025634765625,0.7934569716453552,-0.1831054538488388,0.30517578125
410703,0.0394287109375,0.0052490234375,1.0264892578125,0.7934569716453552,-0.1831054538488388,0.30517578125
410720,0.040283203125,0.005615234375,1.025634765625,0.8544921278953552,-0.2441406100988388,0.30517578125
410741,0.0406494140625,0.0052490234375,1.0250244140625,0.7934569716453552,-0.2441406100988388,0.2441406100988388
410757,0.0396728515625,0.0050048828125,1.02490234375,0.7934569716453552,-0.1831054538488388,0.2441406100988388
410824,0.0401611328125,0.005859375,1.0263671875,0.7324218153953552,-0.1831054538488388,0.1831054538488388
410841,0.0404052734375,0.0059814453125,1.0250244140625,0.7934569716453552,-0.1220703050494194,0.2441406100988388
410857,0.0391845703125,0.006103515625,1.0263671875,0.7934569716453552,-0.1831054538488388,0.1831054538488388
410889,0.0406494140625,0.00537109375,1.0250244140625,0.7934569716453552,-0.1831054538488388,0.2441406100988388
410937,0.0401611328125,0.0064697265625,1.02490234375,0.7934569716453552,-0.1220703050494194,0.2441406100988388
410959,0.039794921875,0.006103515625,1.0260009765625,0.7934569716453552,-0.1831054538488388,0.2441406100988388
410976,0.0390625,0.005615234375,1.0255126953125,0.7934569716453552,-0.1220703050494194,0.1831054538488388
411013,0.039794921875,0.005859375,1.0252685546875,0.7934569716453552,-0.1831054538488388,0.2441406100988388
411030,0.039794921875,0.0064697265625,1.02392578125,0.7934569716453552,-0.1831054538488388,0.1831054538488388
411046,0.0394287109375,0.005859375,1.0252685546875,0.7934569716453552,-0.1831054538488388,0.2441406100988388
411063,0.03955078125,0.005126953125,1.026611328125,0.7934569716453552,-0.1220703050494194,0.2441406100988388
411080,0.0399169921875,0.006103515625,1.02587890625,0.7324218153953552,-0.1220703050494194,0.1831054538488388
411101,0.039794921875,0.0062255859375,1.02587890625,0.7934569716453552,-0.1831054538488388,0.30517578125
411117,0.0399169921875,0.0057373046875,1.0260009765625,0.7934569716453552,-0.2441406100988388,0.30517578125
411180,0.04052734375,0.0057373046875,1.0250244140625,0.7324218153953552,-0.1831054538488388,0.2441406100988388
411199,0.0390625,0.0052490234375,1.024169921875,0.7324218153953552,-0.1831054538488388,0.2441406100988388
411245,0.0396728515625,0.0052490234375,1.025146484375,0.7324218153953552,-0.1831054538488388,0.1831054538488388
411267,0.0391845703125,0.005859375,1.025146484375,0.7324218153953552,-0.1220703050494194,0.2441406100988388
411287,0.0394287109375,0.0067138671875,1.025634765625,0.7934569716453552,-0.2441406100988388,0.2441406100988388
411303,0.03955078125,0.0062255859375,1.0240478515625,0.7934569716453552,-0.2441406100988388,0.2441406100988388
411319,0.0404052734375,0.00537109375,1.0247802734375,0.7934569716453552,-0.1831054538488388,0.2441406100988388
411356,0.0399169921875,0.005859375,1.026123046875,0.7324218153953552,-0.2441406100988388,0.2441406100988388
411377,0.039794921875,0.0062255859375,1.0255126953125,0.7934569716453552,-0.1831054538488388,0.2441406100988388
411393,0.0394287109375,0.0057373046875,1.0255126953125,0.7934569716453552,-0.1220703050494194,0.2441406100988388
411413,0.03955078125,0.006103515625,1.024658203125,0.7934569716453552,-0.1831054538488388,0.2441406100988388
411432,0.038818359375,0.006103515625,1.0260009765625,0.7934569716453552,-0.2441406100988388,0.2441406100988388
411448,0.039306640625,0.0054931640625,1.02490234375,0.7324218153953552,-0.2441406100988388,0.1831054538488388
411464,0.039306640625,0.0052490234375,1.025390625,0.7324218153953552,-0.1831054538488388,0.1831054538488388
411480,0.0399169921875,0.0054931640625,1.025146484375,0.7324218153953552,-0.1220703050494194,0.1831054538488388
411497,0.0400390625,0.0057373046875,1.02490234375,0.7324218153953552,-0.1831054538488388,0.1831054538488388
411518,0.040771484375,0.0057373046875,1.02490234375,0.7934569716453552,-0.1831054538488388,0.2441406100988388
411534,0.040283203125,0.00634765625,1.0247802734375,0.7934569716453552,-0.1220703050494194,0.1831054538488388
411551,0.039794921875,0.0059814453125,1.0262451171875,0.7324218153953552,-0.1220703050494194,0.1831054538488388
411601,0.0399169921875,0.0068359375,1.02587890625,0.8544921278953552,-0.1220703050494194,0.1831054538488388
411617,0.0401611328125,0.0062255859375,1.0255126953125,0.8544921278953552,-0.1220703050494194,0.1831054538488388
411634,0.040283203125,0.00537109375,1.0255126953125,0.7934569716453552,-0.1831054538488388,0.2441406100988388
411661,0.039306640625,0.0057373046875,1.0250244140625,0.7324218153953552,-0.1220703050494194,0.2441406100988388
411685,0.03955078125,0.006591796875,1.0257568359375,0.7934569716453552,-0.1831054538488388,0.2441406100988388
411701,0.0400390625,0.005859375,1.0252685546875,0.7934569716453552,-0.2441406100988388,0.30517578125
411718,0.0401611328125,0.005615234375,1.0247802734375,0.7934569716453552,-0.2441406100988388,0.2441406100988388
411735,0.0406494140625,0.00634765625,1.0244140625,0.7934569716453552,-0.1831054538488388,0.1831054538488388
411751,0.040283203125,0.0069580078125,1.024658203125,0.7324218153953552,-0.1831054538488388,0.2441406100988388
411784,0.0408935546875,0.0052490234375,1.025390625,0.7934569716453552,-0.1831054538488388,0.1831054538488388
411801,0.040283203125,0.005615234375,1.0257568359375,0.7934569716453552,-0.1831054538488388,0.1831054538488388
411817,0.040283203125,0.006103515625,1.0252685546875,0.7934569716453552,-0.1831054538488388,0.1831054538488388
411847,0.0400390625,0.0059814453125,1.02490234375,0.7934569716453552,-0.1831054538488388,0.2441406100988388
411869,0.0399169921875,0.0062255859375,1.0245361328125,0.7934569716453552,-0.1831054538488388,0.1831054538488388
411885,0.0399169921875,0.006103515625,1.0260009765625,0.7934569716453552,-0.1831054538488388,0.2441406100988388
411902,0.0391845703125,0.005126953125,1.026611328125,0.7934569716453552,-0.1831054538488388,0.2441406100988388
411919,0.0394287109375,0.00537109375,1.025634765625,0.8544921278953552,-0.1831054538488388,0.2441406100988388
411935,0.039794921875,0.0054931640625,1.0242919921875,0.7934569716453552,-0.1831054538488388,0.2441406100988388
411969,0.039794921875,0.0050048828125,1.0247802734375,0.8544921278953552,-0.1831054538488388,0.2441406100988388
412017,0.039794921875,0.005615234375,1.024658203125,0.7934569716453552,-0.1831054538488388,0.2441406100988388
412099,0.03955078125,0.00537109375,1.025390625,0.8544921278953552,-0.1831054538488388,0.2441406100988388
412116,0.0401611328125,0.0062255859375,1.025390625,0.8544921278953552,-0.1831054538488388,0.2441406100988388
412149,0.0390625,0.005126953125,1.0252685546875,0.7934569716453552,-0.1831054538488388,0.2441406100988388
412166,0.039794921875,0.0059814453125,1.0263671875,0.7934569716453552,-0.1831054538488388,0.1831054538488388
412182,0.0400390625,0.0064697265625,1.02587890625,0.7934569716453552,-0.1831054538488388,0.2441406100988388
412198,0.0401611328125,0.0064697265625,1.025390625,0.7934569716453552,-0.1831054538488388,0.2441406100988388
412252,0.0396728515625,0.0057373046875,1.0263671875,0.8544921278953552,-0.1220703050494194,0.2441406100988388
412278,0.03955078125,0.005126953125,1.0262451171875,0.7934569716453552,-0.1220703050494194,0.2441406100988388
412295,0.039306640625,0.0047607421875,1.026123046875,0.7934569716453552,-0.1831054538488388,0.2441406100988388
412328,0.04052734375,0.005615234375,1.02392578125,0.7934569716453552,-0.1831054538488388,0.2441406100988388
412361,0.039794921875,0.005859375,1.0252685546875,0.8544921278953552,-0.2441406100988388,0.2441406100988388
412420,0.03955078125,0.0062255859375,1.0260009765625,0.7324218153953552,-0.1831054538488388,0.2441406100988388
412582,0.0406494140625,0.0062255859375,1.025146484375,0.7324218153953552,-0.1220703050494194,0.2441406100988388
412616,0.0399169921875,0.0054931640625,1.025146484375,0.7934569716453552,-0.1831054538488388,0.2441406100988388
412699,0.0400390625,0.00537109375,1.02490234375,0.7934569716453552,-0.1831054538488388,0.2441406100988388
412720,0.040283203125,0.0059814453125,1.025390625,0.8544921278953552,-0.1831054538488388,0.2441406100988388
412740,0.0400390625,0.00537109375,1.0250244140625,0.7934569716453552,-0.1831054538488388,0.30517578125
412757,0.0399169921875,0.0057373046875,1.026123046875,0.7324218153953552,-0.2441406100988388,0.2441406100988388
412774,0.040283203125,0.005126953125,1.0264892578125,0.8544921278953552,-0.1831054538488388,0.2441406100988388
412805,0.0400390625,0.0052490234375,1.024658203125,0.8544921278953552,-0.2441406100988388,0.30517578125
412827,0.03955078125,0.0048828125,1.02490234375,0.7934569716453552,-0.2441406100988388,0.2441406100988388
412843,0.0391845703125,0.006103515625,1.025634765625,0.7324218153953552,-0.1831054538488388,0.1831054538488388
412860,0.03955078125,0.0054931640625,1.0263671875,0.7934569716453552,-0.1831054538488388,0.30517578125
412877,0.0394287109375,0.0064697265625,1.0255126953125,0.7934569716453552,-0.1831054538488388,0.30517578125
412894,0.0400390625,0.0057373046875,1.0255126953125,0.7934569716453552,-0.1220703050494194,0.2441406100988388
412924,0.040771484375,0.0068359375,1.0245361328125,0.7934569716453552,-0.1831054538488388,0.1831054538488388
412941,0.0404052734375,0.0062255859375,1.0244140625,0.7934569716453552,-0.1831054538488388,0.2441406100988388
412957,0.0404052734375,0.0052490234375,1.0257568359375,0.7934569716453552,-0.1220703050494194,0.30517578125
412989,0.0400390625,0.0057373046875,1.0250244140625,0.6713866591453552,-0.1831054538488388,0.2441406100988388
413005,0.040283203125,0.0059814453125,1.025634765625,0.7324218153953552,-0.2441406100988388,0.2441406100988388
413021,0.0400390625,0.0069580078125,1.0252685546875,0.7934569716453552,-0.2441406100988388,0.2441406100988388
413037,0.0408935546875,0.005859375,1.023681640625,0.7934569716453552,-0.1831054538488388,0.2441406100988388
413057,0.0399169921875,0.005126953125,1.0240478515625,0.8544921278953552,-0.1831054538488388,0.1831054538488388
413079,0.0399169921875,0.0069580078125,1.025146484375,0.8544921278953552,-0.1831054538488388,0.2441406100988388
413095,0.0404052734375,0.00537109375,1.0250244140625,0.7934569716453552,-0.1831054538488388,0.2441406100988388
413112,0.040283203125,0.0047607421875,1.0255126953125,0.8544921278953552,-0.1831054538488388,0.2441406100988388
413129,0.0401611328125,0.0050048828125,1.025390625,0.8544921278953552,-0.1831054538488388,0.2441406100988388
413162,0.0401611328125,0.005615234375,1.0244140625,0.7934569716453552,-0.2441406100988388,0.2441406100988388
413179,0.0401611328125,0.0062255859375,1.0244140625,0.8544921278953552,-0.1220703050494194,0.2441406100988388
413195,0.0399169921875,0.0064697265625,1.0252685546875,0.7934569716453552,-0.1831054538488388,0.2441406100988388
413225,0.039794921875,0.0054931640625,1.025146484375,0.7324218153953552,-0.2441406100988388,0.2441406100988388
413247,0.0399169921875,0.005859375,1.0247802734375,0.7934569716453552,-0.1831054538488388,0.30517578125
413263,0.0394287109375,0.006103515625,1.024169921875,0.7934569716453552,-0.1831054538488388,0.2441406100988388
413280,0.040283203125,0.00537109375,1.0250244140625,0.7934569716453552,-0.1831054538488388,0.2441406100988388
413297,0.040283203125,0.0064697265625,1.02490234375,0.7934569716453552,-0.1220703050494194,0.30517578125
413313,0.0399169921875,0.006103515625,1.0247802734375,0.7934569716453552,-0.1220703050494194,0.30517578125
413345,0.0411376953125,0.0057373046875,1.0262451171875,0.7934569716453552,-0.1831054538488388,0.2441406100988388
413367,0.040771484375,0.0067138671875,1.025146484375,0.7934569716453552,-0.1831054538488388,0.30517578125
413383,0.040283203125,0.0064697265625,1.0255126953125,0.7934569716453552,-0.1220703050494194,0.2441406100988388
413400,0.039794921875,0.0059814453125,1.025634765625,0.7934569716453552,-0.1220703050494194,0.2441406100988388
413417,0.039794921875,0.0047607421875,1.0257568359375,0.7934569716453552,-0.1831054538488388,0.1831054538488388
413434,0.03955078125,0.00537109375,1.0245361328125,0.7324218153953552,-0.1831054538488388,0.2441406100988388
413465,0.039794921875,0.0047607421875,1.025634765625,0.7324218153953552,-0.1831054538488388,0.2441406100988388
413481,0.040283203125,0.0047607421875,1.0250244140625,0.7934569716453552,-0.1831054538488388,0.1831054538488388
413529,0.0400390625,0.0052490234375,1.025634765625,0.7934569716453552,-0.1831054538488388,0.2441406100988388
413577,0.0400390625,0.005615234375,1.0252685546875,0.7934569716453552,-0.1831054538488388,0.1831054538488388
413598,0.0400390625,0.0054931640625,1.02490234375,0.7934569716453552,-0.1831054538488388,0.2441406100988388
413615,0.040283203125,0.00537109375,1.025390625,0.8544921278953552,-0.1831054538488388,0.30517578125
413644,0.039794921875,0.0067138671875,1.0245361328125,0.7934569716453552,-0.1220703050494194,0.1831054538488388
413661,0.0408935546875,0.0059814453125,1.0244140625,0.8544921278953552,-0.1831054538488388,0.1831054538488388
413677,0.04052734375,0.0048828125,1.0252685546875,0.7934569716453552,-0.1831054538488388,0.30517578125
413697,0.04052734375,0.0057373046875,1.0247802734375,0.7934569716453552,-0.1831054538488388,0.30517578125
413717,0.0401611328125,0.0054931640625,1.02490234375,0.7934569716453552,-0.1220703050494194,0.30517578125
413737,0.0396728515625,0.005615234375,1.025146484375,0.7934569716453552,-0.1220703050494194,0.2441406100988388
413757,0.0406494140625,0.0057373046875,1.02490234375,0.7934569716453552,-0.1220703050494194,0.2441406100988388
413774,0.0399169921875,0.005615234375,1.0250244140625,0.7934569716453552,-0.1831054538488388,0.2441406100988388
413815,0.0391845703125,0.005859375,1.0247802734375,0.7934569716453552,-0.1220703050494194,0.2441406100988388
413836,0.0401611328125,0.0062255859375,1.0252685546875,0.7934569716453552,-0.1831054538488388,0.1831054538488388
413852,0.040283203125,0.00634765625,1.026123046875,0.7934569716453552,-0.1831054538488388,0.30517578125
413885,0.0401611328125,0.0050048828125,1.0252685546875,0.7934569716453552,-0.1831054538488388,0.30517578125
413907,0.0399169921875,0.005859375,1.0260009765625,0.7934569716453552,-0.2441406100988388,0.2441406100988388
413923,0.0406494140625,0.00634765625,1.02587890625,0.7934569716453552,-0.1831054538488388,0.2441406100988388
413940,0.040771484375,0.0054931640625,1.0245361328125,0.7934569716453552,-0.1831054538488388,0.2441406100988388
413957,0.0404052734375,0.0052490234375,1.0250244140625,0.7934569716453552,-0.1831054538488388,0.2441406100988388
413973,0.0391845703125,0.005615234375,1.026123046875,0.7934569716453552,-0.1220703050494194,0.2441406100988388
414039,0.039306640625,0.0057373046875,1.0247802734375,0.8544921278953552,-0.1831054538488388,0.2441406100988388
414081,0.0390625,0.00537109375,1.0264892578125,0.7324218153953552,-0.1831054538488388,0.2441406100988388
414115,0.040283203125,0.0045166015625,1.025390625,0.8544921278953552,-0.1831054538488388,0.2441406100988388
414139,0.0400390625,0.0048828125,1.0262451171875,0.7934569716453552,-0.1831054538488388,0.1831054538488388
414156,0.0408935546875,0.0048828125,1.0260009765625,0.7934569716453552,-0.1831054538488388,0.2441406100988388
414193,0.0399169921875,0.0069580078125,1.025146484375,0.8544921278953552,-0.1831054538488388,0.2441406100988388
414210,0.04150390625,0.0059814453125,1.02490234375,0.7934569716453552,-0.1831054538488388,0.2441406100988388
414226,0.041015625,0.006103515625,1.0247802734375,0.7934569716453552,-0.2441406100988388,0.2441406100988388
414243,0.0413818359375,0.005615234375,1.02490234375,0.7324218153953552,-0.1831054538488388,0.2441406100988388
414291,0.0404052734375,0.005859375,1.0252685546875,0.7324218153953552,-0.2441406100988388,0.30517578125
414323,0.0396728515625,0.00634765625,1.0250244140625,0.7934569716453552,-0.1220703050494194,0.2441406100988388
414340,0.0394287109375,0.005859375,1.025634765625,0.7934569716453552,-0.1831054538488388,0.1831054538488388
414356,0.040283203125,0.006103515625,1.02490234375,0.7324218153953552,-0.1831054538488388,0.2441406100988388
414377,0.0404052734375,0.0059814453125,1.0244140625,0.7934569716453552,-0.1220703050494194,0.2441406100988388
414393,0.0400390625,0.005126953125,1.0260009765625,0.8544921278953552,-0.1831054538488388,0.30517578125
414409,0.0404052734375,0.005859375,1.0247802734375,0.7934569716453552,-0.1831054538488388,0.30517578125
414425,0.04052734375,0.005859375,1.024658203125,0.7934569716453552,-0.2441406100988388,0.30517578125
414447,0.03955078125,0.005615234375,1.0247802734375,0.7934569716453552,-0.1831054538488388,0.1831054538488388
414463,0.0399169921875,0.0057373046875,1.0252685546875,0.7934569716453552,-0.1831054538488388,0.2441406100988388
414480,0.0399169921875,0.0052490234375,1.026611328125,0.7934569716453552,-0.1831054538488388,0.2441406100988388
414546,0.0400390625,0.0054931640625,1.02490234375,0.8544921278953552,-0.1831054538488388,0.30517578125
414563,0.0400390625,0.005615234375,1.02587890625,0.7934569716453552,-0.2441406100988388,0.2441406100988388
414579,0.0399169921875,0.005859375,1.0242919921875,0.7934569716453552,-0.2441406100988388,0.2441406100988388
414615,0.0396728515625,0.005126953125,1.02392578125,0.7934569716453552,-0.1831054538488388,0.1831054538488388
414637,0.040283203125,0.0048828125,1.02587890625,0.7934569716453552,-0.2441406100988388,0.2441406100988388
414653,0.0401611328125,0.00634765625,1.025390625,0.7934569716453552,-0.2441406100988388,0.2441406100988388
414674,0.0401611328125,0.0059814453125,1.0245361328125,0.7934569716453552,-0.1831054538488388,0.2441406100988388
414691,0.03955078125,0.0048828125,1.024169921875,0.7324218153953552,-0.1831054538488388,0.1831054538488388
414707,0.0394287109375,0.004638671875,1.0235595703125,0.7324218153953552,-0.1220703050494194,0.2441406100988388
414724,0.0400390625,0.0047607421875,1.02490234375,0.7934569716453552,-0.2441406100988388,0.2441406100988388
414741,0.0389404296875,0.00537109375,1.025390625,0.7934569716453552,-0.1831054538488388,0.2441406100988388
414757,0.0394287109375,0.0052490234375,1.024658203125,0.7934569716453552,-0.1831054538488388,0.2441406100988388
414785,0.0396728515625,0.0062255859375,1.026123046875,0.7934569716453552,-0.1831054538488388,0.2441406100988388
414807,0.03955078125,0.0067138671875,1.02587890625,0.7934569716453552,-0.1220703050494194,0.1831054538488388
414823,0.0406494140625,0.0054931640625,1.02490234375,0.7934569716453552,-0.1220703050494194,0.1831054538488388
414840,0.0404052734375,0.0050048828125,1.0247802734375,0.7934569716453552,-0.1220703050494194,0.2441406100988388
414857,0.039306640625,0.0040283203125,1.0238037109375,0.7934569716453552,-0.1831054538488388,0.2441406100988388
414873,0.04052734375,0.005615234375,1.0238037109375,0.7934569716453552,-0.1831054538488388,0.2441406100988388
414905,0.0401611328125,0.0054931640625,1.024658203125,0.7934569716453552,-0.1220703050494194,0.2441406100988388
414927,0.0396728515625,0.006591796875,1.025634765625,0.8544921278953552,-0.1831054538488388,0.1831054538488388
414943,0.04052734375,0.00537109375,1.024658203125,0.7934569716453552,-0.2441406100988388,0.1831054538488388
414964,0.040283203125,0.00439453125,1.024658203125,0.7934569716453552,-0.2441406100988388,0.2441406100988388
414981,0.0394287109375,0.00537109375,1.02685546875,0.7934569716453552,-0.30517578125,0.2441406100988388
414997,0.039794921875,0.0062255859375,1.0247802734375,0.7934569716453552,-0.1831054538488388,0.2441406100988388
415018,0.0404052734375,0.0057373046875,1.024169921875,0.7934569716453552,-0.1831054538488388,0.30517578125
415037,0.0404052734375,0.005615234375,1.02685546875,0.7934569716453552,-0.1831054538488388,0.2441406100988388
415053,0.040283203125,0.0057373046875,1.024169921875,0.7934569716453552,-0.1831054538488388,0.30517578125
415069,0.0396728515625,0.00537109375,1.0240478515625,0.7934569716453552,-0.1831054538488388,0.2441406100988388
415085,0.039794921875,0.005126953125,1.0250244140625,0.7934569716453552,-0.1831054538488388,0.2441406100988388
415149,0.0396728515625,0.005859375,1.02490234375,0.7934569716453552,-0.1831054538488388,0.30517578125
415165,0.0401611328125,0.0059814453125,1.0255126953125,0.7934569716453552,-0.2441406100988388,0.30517578125
415181,0.0400390625,0.004638671875,1.0255126953125,0.7934569716453552,-0.30517578125,0.2441406100988388
415197,0.0401611328125,0.0047607421875,1.0252685546875,0.7934569716453552,-0.1831054538488388,0.2441406100988388
415216,0.04052734375,0.0059814453125,1.0250244140625,0.7934569716453552,-0.1220703050494194,0.30517578125
415238,0.0401611328125,0.0059814453125,1.0247802734375,0.7934569716453552,-0.2441406100988388,0.30517578125
415254,0.0406494140625,0.0045166015625,1.02392578125,0.7934569716453552,-0.2441406100988388,0.30517578125
415271,0.0404052734375,0.004150390625,1.02392578125,0.7934569716453552,-0.1220703050494194,0.2441406100988388
415288,0.0396728515625,0.0047607421875,1.0250244140625,0.8544921278953552,-0.1831054538488388,0.2441406100988388
415321,0.039306640625,0.00634765625,1.025390625,0.7934569716453552,-0.1831054538488388,0.2441406100988388
415338,0.0400390625,0.0059814453125,1.025390625,0.7934569716453552,-0.1831054538488388,0.30517578125
415354,0.0406494140625,0.005615234375,1.0257568359375,0.7934569716453552,-0.1831054538488388,0.2441406100988388
415385,0.039306640625,0.0059814453125,1.0257568359375,0.7934569716453552,-0.1831054538488388,0.1831054538488388
415406,0.0400390625,0.0059814453125,1.0255126953125,0.7934569716453552,-0.1831054538488388,0.1831054538488388
415472,0.040771484375,0.0054931640625,1.0245361328125,0.7324218153953552,-0.2441406100988388,0.2441406100988388
415516,0.0406494140625,0.0059814453125,1.0255126953125,0.7934569716453552,-0.1831054538488388,0.2441406100988388
415533,0.040283203125,0.005126953125,1.0255126953125,0.7324218153953552,-0.1220703050494194,0.1831054538488388
415566,0.0413818359375,0.0067138671875,1.025634765625,0.7934569716453552,-0.1831054538488388,0.2441406100988388
415632,0.0396728515625,0.0064697265625,1.0252685546875,0.7934569716453552,-0.1831054538488388,0.30517578125
415763,0.0401611328125,0.005859375,1.025390625,0.7934569716453552,-0.2441406100988388,0.1831054538488388
415780,0.0406494140625,0.005859375,1.0260009765625,0.8544921278953552,-0.1831054538488388,0.2441406100988388
415813,0.0389404296875,0.0057373046875,1.0244140625,0.7324218153953552,-0.1831054538488388,0.30517578125
415877,0.040283203125,0.0072021484375,1.0263671875,0.7324218153953552,-0.1831054538488388,0.1831054538488388
415894,0.0394287109375,0.006103515625,1.0264892578125,0.7934569716453552,-0.2441406100988388,0.2441406100988388
415924,0.039306640625,0.005859375,1.0247802734375,0.7934569716453552,-0.1831054538488388,0.30517578125
415956,0.040283203125,0.0052490234375,1.025634765625,0.7324218153953552,-0.1220703050494194,0.2441406100988388
416199,0.0401611328125,0.0062255859375,1.02490234375,0.7934569716453552,-0.1831054538488388,0.2441406100988388
416244,0.03955078125,0.006103515625,1.025634765625,0.7934569716453552,-0.1220703050494194,0.30517578125
416261,0.0400390625,0.00537109375,1.0250244140625,0.7934569716453552,-0.1831054538488388,0.30517578125
416278,0.0401611328125,0.0057373046875,1.025390625,0.7934569716453552,-0.1831054538488388,0.30517578125
416294,0.0400390625,0.005859375,1.0250244140625,0.7934569716453552,-0.1220703050494194,0.30517578125
416311,0.0404052734375,0.0059814453125,1.024658203125,0.7934569716453552,-0.1831054538488388,0.30517578125
416344,0.0391845703125,0.0048828125,1.0257568359375,0.7934569716453552,-0.1831054538488388,0.1831054538488388
416360,0.0399169921875,0.0052490234375,1.0255126953125,0.7934569716453552,-0.1220703050494194,0.2441406100988388
416376,0.0399169921875,0.005859375,1.025390625,0.7324218153953552,-0.1831054538488388,0.2441406100988388
416408,0.0404052734375,0.0045166015625,1.0242919921875,0.7934569716453552,-0.1220703050494194,0.2441406100988388
416456,0.039794921875,0.0059814453125,1.0247802734375,0.7934569716453552,-0.2441406100988388,0.2441406100988388
416500,0.0401611328125,0.0050048828125,1.0255126953125,0.7934569716453552,-0.1831054538488388,0.2441406100988388
416656,0.0396728515625,0.0067138671875,1.025634765625,0.7324218153953552,-0.1220703050494194,0.30517578125
416673,0.0404052734375,0.0052490234375,1.026123046875,0.7324218153953552,-0.1220703050494194,0.30517578125
416706,0.039306640625,0.006103515625,1.0242919921875,0.7934569716453552,-0.1220703050494194,0.30517578125
416723,0.0399169921875,0.0069580078125,1.0250244140625,0.7934569716453552,-0.1831054538488388,0.30517578125
416740,0.0404052734375,0.006591796875,1.025146484375,0.7934569716453552,-0.1831054538488388,0.2441406100988388
416776,0.0401611328125,0.005859375,1.0255126953125,0.7934569716453552,-0.1220703050494194,0.1831054538488388
416824,0.0400390625,0.005126953125,1.0250244140625,0.7934569716453552,-0.1831054538488388,0.1831054538488388
416960,0.03955078125,0.0048828125,1.025390625,0.7934569716453552,-0.1831054538488388,0.2441406100988388
416981,0.0394287109375,0.0047607421875,1.024658203125,0.7934569716453552,-0.1831054538488388,0.1831054538488388
416997,0.0390625,0.0059814453125,1.0255126953125,0.7934569716453552,-0.1220703050494194,0.30517578125
417047,0.0401611328125,0.005859375,1.0252685546875,0.7934569716453552,-0.0610351525247097,0.30517578125
417079,0.0400390625,0.0062255859375,1.0252685546875,0.7324218153953552,-0.1831054538488388,0.2441406100988388
417096,0.040283203125,0.005859375,1.0264892578125,0.7934569716453552,-0.1831054538488388,0.2441406100988388
417129,0.0401611328125,0.0057373046875,1.026123046875,0.7934569716453552,-0.1831054538488388,0.1831054538488388
417162,0.040283203125,0.00537109375,1.02490234375,0.8544921278953552,-0.1831054538488388,0.30517578125
417203,0.040283203125,0.00634765625,1.0245361328125,0.7934569716453552,-0.1220703050494194,0.1831054538488388
417220,0.0399169921875,0.005126953125,1.0267333984375,0.7934569716453552,-0.1831054538488388,0.30517578125
417236,0.0399169921875,0.0054931640625,1.0263671875,0.7934569716453552,-0.1220703050494194,0.30517578125
417257,0.0404052734375,0.005126953125,1.024169921875,0.7934569716453552,-0.1220703050494194,0.2441406100988388
417273,0.04052734375,0.0052490234375,1.02490234375,0.7934569716453552,-0.1831054538488388,0.1831054538488388
417290,0.0400390625,0.005126953125,1.025390625,0.8544921278953552,-0.1831054538488388,0.30517578125
417306,0.0391845703125,0.0054931640625,1.025634765625,0.7934569716453552,-0.1831054538488388,0.30517578125
417322,0.0399169921875,0.0059814453125,1.024658203125,0.7934569716453552,-0.1831054538488388,0.30517578125
417338,0.0404052734375,0.005126953125,1.0245361328125,0.7934569716453552,-0.1831054538488388,0.2441406100988388
417370,0.0406494140625,0.0052490234375,1.0245361328125,0.7934569716453552,-0.1220703050494194,0.30517578125
417418,0.040283203125,0.0050048828125,1.0255126953125,0.7324218153953552,-0.1831054538488388,0.1831054538488388
417439,0.0400390625,0.0047607421875,1.025390625,0.7934569716453552,-0.1831054538488388,0.2441406100988388
417456,0.039794921875,0.004638671875,1.0255126953125,0.8544921278953552,-0.2441406100988388,0.30517578125
417489,0.0406494140625,0.00537109375,1.025634765625,0.7934569716453552,-0.1220703050494194,0.1831054538488388
417506,0.0400390625,0.005615234375,1.02587890625,0.7934569716453552,-0.1220703050494194,0.1831054538488388
417538,0.0400390625,0.0059814453125,1.02490234375,0.7934569716453552,-0.1831054538488388,0.2441406100988388
417560,0.039794921875,0.0057373046875,1.0257568359375,0.7934569716453552,-0.1831054538488388,0.30517578125
417614,0.039306640625,0.005615234375,1.0247802734375,0.8544921278953552,-0.1831054538488388,0.30517578125
417631,0.0396728515625,0.0047607421875,1.0257568359375,0.7934569716453552,-0.1831054538488388,0.30517578125
417648,0.0399169921875,0.00439453125,1.02587890625,0.7934569716453552,-0.1831054538488388,0.30517578125
417664,0.039794921875,0.0052490234375,1.025146484375,0.8544921278953552,-0.1831054538488388,0.2441406100988388
417680,0.0399169921875,0.00634765625,1.02490234375,0.7934569716453552,-0.2441406100988388,0.2441406100988388
417696,0.039794921875,0.0059814453125,1.0245361328125,0.7934569716453552,-0.2441406100988388,0.2441406100988388
417728,0.0400390625,0.0059814453125,1.0250244140625,0.7324218153953552,-0.1831054538488388,0.2441406100988388
417744,0.040283203125,0.0064697265625,1.0255126953125,0.6713866591453552,-0.1831054538488388,0.1831054538488388
417760,0.0394287109375,0.005859375,1.0247802734375,0.7934569716453552,-0.1831054538488388,0.2441406100988388
417776,0.0404052734375,0.005615234375,1.024658203125,0.8544921278953552,-0.1831054538488388,0.2441406100988388
417796,0.03955078125,0.0059814453125,1.0247802734375,0.7934569716453552,-0.1831054538488388,0.1831054538488388
417818,0.0390625,0.0050048828125,1.0247802734375,0.7324218153953552,-0.1831054538488388,0.2441406100988388
417834,0.0394287109375,0.00634765625,1.02490234375,0.7934569716453552,-0.1831054538488388,0.2441406100988388
417851,0.040283203125,0.0054931640625,1.02490234375,0.7934569716453552,-0.1831054538488388,0.1831054538488388
417868,0.0400390625,0.005615234375,1.0247802734375,0.8544921278953552,-0.1831054538488388,0.2441406100988388
417901,0.03955078125,0.0059814453125,1.0250244140625,0.8544921278953552,-0.1831054538488388,0.30517578125
417919,0.039794921875,0.0054931640625,1.0250244140625,0.8544921278953552,-0.1220703050494194,0.30517578125
417935,0.0406494140625,0.005126953125,1.024658203125,0.7324218153953552,-0.1831054538488388,0.30517578125
417967,0.040283203125,0.005859375,1.0262451171875,0.7934569716453552,-0.1831054538488388,0.30517578125
417983,0.0406494140625,0.00537109375,1.0255126953125,0.7934569716453552,-0.1831054538488388,0.2441406100988388
417999,0.0396728515625,0.005126953125,1.025146484375,0.7934569716453552,-0.1831054538488388,0.2441406100988388
418035,0.04052734375,0.005859375,1.024658203125,0.7934569716453552,-0.1831054538488388,0.2441406100988388
418051,0.0396728515625,0.0059814453125,1.024658203125,0.7934569716453552,-0.1831054538488388,0.1831054538488388
418067,0.0400390625,0.00537109375,1.025634765625,0.7934569716453552,-0.1831054538488388,0.2441406100988388
418115,0.040283203125,0.0062255859375,1.02587890625,0.8544921278953552,-0.1831054538488388,0.2441406100988388
418157,0.0401611328125,0.006103515625,1.0264892578125,0.7324218153953552,-0.2441406100988388,0.2441406100988388
418174,0.0394287109375,0.0059814453125,1.0262451171875,0.7324218153953552,-0.1831054538488388,0.1831054538488388
418207,0.0413818359375,0.0054931640625,1.0260009765625,0.7934569716453552,-0.1831054538488388,0.30517578125
418240,0.0400390625,0.0054931640625,1.02490234375,0.7324218153953552,-0.1831054538488388,0.2441406100988388
418419,0.040771484375,0.0064697265625,1.0252685546875,0.7934569716453552,-0.1831054538488388,0.1831054538488388
418464,0.0396728515625,0.0048828125,1.0252685546875,0.8544921278953552,-0.1220703050494194,0.2441406100988388
418481,0.0394287109375,0.00537109375,1.0250244140625,0.7934569716453552,-0.1831054538488388,0.3662109076976776
418498,0.0396728515625,0.00634765625,1.0257568359375,0.7934569716453552,-0.2441406100988388,0.30517578125
418518,0.040283203125,0.0057373046875,1.02490234375,0.7324218153953552,-0.1831054538488388,0.2441406100988388
418535,0.0400390625,0.005126953125,1.024169921875,0.7934569716453552,-0.1831054538488388,0.2441406100988388
418565,0.0399169921875,0.0050048828125,1.0257568359375,0.7934569716453552,-0.1220703050494194,0.2441406100988388
418587,0.039794921875,0.0059814453125,1.0244140625,0.7934569716453552,-0.1831054538488388,0.30517578125
418603,0.0400390625,0.00634765625,1.025390625,0.7934569716453552,-0.1831054538488388,0.1831054538488388
418620,0.0399169921875,0.005615234375,1.025146484375,0.7934569716453552,-0.1220703050494194,0.1831054538488388
418637,0.0396728515625,0.0054931640625,1.02490234375,0.7934569716453552,-0.1831054538488388,0.2441406100988388
418653,0.039794921875,0.005126953125,1.0260009765625,0.7934569716453552,-0.1831054538488388,0.2441406100988388
418687,0.0401611328125,0.0054931640625,1.0255126953125,0.7324218153953552,-0.1831054538488388,0.2441406100988388
418703,0.04052734375,0.0048828125,1.025146484375,0.7934569716453552,-0.1831054538488388,0.2441406100988388
418719,0.0401611328125,0.0048828125,1.02490234375,0.7934569716453552,-0.1831054538488388,0.2441406100988388
418755,0.0401611328125,0.005126953125,1.0250244140625,0.7934569716453552,-0.1220703050494194,0.2441406100988388
418775,0.0404052734375,0.00537109375,1.02490234375,0.7934569716453552,-0.1831054538488388,0.1831054538488388
418791,0.04052734375,0.005859375,1.0247802734375,0.7934569716453552,-0.1831054538488388,0.2441406100988388
418809,0.03955078125,0.005615234375,1.025634765625,0.7934569716453552,-0.2441406100988388,0.2441406100988388
418831,0.040283203125,0.0052490234375,1.0257568359375,0.7934569716453552,-0.1831054538488388,0.1831054538488388
418897,0.0400390625,0.0054931640625,1.024169921875,0.8544921278953552,-0.1220703050494194,0.30517578125
418941,0.0401611328125,0.0050048828125,1.0252685546875,0.7934569716453552,-0.1831054538488388,0.2441406100988388
418958,0.0394287109375,0.005859375,1.0245361328125,0.7324218153953552,-0.1831054538488388,0.2441406100988388
418975,0.0401611328125,0.005615234375,1.0252685546875,0.7324218153953552,-0.1220703050494194,0.2441406100988388
418995,0.0399169921875,0.0050048828125,1.024658203125,0.7934569716453552,-0.1831054538488388,0.2441406100988388
419012,0.0400390625,0.0052490234375,1.024658203125,0.7934569716453552,-0.1831054538488388,0.2441406100988388
419028,0.0401611328125,0.0062255859375,1.0250244140625,0.7934569716453552,-0.1831054538488388,0.30517578125
419045,0.0396728515625,0.0057373046875,1.0260009765625,0.7324218153953552,-0.1831054538488388,0.1831054538488388
419061,0.039794921875,0.005615234375,1.026611328125,0.7324218153953552,-0.1831054538488388,0.1831054538488388
419077,0.03955078125,0.005126953125,1.025146484375,0.7324218153953552,-0.1831054538488388,0.2441406100988388
419109,0.0401611328125,0.0048828125,1.025146484375,0.7324218153953552,-0.1220703050494194,0.2441406100988388
419157,0.0396728515625,0.005615234375,1.0255126953125,0.7934569716453552,-0.1831054538488388,0.30517578125
419179,0.03955078125,0.0067138671875,1.0260009765625,0.7324218153953552,-0.1831054538488388,0.2441406100988388
419196,0.0394287109375,0.00439453125,1.02587890625,0.7934569716453552,-0.1831054538488388,0.1831054538488388
419233,0.039306640625,0.0052490234375,1.024658203125,0.7324218153953552,-0.1831054538488388,0.2441406100988388
419250,0.0399169921875,0.005615234375,1.0262451171875,0.7934569716453552,-0.1831054538488388,0.2441406100988388
419266,0.0400390625,0.0052490234375,1.02490234375,0.7934569716453552,-0.1831054538488388,0.1831054538488388
419283,0.0390625,0.005126953125,1.024658203125,0.7934569716453552,-0.1831054538488388,0.2441406100988388
419300,0.0386962890625,0.0052490234375,1.025390625,0.7934569716453552,-0.2441406100988388,0.2441406100988388
419321,0.0394287109375,0.005126953125,1.0262451171875,0.7934569716453552,-0.1831054538488388,0.2441406100988388
419337,0.04052734375,0.0059814453125,1.0255126953125,0.7934569716453552,-0.1831054538488388,0.2441406100988388
419354,0.040283203125,0.0054931640625,1.0250244140625,0.7934569716453552,-0.1831054538488388,0.2441406100988388
419404,0.039306640625,0.0057373046875,1.025146484375,0.8544921278953552,-0.1831054538488388,0.30517578125
419420,0.0400390625,0.0054931640625,1.026611328125,0.8544921278953552,-0.1831054538488388,0.30517578125
419437,0.0389404296875,0.0052490234375,1.026123046875,0.7934569716453552,-0.1831054538488388,0.30517578125
419467,0.04052734375,0.005859375,1.0263671875,0.7934569716453552,-0.1831054538488388,0.2441406100988388
419488,0.0408935546875,0.0064697265625,1.02587890625,0.7934569716453552,-0.1220703050494194,0.2441406100988388
419504,0.041015625,0.005615234375,1.0240478515625,0.8544921278953552,-0.1831054538488388,0.1831054538488388
419519,0.04052734375,0.00537109375,1.025390625,0.7934569716453552,-0.2441406100988388,0.2441406100988388
419538,0.0396728515625,0.0062255859375,1.0250244140625,0.7324218153953552,-0.1831054538488388,0.30517578125
419555,0.0406494140625,0.005859375,1.025146484375,0.7934569716453552,-0.1831054538488388,0.2441406100988388
419585,0.0394287109375,0.0057373046875,1.025634765625,0.7934569716453552,-0.1831054538488388,0.2441406100988388
419607,0.0399169921875,0.0057373046875,1.0262451171875,0.7324218153953552,-0.2441406100988388,0.2441406100988388
419623,0.0396728515625,0.0054931640625,1.0260009765625,0.7324218153953552,-0.1831054538488388,0.2441406100988388
419640,0.0391845703125,0.005859375,1.025634765625,0.7324218153953552,-0.1831054538488388,0.2441406100988388
419657,0.0394287109375,0.0057373046875,1.0252685546875,0.7324218153953552,-0.1220703050494194,0.2441406100988388
419673,0.0396728515625,0.0062255859375,1.0250244140625,0.7934569716453552,-0.1220703050494194,0.1831054538488388
419706,0.0399169921875,0.005859375,1.0267333984375,0.7934569716453552,-0.1831054538488388,0.30517578125
419723,0.040283203125,0.0054931640625,1.026123046875,0.8544921278953552,-0.1831054538488388,0.2441406100988388
419739,0.0399169921875,0.005126953125,1.02587890625,0.8544921278953552,-0.1831054538488388,0.1831054538488388
419775,0.0401611328125,0.0072021484375,1.024658203125,0.7934569716453552,-0.1831054538488388,0.2441406100988388
419791,0.0396728515625,0.0059814453125,1.0242919921875,0.7324218153953552,-0.1831054538488388,0.1831054538488388
419807,0.039794921875,0.00537109375,1.0244140625,0.7934569716453552,-0.1831054538488388,0.1831054538488388
419823,0.0399169921875,0.0054931640625,1.0250244140625,0.7934569716453552,-0.1220703050494194,0.1831054538488388
419840,0.039306640625,0.005126953125,1.02490234375,0.7324218153953552,-0.1220703050494194,0.30517578125
419861,0.0396728515625,0.0045166015625,1.025390625,0.7324218153953552,-0.1831054538488388,0.30517578125
419877,0.0396728515625,0.005126953125,1.026123046875,0.7934569716453552,-0.1831054538488388,0.30517578125
419894,0.040283203125,0.0052490234375,1.025146484375,0.7934569716453552,-0.2441406100988388,0.2441406100988388
419911,0.0391845703125,0.0052490234375,1.024169921875,0.7934569716453552,-0.2441406100988388,0.30517578125
419942,0.03955078125,0.005615234375,1.024658203125,0.8544921278953552,-0.2441406100988388,0.30517578125
419959,0.0399169921875,0.0052490234375,1.0255126953125,0.7934569716453552,-0.2441406100988388,0.30517578125
419975,0.0390625,0.0054931640625,1.0250244140625,0.7934569716453552,-0.1831054538488388,0.30517578125
420006,0.0394287109375,0.0052490234375,1.024169921875,0.7934569716453552,-0.1831054538488388,0.2441406100988388
420078,0.0394287109375,0.0059814453125,1.024658203125,0.7934569716453552,-0.1831054538488388,0.2441406100988388
420140,0.0394287109375,0.00537109375,1.0255126953125,0.7934569716453552,-0.1831054538488388,0.1831054538488388
420157,0.03955078125,0.006103515625,1.0242919921875,0.7934569716453552,-0.2441406100988388,0.2441406100988388
420194,0.0404052734375,0.00537109375,1.02490234375,0.7324218153953552,-0.1831054538488388,0.2441406100988388
420227,0.0389404296875,0.00634765625,1.0250244140625,0.7934569716453552,-0.1220703050494194,0.2441406100988388
420259,0.0401611328125,0.0062255859375,1.0244140625,0.7934569716453552,-0.1831054538488388,0.2441406100988388
420276,0.0404052734375,0.006591796875,1.02392578125,0.7324218153953552,-0.1831054538488388,0.1831054538488388
420313,0.0401611328125,0.0048828125,1.025146484375,0.7934569716453552,-0.1831054538488388,0.30517578125
420330,0.0396728515625,0.005859375,1.0245361328125,0.7934569716453552,-0.1220703050494194,0.2441406100988388
420346,0.0399169921875,0.005615234375,1.025390625,0.8544921278953552,-0.1831054538488388,0.2441406100988388
420363,0.03955078125,0.0054931640625,1.0272216796875,0.8544921278953552,-0.2441406100988388,0.2441406100988388
420380,0.041015625,0.005859375,1.0257568359375,0.7934569716453552,-0.1831054538488388,0.30517578125
420401,0.0406494140625,0.00537109375,1.0264892578125,0.7934569716453552,-0.1220703050494194,0.30517578125
420417,0.0396728515625,0.0054931640625,1.0264892578125,0.7934569716453552,-0.1220703050494194,0.2441406100988388
420484,0.040283203125,0.005859375,1.025634765625,0.7324218153953552,-0.1831054538488388,0.1831054538488388
420533,0.0404052734375,0.00537109375,1.0244140625,0.7934569716453552,-0.2441406100988388,0.30517578125
420799,0.0389404296875,0.005859375,1.0250244140625,0.7934569716453552,-0.2441406100988388,0.1831054538488388
420816,0.041015625,0.0062255859375,1.024169921875,0.8544921278953552,-0.2441406100988388,0.2441406100988388
420853,0.041015625,0.005615234375,1.025634765625,0.7934569716453552,-0.1831054538488388,0.2441406100988388
420886,0.0390625,0.005615234375,1.0260009765625,0.7934569716453552,-0.1831054538488388,0.30517578125
421353,0.039794921875,0.0054931640625,1.0267333984375,0.8544921278953552,-0.1220703050494194,0.2441406100988388
421397,0.0400390625,0.00537109375,1.02392578125,0.7324218153953552,-0.1831054538488388,0.30517578125
421446,0.0396728515625,0.006103515625,1.025146484375,0.7324218153953552,-0.1220703050494194,0.2441406100988388
421462,0.0394287109375,0.005859375,1.0242919921875,0.7934569716453552,-0.1220703050494194,0.30517578125
421478,0.03955078125,0.0057373046875,1.0244140625,0.7934569716453552,-0.1831054538488388,0.2441406100988388
421515,0.0401611328125,0.0054931640625,1.0244140625,0.7934569716453552,-0.2441406100988388,0.30517578125
421531,0.0408935546875,0.0059814453125,1.02392578125,0.8544921278953552,-0.2441406100988388,0.2441406100988388
421547,0.0399169921875,0.006103515625,1.025390625,0.8544921278953552,-0.2441406100988388,0.30517578125
421563,0.0406494140625,0.00537109375,1.0247802734375,0.7934569716453552,-0.1831054538488388,0.30517578125
421585,0.0404052734375,0.0054931640625,1.0247802734375,0.7324218153953552,-0.1831054538488388,0.2441406100988388
421601,0.0390625,0.006103515625,1.0262451171875,0.7934569716453552,-0.1831054538488388,0.2441406100988388
421618,0.04052734375,0.0047607421875,1.0245361328125,0.7934569716453552,-0.2441406100988388,0.2441406100988388
421636,0.0400390625,0.005859375,1.0247802734375,0.7934569716453552,-0.2441406100988388,0.2441406100988388
421656,0.0396728515625,0.005615234375,1.0264892578125,0.7934569716453552,-0.1831054538488388,0.2441406100988388
421688,0.0399169921875,0.006103515625,1.0242919921875,0.7934569716453552,-0.1831054538488388,0.2441406100988388
421737,0.039794921875,0.0057373046875,1.0247802734375,0.8544921278953552,-0.1831054538488388,0.30517578125
421757,0.040771484375,0.0057373046875,1.0234375,0.7934569716453552,-0.1831054538488388,0.2441406100988388
421779,0.04052734375,0.0047607421875,1.0242919921875,0.7934569716453552,-0.1831054538488388,0.30517578125
421795,0.039794921875,0.0059814453125,1.025390625,0.7934569716453552,-0.1831054538488388,0.30517578125
421812,0.0399169921875,0.0057373046875,1.0263671875,0.7934569716453552,-0.1831054538488388,0.30517578125
421829,0.0399169921875,0.006103515625,1.02587890625,0.7934569716453552,-0.2441406100988388,0.30517578125
421862,0.040283203125,0.005615234375,1.0250244140625,0.7934569716453552,-0.1831054538488388,0.1831054538488388
421879,0.0399169921875,0.0054931640625,1.0245361328125,0.7934569716453552,-0.1831054538488388,0.1831054538488388
421895,0.0404052734375,0.005615234375,1.0245361328125,0.7934569716453552,-0.1831054538488388,0.2441406100988388
421927,0.0404052734375,0.006103515625,1.0257568359375,0.7934569716453552,-0.1220703050494194,0.2441406100988388
421943,0.0400390625,0.0067138671875,1.02587890625,0.7324218153953552,-0.1220703050494194,0.2441406100988388
421959,0.039794921875,0.00537109375,1.0250244140625,0.7324218153953552,-0.1831054538488388,0.1831054538488388
421995,0.03857421875,0.00634765625,1.026123046875,0.7324218153953552,-0.1831054538488388,0.2441406100988388
422011,0.0394287109375,0.006591796875,1.0260009765625,0.7934569716453552,-0.1831054538488388,0.2441406100988388
422027,0.040283203125,0.0062255859375,1.0252685546875,0.8544921278953552,-0.1220703050494194,0.2441406100988388
422043,0.0400390625,0.005859375,1.0257568359375,0.7934569716453552,-0.1831054538488388,0.2441406100988388
422065,0.0399169921875,0.0062255859375,1.0263671875,0.7324218153953552,-0.1831054538488388,0.1831054538488388
422081,0.0390625,0.006591796875,1.0257568359375,0.7324218153953552,-0.2441406100988388,0.2441406100988388
422098,0.03955078125,0.0054931640625,1.0252685546875,0.7324218153953552,-0.2441406100988388,0.30517578125
422164,0.039306640625,0.0057373046875,1.024658203125,0.7324218153953552,-0.2441406100988388,0.2441406100988388
422182,0.039794921875,0.0054931640625,1.025146484375,0.7934569716453552,-0.1831054538488388,0.2441406100988388
422198,0.0401611328125,0.005615234375,1.026123046875,0.7324218153953552,-0.1220703050494194,0.2441406100988388
422230,0.0396728515625,0.005859375,1.0263671875,0.7934569716453552,-0.1220703050494194,0.2441406100988388
422246,0.0406494140625,0.00439453125,1.025634765625,0.7934569716453552,-0.1831054538488388,0.3662109076976776
422262,0.040771484375,0.00537109375,1.024658203125,0.7934569716453552,-0.1831054538488388,0.30517578125
422278,0.0400390625,0.0059814453125,1.0242919921875,0.7324218153953552,-0.1220703050494194,0.2441406100988388
422298,0.03955078125,0.005859375,1.0255126953125,0.7934569716453552,-0.1220703050494194,0.1831054538488388
422319,0.0396728515625,0.005859375,1.0255126953125,0.7934569716453552,-0.1831054538488388,0.1831054538488388
422385,0.040283203125,0.005859375,1.0238037109375,0.7324218153953552,-0.1220703050494194,0.30517578125
422419,0.039794921875,0.005615234375,1.0257568359375,0.7324218153953552,-0.1831054538488388,0.30517578125
422436,0.0404052734375,0.00634765625,1.025634765625,0.7324218153953552,-0.2441406100988388,0.3662109076976776
422469,0.0396728515625,0.0050048828125,1.024169921875,0.7324218153953552,-0.1831054538488388,0.2441406100988388
422502,0.03955078125,0.0057373046875,1.02490234375,0.7934569716453552,-0.1220703050494194,0.2441406100988388
422543,0.039306640625,0.005615234375,1.0257568359375,0.7324218153953552,-0.2441406100988388,0.30517578125
422577,0.0408935546875,0.0062255859375,1.0252685546875,0.7324218153953552,-0.1831054538488388,0.2441406100988388
422601,0.0404052734375,0.0057373046875,1.025146484375,0.7324218153953552,-0.1831054538488388,0.1831054538488388
422618,0.0390625,0.0057373046875,1.02490234375,0.7324218153953552,-0.1831054538488388,0.30517578125
422653,0.0404052734375,0.00537109375,1.025146484375,0.7934569716453552,-0.1831054538488388,0.30517578125
422686,0.0401611328125,0.0001220703125,1.024658203125,0.7324218153953552,-0.1831054538488388,0.4272460639476776
422717,0.0400390625,0.00634765625,1.0235595703125,0.1220703050494194,-0.2441406100988388,0.2441406100988388
422767,0.0396728515625,0.000732421875,1.0262451171875,-0.4272460639476776,-0.2441406100988388,0.30517578125
422783,0.040283203125,0.00244140625,1.0262451171875,-0.6713866591453552,-0.30517578125,0.30517578125
422800,0.0396728515625,-0.0006103515625,1.02490234375,-1.0986328125,-0.2441406100988388,0.2441406100988388
422816,0.0404052734375,0.00634765625,1.02587890625,-1.2817381620407104,-0.1831054538488388,0.2441406100988388
422871,0.03515625,-0.001708984375,1.0257568359375,-1.8310545682907104,-0.30517578125,0.4272460639476776
422913,0.042236328125,-0.0081787109375,1.0263671875,-4.638671875,-0.3662109076976776,0.4882812201976776
422958,0.038330078125,-0.0074462890625,1.0267333984375,-8.30078125,-0.4272460639476776,0.3662109076976776
422975,0.0380859375,-0.0030517578125,1.0263671875,-10.070799827575684,-0.54931640625,0.4272460639476776
423008,0.041748046875,0.0087890625,1.0252685546875,-12.695311546325684,-0.7934569716453552,0.6103515625
423024,0.0408935546875,0.013671875,1.0250244140625,-14.221190452575684,-0.7934569716453552,0.7934569716453552
423041,0.037353515625,0.0201416015625,1.0255126953125,-15.563963890075684,-0.8544921278953552,0.9765624403953552
423057,0.0386962890625,0.0252685546875,1.0257568359375,-16.2353515625,-0.8544921278953552,1.03759765625
423082,0.0391845703125,0.0274658203125,1.025146484375,-17.578125,-0.9155272841453552,1.0986328125
423098,0.0386962890625,0.033447265625,1.02587890625,-19.04296875,-1.03759765625,1.0986328125
423115,0.0386962890625,0.0404052734375,1.0257568359375,-20.446775436401367,-1.0986328125,1.15966796875
423135,0.038330078125,0.05517578125,1.0230712890625,-21.545408248901367,-1.0986328125,1.220703125
423151,0.0377197265625,0.06787109375,1.022216796875,-21.911619186401367,-1.0986328125,1.220703125
423185,0.0362548828125,0.0767822265625,1.022705078125,-23.193357467651367,-1.0986328125,1.4038084745407104
423201,0.03662109375,0.0794677734375,1.0218505859375,-23.986814498901367,-1.15966796875,1.4038084745407104
423249,0.0343017578125,0.111572265625,1.0184326171875,-25.512693405151367,-1.220703125,1.4038084745407104
423265,0.033935546875,0.1153564453125,1.0181884765625,-25.756834030151367,-1.220703125,1.4648436307907104
423313,0.0360107421875,0.1356201171875,1.0159912109375,-27.038572311401367,-1.3427733182907104,1.5258787870407104
423444,0.0303955078125,0.199462890625,1.00390625,-29.663084030151367,-1.4038084745407104,1.5869139432907104
423461,0.030029296875,0.211181640625,1.0008544921875,-29.846189498901367,-1.3427733182907104,1.5869139432907104
423478,0.0301513671875,0.2159423828125,1.000244140625,-30.273435592651367,-1.4648436307907104,1.5869139432907104
423495,0.0302734375,0.226806640625,0.9970703125,-30.700681686401367,-1.5869139432907104,1.5869139432907104
423511,0.0283203125,0.23974609375,0.9932861328125,-30.883787155151367,-1.5258787870407104,1.6479490995407104
423543,0.0286865234375,0.255126953125,0.9898681640625,-31.127927780151367,-1.5258787870407104,1.7700194120407104
423567,0.028076171875,0.262451171875,0.9888916015625,-31.494138717651367,-1.5258787870407104,1.7700194120407104
423583,0.0264892578125,0.2711181640625,0.985595703125,-31.738279342651367,-1.5258787870407104,1.7089842557907104
423600,0.0294189453125,0.283203125,0.982177734375,-32.16552734375,-1.4038084745407104,1.7700194120407104
423617,0.02978515625,0.29052734375,0.979248046875,-32.5927734375,-1.5258787870407104,1.6479490995407104
423633,0.025390625,0.3050537109375,0.9747314453125,-32.65380859375,-1.5258787870407104,1.7089842557907104
423667,0.024169921875,0.3226318359375,0.9703369140625,-32.65380859375,-1.5258787870407104,1.7700194120407104
423683,0.0244140625,0.327880859375,0.967041015625,-32.77587890625,-1.4648436307907104,1.7700194120407104
423699,0.0252685546875,0.334228515625,0.9644775390625,-32.89794921875,-1.5258787870407104,1.8310545682907104
423735,0.0235595703125,0.3558349609375,0.95947265625,-33.69140625,-1.5869139432907104,1.7700194120407104
423782,0.0198974609375,0.3902587890625,0.9434814453125,-33.8134765625,-1.5869139432907104,1.8310545682907104
423804,0.0252685546875,0.3985595703125,0.939697265625,-33.8134765625,-1.5258787870407104,1.8920897245407104
423821,0.0142822265625,0.399169921875,0.939453125,-33.935546875,-1.5258787870407104,1.9531248807907104
423838,0.01171875,0.4036865234375,0.9351806640625,-34.24072265625,-1.5869139432907104,1.8310545682907104
423887,0.01708984375,0.4422607421875,0.914794921875,-34.48486328125,-1.7089842557907104,1.8310545682907104
423919,0.014892578125,0.4569091796875,0.908447265625,-34.11865234375,-1.6479490995407104,1.8920897245407104
423936,0.019287109375,0.466064453125,0.9061279296875,-33.99658203125,-1.6479490995407104,1.8920897245407104
423969,0.01416015625,0.481689453125,0.8973388671875,-33.87451171875,-1.6479490995407104,1.7089842557907104
423986,0.0142822265625,0.494873046875,0.8902587890625,-33.69140625,-1.5869139432907104,1.7700194120407104
424018,0.015869140625,0.513671875,0.8782958984375,-32.89794921875,-1.6479490995407104,1.7089842557907104
424039,0.0133056640625,0.52734375,0.8714599609375,-32.28759765625,-1.5258787870407104,1.7700194120407104
424056,0.0108642578125,0.5283203125,0.87109375,-31.860349655151367,-1.5258787870407104,1.8310545682907104
424089,0.01611328125,0.548828125,0.8695068359375,-31.372068405151367,-1.2817381620407104,1.9531248807907104
424106,0.015380859375,0.53173828125,0.8665771484375,-31.433103561401367,-1.5869139432907104,1.6479490995407104
424122,0.010986328125,0.563720703125,0.851806640625,-31.372068405151367,-1.4648436307907104,1.7089842557907104
424138,0.011962890625,0.553466796875,0.8602294921875,-31.372068405151367,-1.6479490995407104,1.6479490995407104
424158,0.007568359375,0.608154296875,0.827392578125,-30.395505905151367,-1.4038084745407104,1.6479490995407104
424180,0.016357421875,0.5128173828125,0.8831787109375,-31.005857467651367,-1.6479490995407104,1.3427733182907104
424196,0.011962890625,0.5623779296875,0.8360595703125,-35.7666015625,-2.25830078125,1.15966796875
424213,0.008544921875,0.6190185546875,0.80908203125,-35.46142578125,-2.197265625,1.220703125
424230,0.0050048828125,0.6282958984375,0.7996826171875,-34.0576171875,-1.8310545682907104,1.5258787870407104
424263,0.00244140625,0.6363525390625,0.7906494140625,-32.5927734375,-1.2817381620407104,1.9531248807907104
424280,0.0064697265625,0.6138916015625,0.8055419921875,-32.3486328125,-1.4038084745407104,1.8310545682907104
424300,0.0076904296875,0.6387939453125,0.7860107421875,-31.982419967651367,-1.5258787870407104,1.5258787870407104
424320,0.00341796875,0.644775390625,0.7750244140625,-32.1044921875,-1.2817381620407104,1.9531248807907104
424374,0.0069580078125,0.6630859375,0.7662353515625,-34.97314453125,-1.7089842557907104,1.6479490995407104
424394,0.001220703125,0.6856689453125,0.743408203125,-34.97314453125,-1.8310545682907104,1.5869139432907104
424410,-0.002197265625,0.6927490234375,0.738525390625,-34.11865234375,-1.6479490995407104,1.8310545682907104
424427,-0.0001220703125,0.6923828125,0.7359619140625,-33.69140625,-1.4038084745407104,1.9531248807907104
424444,0.0013427734375,0.6680908203125,0.758544921875,-33.87451171875,-1.4648436307907104,1.8920897245407104
424460,0.0025634765625,0.67822265625,0.758544921875,-35.400390625,-1.8310545682907104,1.7089842557907104
424477,-0.0015869140625,0.7198486328125,0.7022705078125,-35.82763671875,-1.8310545682907104,1.7089842557907104
424506,-0.005126953125,0.7227783203125,0.7030029296875,-34.7900390625,-1.5258787870407104,1.9531248807907104
424528,0.0013427734375,0.7152099609375,0.7166748046875,-35.400390625,-1.5869139432907104,1.9531248807907104
424544,-0.0018310546875,0.7332763671875,0.693115234375,-35.82763671875,-1.7700194120407104,1.7700194120407104
424560,-0.004638671875,0.7425537109375,0.68359375,-36.07177734375,-1.7700194120407104,1.7089842557907104
424579,-0.0072021484375,0.76318359375,0.6624755859375,-35.7666015625,-1.7700194120407104,1.7700194120407104
424596,-0.003662109375,0.7620849609375,0.6617431640625,-35.46142578125,-1.6479490995407104,1.8920897245407104
424626,-0.0054931640625,0.764404296875,0.6588134765625,-35.64453125,-1.6479490995407104,1.8310545682907104
424642,-0.0081787109375,0.7786865234375,0.6397705078125,-35.7666015625,-1.7700194120407104,1.7700194120407104
424690,-0.0076904296875,0.7967529296875,0.6165771484375,-35.33935546875,-1.6479490995407104,1.8920897245407104
424738,-0.009765625,0.8106689453125,0.59716796875,-35.5224609375,-1.6479490995407104,1.7089842557907104
424759,-0.01025390625,0.818359375,0.5843505859375,-35.5224609375,-1.7089842557907104,1.8310545682907104
424776,-0.011474609375,0.8275146484375,0.57275390625,-35.5224609375,-1.7089842557907104,1.7700194120407104
424809,-0.013427734375,0.8348388671875,0.55859375,-35.46142578125,-1.7089842557907104,1.8310545682907104
424826,-0.013671875,0.8455810546875,0.5457763671875,-35.400390625,-1.6479490995407104,1.8310545682907104
424842,-0.0133056640625,0.8502197265625,0.5377197265625,-35.21728515625,-1.5869139432907104,1.8310545682907104
424858,-0.0111083984375,0.843017578125,0.5457763671875,-35.46142578125,-1.7089842557907104,1.7089842557907104
424878,-0.01611328125,0.86083984375,0.518798828125,-35.7666015625,-1.8310545682907104,1.7700194120407104
424900,-0.017578125,0.8704833984375,0.501220703125,-35.21728515625,-1.7089842557907104,1.7700194120407104
424916,-0.015380859375,0.8707275390625,0.4974365234375,-35.0341796875,-1.5869139432907104,1.7700194120407104
424933,-0.014892578125,0.8736572265625,0.4930419921875,-34.7900390625,-1.5869139432907104,1.7700194120407104
424950,-0.015869140625,0.878662109375,0.4842529296875,-34.60693359375,-1.5869139432907104,1.7700194120407104
424983,-0.018310546875,0.89208984375,0.461669921875,-34.48486328125,-1.7089842557907104,1.8310545682907104
425032,-0.0205078125,0.9024658203125,0.435302734375,-33.63037109375,-1.5869139432907104,1.7089842557907104
425081,-0.0216064453125,0.9154052734375,0.41357421875,-33.0810546875,-1.6479490995407104,1.6479490995407104
425123,-0.0242919921875,0.9281005859375,0.379638671875,-31.860349655151367,-1.4648436307907104,1.7089842557907104
425140,-0.0235595703125,0.9324951171875,0.375,-30.761716842651367,-1.4648436307907104,1.6479490995407104
425157,-0.0211181640625,0.9239501953125,0.376953125,-30.395505905151367,-1.4038084745407104,1.6479490995407104
425177,-0.023681640625,0.920654296875,0.387451171875,-30.456541061401367,-1.5258787870407104,1.5869139432907104
425194,-0.023193359375,0.9249267578125,0.3671875,-31.555173873901367,-1.7089842557907104,1.5258787870407104
425210,-0.02880859375,0.9488525390625,0.3160400390625,-31.738279342651367,-1.7089842557907104,1.5258787870407104
425225,-0.0269775390625,0.9488525390625,0.3170166015625,-30.456541061401367,-1.2817381620407104,1.6479490995407104
425247,-0.02783203125,0.9505615234375,0.324462890625,-30.151365280151367,-1.220703125,1.6479490995407104
425263,-0.0262451171875,0.939453125,0.3316650390625,-29.785154342651367,-1.2817381620407104,1.5869139432907104
425280,-0.0244140625,0.9454345703125,0.3182373046875,-29.785154342651367,-1.5258787870407104,1.6479490995407104
425297,-0.02734375,0.955322265625,0.294677734375,-29.724119186401367,-1.6479490995407104,1.5258787870407104
425313,-0.0289306640625,0.9561767578125,0.2864990234375,-29.174802780151367,-1.5258787870407104,1.5258787870407104
425347,-0.0267333984375,0.96337890625,0.2708740234375,-27.709959030151367,-1.2817381620407104,1.5869139432907104
425363,-0.0283203125,0.9603271484375,0.2728271484375,-27.526853561401367,-1.15966796875,1.5869139432907104
425379,-0.028564453125,0.961669921875,0.2725830078125,-27.587888717651367,-1.3427733182907104,1.4648436307907104
425414,-0.0323486328125,0.9696044921875,0.246337890625,-27.404783248901367,-1.4038084745407104,1.4038084745407104
425436,-0.02978515625,0.9739990234375,0.229736328125,-27.038572311401367,-1.5258787870407104,1.4038084745407104
425452,-0.0279541015625,0.970458984375,0.226318359375,-26.550291061401367,-1.4038084745407104,1.4648436307907104
425473,-0.0345458984375,0.96826171875,0.224853515625,-26.367185592651367,-1.3427733182907104,1.3427733182907104
425493,-0.0343017578125,0.9727783203125,0.2120361328125,-26.184080123901367,-1.3427733182907104,1.3427733182907104
425514,-0.02880859375,0.975830078125,0.2020263671875,-25.756834030151367,-1.3427733182907104,1.4648436307907104
425534,-0.0360107421875,0.9771728515625,0.18603515625,-25.268552780151367,-1.2817381620407104,1.4038084745407104
425551,-0.0328369140625,0.976806640625,0.184326171875,-24.963376998901367,-1.220703125,1.4038084745407104
425567,-0.031494140625,0.9779052734375,0.18017578125,-24.780271530151367,-1.15966796875,1.4648436307907104
425584,-0.0316162109375,0.9752197265625,0.1788330078125,-24.780271530151367,-1.220703125,1.4648436307907104
425601,-0.035888671875,0.9818115234375,0.1644287109375,-24.536130905151367,-1.220703125,1.4038084745407104
425622,-0.037109375,0.9815673828125,0.1517333984375,-24.230955123901367,-1.2817381620407104,1.2817381620407104
425638,-0.03271484375,0.9866943359375,0.1405029296875,-24.047849655151367,-1.2817381620407104,1.2817381620407104
425655,-0.0328369140625,0.98486328125,0.138916015625,-23.559568405151367,-1.15966796875,1.2817381620407104
425672,-0.0360107421875,0.9864501953125,0.1358642578125,-23.132322311401367,-1.0986328125,1.2817381620407104
425705,-0.0374755859375,0.98583984375,0.1202392578125,-22.705076217651367,-1.0986328125,1.220703125
425722,-0.033447265625,0.9859619140625,0.1151123046875,-22.277830123901367,-1.220703125,1.220703125
425738,-0.039794921875,0.988037109375,0.10009765625,-21.667478561401367,-1.0986328125,1.15966796875
425770,-0.037841796875,0.9884033203125,0.0931396484375,-20.874021530151367,-0.9765624403953552,1.220703125
425786,-0.0362548828125,0.98876953125,0.0908203125,-20.751951217651367,-1.03759765625,1.15966796875
425802,-0.0380859375,0.988525390625,0.084228515625,-20.385740280151367,-1.0986328125,1.2817381620407104
425818,-0.040771484375,0.9901123046875,0.0732421875,-19.8974609375,-1.15966796875,1.220703125
425838,-0.0389404296875,0.9903564453125,0.065185546875,-19.287109375,-1.03759765625,1.220703125
425854,-0.0377197265625,0.989501953125,0.0650634765625,-18.98193359375,-1.03759765625,1.15966796875
425870,-0.0394287109375,0.9910888671875,0.0582275390625,-18.37158203125,-0.9765624403953552,1.15966796875
425885,-0.0411376953125,0.990234375,0.050537109375,-18.12744140625,-0.9765624403953552,1.0986328125
425906,-0.0413818359375,0.989990234375,0.0447998046875,-17.39501953125,-0.9765624403953552,1.03759765625
425939,-0.0401611328125,0.9918212890625,0.032470703125,-16.357421875,-0.9155272841453552,0.9155272841453552
425956,-0.040283203125,0.991455078125,0.0333251953125,-15.747069358825684,-0.8544921278953552,0.9155272841453552
425972,-0.0411376953125,0.99072265625,0.03125,-15.258788108825684,-0.7324218153953552,0.9155272841453552
426006,-0.040283203125,0.9918212890625,0.01416015625,-14.160155296325684,-0.9155272841453552,0.9765624403953552
426022,-0.040771484375,0.9927978515625,0.0059814453125,-13.244627952575684,-0.7934569716453552,0.9155272841453552
426038,-0.0421142578125,0.991455078125,0.0045166015625,-12.207030296325684,-0.7324218153953552,0.7324218153953552
426070,-0.0428466796875,0.9923095703125,0.0013427734375,-10.864256858825684,-0.6713866591453552,0.7934569716453552
426086,-0.0416259765625,0.9918212890625,-0.000732421875,-10.375975608825684,-0.6713866591453552,0.7934569716453552
426102,-0.04150390625,0.991943359375,-0.010986328125,-9.33837890625,-0.6103515625,0.7324218153953552
426118,-0.0423583984375,0.9925537109375,-0.013916015625,-8.1787109375,-0.54931640625,0.6103515625
426190,-0.0421142578125,0.9912109375,-0.022216796875,-5.065917491912842,-0.4272460639476776,0.4272460639476776
426206,-0.04248046875,0.99169921875,-0.0242919921875,-4.0283203125,-0.3662109076976776,0.4272460639476776
426223,-0.0426025390625,0.9913330078125,-0.02587890625,-2.868652105331421,-0.3662109076976776,0.3662109076976776
426240,-0.0428466796875,0.9908447265625,-0.025146484375,-2.25830078125,-0.30517578125,0.3662109076976776
426256,-0.0419921875,0.99169921875,-0.02392578125,-1.15966796875,-0.30517578125,0.3662109076976776
426273,-0.0423583984375,0.9918212890625,-0.0252685546875,-0.0610351525247097,-0.1831054538488388,0.30517578125
426306,-0.0433349609375,0.9910888671875,-0.0269775390625,1.7700194120407104,-0.1831054538488388,0.1220703050494194
426322,-0.0435791015625,0.99072265625,-0.025634765625,2.868652105331421,-0.1220703050494194,0.1831054538488388
426338,-0.04296875,0.990966796875,-0.0235595703125,3.417968511581421,-0.0610351525247097,0.2441406100988388
426370,-0.0435791015625,0.9920654296875,-0.0211181640625,5.676269054412842,0.0610351525247097,0.0
426386,-0.043701171875,0.9910888671875,-0.019775390625,6.225585460662842,0.0,-0.0610351525247097
426402,-0.04345703125,0.9906005859375,-0.018798828125,7.263183116912842,0.0610351525247097,-0.0610351525247097
426418,-0.042236328125,0.991455078125,-0.015869140625,7.812499523162842,0.1220703050494194,-0.1220703050494194
426435,-0.04150390625,0.9913330078125,-0.01416015625,8.85009765625,0.1220703050494194,-0.1831054538488388
426490,-0.041748046875,0.991455078125,-0.0047607421875,11.047362327575684,0.30517578125,-0.1831054538488388
426506,-0.0428466796875,0.9912109375,0.0,11.779784202575684,0.30517578125,-0.2441406100988388
426523,-0.041748046875,0.99169921875,0.0050048828125,12.145995140075684,0.30517578125,-0.30517578125
426539,-0.040771484375,0.992431640625,0.01123046875,12.878417015075684,0.2441406100988388,-0.2441406100988388
426556,-0.0416259765625,0.9913330078125,0.013916015625,13.488768577575684,0.30517578125,-0.30517578125
426573,-0.0419921875,0.9906005859375,0.0194091796875,13.916014671325684,0.3662109076976776,-0.3662109076976776
426605,-0.0406494140625,0.9912109375,0.027587890625,14.587401390075684,0.4272460639476776,-0.30517578125
426621,-0.0399169921875,0.9912109375,0.0333251953125,14.770506858825684,0.4272460639476776,-0.4272460639476776
426637,-0.0400390625,0.989990234375,0.0350341796875,14.953612327575684,0.4272460639476776,-0.3662109076976776
426669,-0.0394287109375,0.990478515625,0.044677734375,15.258788108825684,0.3662109076976776,-0.3662109076976776
426686,-0.039794921875,0.9906005859375,0.047607421875,15.441893577575684,0.3662109076976776,-0.4272460639476776
426707,-0.0394287109375,0.990234375,0.055419921875,15.563963890075684,0.3662109076976776,-0.4272460639476776
426722,-0.0404052734375,0.98876953125,0.0596923828125,15.624999046325684,0.4272460639476776,-0.4272460639476776
426739,-0.03955078125,0.988525390625,0.0618896484375,15.686034202575684,0.4882812201976776,-0.4272460639476776
426759,-0.0390625,0.989990234375,0.070068359375,15.686034202575684,0.4272460639476776,-0.30517578125
426780,-0.0386962890625,0.9896240234375,0.0760498046875,15.686034202575684,0.4272460639476776,-0.4272460639476776
426797,-0.038818359375,0.989013671875,0.07861328125,15.686034202575684,0.4272460639476776,-0.4272460639476776
426813,-0.037841796875,0.988037109375,0.0863037109375,15.563963890075684,0.4272460639476776,-0.4882812201976776
426845,-0.038330078125,0.9876708984375,0.0921630859375,15.502928733825684,0.4272460639476776,-0.3662109076976776
426861,-0.0374755859375,0.9871826171875,0.0943603515625,15.502928733825684,0.3662109076976776,-0.30517578125
426877,-0.03759765625,0.9864501953125,0.097412109375,15.502928733825684,0.4272460639476776,-0.3662109076976776
426906,-0.037841796875,0.986328125,0.1103515625,15.380858421325684,0.4272460639476776,-0.3662109076976776
426928,-0.0377197265625,0.98583984375,0.112060546875,15.197752952575684,0.4272460639476776,-0.3662109076976776
426944,-0.0369873046875,0.986328125,0.1158447265625,15.197752952575684,0.4272460639476776,-0.4272460639476776
426961,-0.037353515625,0.9857177734375,0.1192626953125,15.075682640075684,0.3662109076976776,-0.3662109076976776
426978,-0.0367431640625,0.98486328125,0.1217041015625,15.014647483825684,0.3662109076976776,-0.3662109076976776
426994,-0.0357666015625,0.9852294921875,0.1275634765625,14.953612327575684,0.4272460639476776,-0.3662109076976776
427027,-0.037109375,0.983154296875,0.135986328125,14.709471702575684,0.4272460639476776,-0.3662109076976776
427049,-0.0360107421875,0.982177734375,0.1409912109375,14.587401390075684,0.3662109076976776,-0.3662109076976776
427065,-0.03564453125,0.9820556640625,0.1456298828125,14.587401390075684,0.3662109076976776,-0.3662109076976776
427082,-0.03515625,0.982177734375,0.150634765625,14.404295921325684,0.3662109076976776,-0.3662109076976776
427099,-0.0343017578125,0.980712890625,0.1524658203125,14.282225608825684,0.3662109076976776,-0.3662109076976776
427115,-0.03564453125,0.9808349609375,0.1571044921875,14.221190452575684,0.3662109076976776,-0.3662109076976776
427165,-0.0341796875,0.979736328125,0.16748046875,13.793944358825684,0.3662109076976776,-0.3662109076976776
427217,-0.0347900390625,0.976806640625,0.1781005859375,13.793944358825684,0.30517578125,-0.30517578125
427234,-0.033203125,0.9774169921875,0.180908203125,13.793944358825684,0.3662109076976776,-0.30517578125
427267,-0.0335693359375,0.976318359375,0.189697265625,13.854979515075684,0.4272460639476776,-0.3662109076976776
427300,-0.032470703125,0.974365234375,0.19677734375,13.854979515075684,0.30517578125,-0.3662109076976776
427343,-0.0325927734375,0.973388671875,0.2039794921875,13.854979515075684,0.3662109076976776,-0.4272460639476776
427360,-0.0325927734375,0.97265625,0.2069091796875,13.854979515075684,0.4272460639476776,-0.30517578125
427376,-0.03271484375,0.9732666015625,0.212646484375,13.916014671325684,0.3662109076976776,-0.30517578125
427395,-0.033203125,0.9718017578125,0.2149658203125,14.160155296325684,0.3662109076976776,-0.3662109076976776
427412,-0.03271484375,0.970947265625,0.21826171875,14.221190452575684,0.3662109076976776,-0.3662109076976776
427444,-0.031005859375,0.9698486328125,0.2261962890625,14.587401390075684,0.3662109076976776,-0.3662109076976776
427460,-0.0308837890625,0.968994140625,0.2279052734375,14.709471702575684,0.3662109076976776,-0.30517578125
427476,-0.030517578125,0.9691162109375,0.2315673828125,14.831542015075684,0.3662109076976776,-0.4272460639476776
427508,-0.0316162109375,0.96728515625,0.239501953125,15.197752952575684,0.4272460639476776,-0.4272460639476776
427524,-0.0308837890625,0.965087890625,0.2454833984375,15.441893577575684,0.4882812201976776,-0.4272460639476776
427540,-0.0299072265625,0.96533203125,0.2481689453125,15.502928733825684,0.4882812201976776,-0.4272460639476776
427556,-0.0291748046875,0.9639892578125,0.253173828125,15.686034202575684,0.4272460639476776,-0.3662109076976776
427576,-0.030029296875,0.9617919921875,0.2576904296875,15.930174827575684,0.4272460639476776,-0.3662109076976776
427598,-0.029541015625,0.9620361328125,0.2620849609375,16.17431640625,0.4272460639476776,-0.3662109076976776
427614,-0.029296875,0.96044921875,0.2666015625,16.29638671875,0.4272460639476776,-0.3662109076976776
427633,-0.0294189453125,0.9593505859375,0.2703857421875,16.4794921875,0.4272460639476776,-0.4272460639476776
427650,-0.02978515625,0.9586181640625,0.27587890625,16.6015625,0.4882812201976776,-0.4882812201976776
427683,-0.0277099609375,0.95556640625,0.2855224609375,16.9677734375,0.4882812201976776,-0.4272460639476776
427700,-0.028076171875,0.9549560546875,0.2877197265625,17.02880859375,0.4882812201976776,-0.3662109076976776
427716,-0.028076171875,0.952880859375,0.2935791015625,17.15087890625,0.54931640625,-0.3662109076976776
427748,-0.02783203125,0.9512939453125,0.302734375,17.51708984375,0.4882812201976776,-0.4882812201976776
427764,-0.02734375,0.949462890625,0.307861328125,17.63916015625,0.4882812201976776,-0.4882812201976776
427780,-0.027099609375,0.9486083984375,0.3111572265625,17.7001953125,0.4882812201976776,-0.4882812201976776
427821,-0.0267333984375,0.9451904296875,0.3211669921875,17.9443359375,0.54931640625,-0.4882812201976776
427837,-0.026611328125,0.9439697265625,0.3292236328125,18.06640625,0.54931640625,-0.4882812201976776
427858,-0.0264892578125,0.9422607421875,0.3330078125,18.1884765625,0.54931640625,-0.54931640625
427875,-0.0247802734375,0.9405517578125,0.3389892578125,18.310546875,0.6103515625,-0.54931640625
427895,-0.025634765625,0.9376220703125,0.3450927734375,18.4326171875,0.54931640625,-0.4882812201976776
427916,-0.0250244140625,0.9349365234375,0.350830078125,18.4326171875,0.54931640625,-0.4882812201976776
427936,-0.024169921875,0.9339599609375,0.357666015625,18.61572265625,0.54931640625,-0.4882812201976776
427952,-0.02392578125,0.9334716796875,0.360595703125,18.61572265625,0.54931640625,-0.4882812201976776
427968,-0.023193359375,0.9296875,0.36669921875,18.5546875,0.54931640625,-0.54931640625
427984,-0.023193359375,0.9276123046875,0.372314453125,18.4326171875,0.6103515625,-0.54931640625
428001,-0.0233154296875,0.9273681640625,0.374755859375,18.4326171875,0.6103515625,-0.6103515625
428022,-0.0230712890625,0.9246826171875,0.380859375,18.4326171875,0.6103515625,-0.6103515625
428038,-0.0224609375,0.9222412109375,0.387451171875,18.37158203125,0.6103515625,-0.54931640625
428055,-0.0224609375,0.9205322265625,0.392822265625,18.24951171875,0.54931640625,-0.4882812201976776
428072,-0.022216796875,0.91943359375,0.3956298828125,18.06640625,0.54931640625,-0.4882812201976776
428103,-0.021484375,0.914306640625,0.4066162109375,17.9443359375,0.4882812201976776,-0.4882812201976776
428168,-0.0206298828125,0.9073486328125,0.4215087890625,17.4560546875,0.4882812201976776,-0.4272460639476776
428189,-0.020263671875,0.906005859375,0.426513671875,17.39501953125,0.4882812201976776,-0.4272460639476776
428205,-0.0205078125,0.9027099609375,0.43115234375,17.333984375,0.4882812201976776,-0.4882812201976776
428220,-0.02099609375,0.9017333984375,0.433837890625,17.333984375,0.54931640625,-0.4882812201976776
428270,-0.0194091796875,0.896728515625,0.4468994140625,16.9677734375,0.4882812201976776,-0.4882812201976776
428303,-0.0184326171875,0.892333984375,0.4564208984375,16.845703125,0.4882812201976776,-0.4272460639476776
428320,-0.0191650390625,0.8902587890625,0.4593505859375,16.78466796875,0.4882812201976776,-0.4272460639476776
428336,-0.0181884765625,0.887939453125,0.465087890625,16.66259765625,0.4272460639476776,-0.4272460639476776
428386,-0.017578125,0.88232421875,0.476806640625,16.2353515625,0.4882812201976776,-0.4882812201976776
428418,-0.0177001953125,0.8773193359375,0.48583984375,16.17431640625,0.3662109076976776,-0.4272460639476776
428435,-0.0177001953125,0.87548828125,0.489501953125,15.747069358825684,0.4882812201976776,-0.3662109076976776
428468,-0.01220703125,0.8656005859375,0.505859375,14.770506858825684,0.4272460639476776,-0.3662109076976776
428485,-0.0177001953125,0.8721923828125,0.491943359375,14.404295921325684,0.3662109076976776,-0.3662109076976776
428501,-0.0167236328125,0.8726806640625,0.4969482421875,14.831542015075684,0.30517578125,-0.30517578125
428517,-0.0157470703125,0.872802734375,0.4993896484375,15.319823265075684,0.3662109076976776,-0.3662109076976776
428536,-0.0155029296875,0.8729248046875,0.497802734375,15.747069358825684,0.4882812201976776,-0.4272460639476776
428584,-0.0152587890625,0.8543701171875,0.5277099609375,15.441893577575684,0.4272460639476776,-0.3662109076976776
428601,-0.0146484375,0.85595703125,0.5252685546875,15.075682640075684,0.3662109076976776,-0.4272460639476776
428622,-0.0155029296875,0.856689453125,0.5224609375,15.014647483825684,0.3662109076976776,-0.4272460639476776
428638,-0.012451171875,0.8548583984375,0.529052734375,15.075682640075684,0.4272460639476776,-0.3662109076976776
428655,-0.0133056640625,0.8497314453125,0.5345458984375,14.953612327575684,0.54931640625,-0.30517578125
428672,-0.016357421875,0.847412109375,0.542236328125,14.770506858825684,0.30517578125,-0.4272460639476776
428705,-0.0096435546875,0.8455810546875,0.5421142578125,14.099120140075684,0.3662109076976776,-0.4272460639476776
428722,-0.0145263671875,0.86328125,0.52001953125,15.014647483825684,0.54931640625,-0.3662109076976776
428738,-0.0146484375,0.8323974609375,0.5657958984375,15.380858421325684,0.4882812201976776,-0.3662109076976776
428770,-0.010498046875,0.8380126953125,0.55859375,14.770506858825684,0.2441406100988388,-0.4272460639476776
428786,-0.0130615234375,0.8455810546875,0.5467529296875,14.953612327575684,0.30517578125,-0.4272460639476776
428802,-0.0135498046875,0.8392333984375,0.555419921875,15.441893577575684,0.4272460639476776,-0.30517578125
428818,-0.0126953125,0.8309326171875,0.5677490234375,15.502928733825684,0.4882812201976776,-0.3662109076976776
428843,-0.0108642578125,0.8236083984375,0.577392578125,15.319823265075684,0.3662109076976776,-0.4272460639476776
428859,-0.01220703125,0.825927734375,0.5758056640625,15.319823265075684,0.3662109076976776,-0.3662109076976776
428876,-0.0123291015625,0.82470703125,0.5789794921875,15.380858421325684,0.3662109076976776,-0.3662109076976776
428893,-0.012451171875,0.825439453125,0.575927734375,15.563963890075684,0.4272460639476776,-0.3662109076976776
428942,-0.0113525390625,0.8133544921875,0.59521484375,15.563963890075684,0.3662109076976776,-0.4272460639476776
428998,-0.0096435546875,0.8043212890625,0.6060791015625,15.624999046325684,0.4882812201976776,-0.3662109076976776
429023,-0.009765625,0.8035888671875,0.6099853515625,15.441893577575684,0.4272460639476776,-0.3662109076976776
429040,-0.009765625,0.802490234375,0.6099853515625,15.441893577575684,0.4882812201976776,-0.3662109076976776
429056,-0.009765625,0.8033447265625,0.609130859375,15.686034202575684,0.4882812201976776,-0.3662109076976776
429106,-0.0076904296875,0.789794921875,0.6251220703125,15.747069358825684,0.3662109076976776,-0.4272460639476776
429138,-0.0078125,0.78515625,0.63134765625,15.869139671325684,0.4882812201976776,-0.4272460639476776
429155,-0.0069580078125,0.7818603515625,0.6368408203125,15.869139671325684,0.4272460639476776,-0.4272460639476776
429188,-0.00732421875,0.7799072265625,0.6400146484375,15.869139671325684,0.4272460639476776,-0.4272460639476776
429221,-0.006591796875,0.771240234375,0.6500244140625,16.11328125,0.6103515625,-0.4272460639476776
429263,-0.005126953125,0.7667236328125,0.6573486328125,16.05224609375,0.4272460639476776,-0.4882812201976776
429280,-0.0057373046875,0.7623291015625,0.6622314453125,16.17431640625,0.3662109076976776,-0.3662109076976776
429296,-0.0062255859375,0.761962890625,0.6627197265625,16.2353515625,0.4272460639476776,-0.4272460639476776
429315,-0.0052490234375,0.7576904296875,0.6680908203125,16.17431640625,0.4882812201976776,-0.3662109076976776
429332,-0.004150390625,0.7548828125,0.671630859375,16.17431640625,0.4272460639476776,-0.4272460639476776
429348,-0.0045166015625,0.7513427734375,0.676025390625,16.17431640625,0.4272460639476776,-0.4272460639476776
429364,-0.00439453125,0.7503662109375,0.6766357421875,16.17431640625,0.4882812201976776,-0.4272460639476776
429381,-0.0047607421875,0.7491455078125,0.67822265625,16.29638671875,0.4882812201976776,-0.3662109076976776
429402,-0.00439453125,0.747802734375,0.6800537109375,16.41845703125,0.4882812201976776,-0.3662109076976776
429418,-0.0052490234375,0.7415771484375,0.6851806640625,16.66259765625,0.54931640625,-0.3662109076976776
429435,-0.00341796875,0.7374267578125,0.690185546875,16.845703125,0.4882812201976776,-0.4272460639476776
429452,-0.000732421875,0.7333984375,0.698974609375,16.845703125,0.4882812201976776,-0.4272460639476776
429485,-0.0040283203125,0.7296142578125,0.699462890625,16.9677734375,0.54931640625,-0.54931640625
429502,-0.0029296875,0.7249755859375,0.70458984375,17.02880859375,0.4882812201976776,-0.4882812201976776
429546,-0.002197265625,0.716064453125,0.71533203125,17.08984375,0.4272460639476776,-0.4882812201976776
429568,-0.002197265625,0.713623046875,0.71728515625,17.15087890625,0.54931640625,-0.4882812201976776
429584,-0.0015869140625,0.7098388671875,0.7213134765625,17.2119140625,0.54931640625,-0.54931640625
429601,-0.0008544921875,0.70556640625,0.7255859375,17.27294921875,0.54931640625,-0.54931640625
429618,-0.0001220703125,0.7021484375,0.7274169921875,17.333984375,0.54931640625,-0.4272460639476776
429634,-0.0003662109375,0.69921875,0.732177734375,17.333984375,0.4882812201976776,-0.4272460639476776
429666,-0.0001220703125,0.6932373046875,0.7379150390625,17.4560546875,0.4882812201976776,-0.54931640625
429682,0.0008544921875,0.689697265625,0.7393798828125,17.51708984375,0.4882812201976776,-0.4272460639476776
429698,0.0010986328125,0.6871337890625,0.7427978515625,17.578125,0.4882812201976776,-0.4272460639476776
429730,0.0025634765625,0.680419921875,0.750244140625,17.76123046875,0.4882812201976776,-0.4272460639476776
429746,0.00244140625,0.6778564453125,0.752197265625,17.822265625,0.4882812201976776,-0.4272460639476776
429762,0.0009765625,0.671875,0.7589111328125,17.88330078125,0.4882812201976776,-0.54931640625
429778,0.001220703125,0.670166015625,0.76025390625,17.88330078125,0.4882812201976776,-0.4882812201976776
429853,0.002685546875,0.6561279296875,0.7733154296875,18.310546875,0.6103515625,-0.4882812201976776
429870,0.0030517578125,0.6510009765625,0.77734375,18.37158203125,0.4882812201976776,-0.54931640625
429886,0.004150390625,0.6474609375,0.7806396484375,18.49365234375,0.4882812201976776,-0.4882812201976776
429903,0.0035400390625,0.642333984375,0.7845458984375,18.5546875,0.54931640625,-0.4882812201976776
429920,0.004150390625,0.63916015625,0.788330078125,18.5546875,0.6103515625,-0.4882812201976776
429936,0.0045166015625,0.63671875,0.7899169921875,18.73779296875,0.54931640625,-0.54931640625
429968,0.005615234375,0.6273193359375,0.7977294921875,18.85986328125,0.54931640625,-0.54931640625
429984,0.005615234375,0.6229248046875,0.802001953125,18.98193359375,0.54931640625,-0.54931640625
430000,0.0064697265625,0.619140625,0.802978515625,19.04296875,0.54931640625,-0.54931640625
430036,0.008056640625,0.611572265625,0.810546875,19.04296875,0.6103515625,-0.54931640625
430084,0.006591796875,0.597900390625,0.8204345703125,19.1650390625,0.54931640625,-0.54931640625
430106,0.00830078125,0.593994140625,0.82373046875,19.10400390625,0.6103515625,-0.54931640625
430122,0.007568359375,0.5894775390625,0.8277587890625,19.10400390625,0.54931640625,-0.54931640625
430189,0.0084228515625,0.57080078125,0.84033203125,18.6767578125,0.4882812201976776,-0.4882812201976776
430237,0.0098876953125,0.55810546875,0.8499755859375,18.06640625,0.54931640625,-0.4882812201976776
430281,0.009765625,0.5491943359375,0.856201171875,17.4560546875,0.4882812201976776,-0.4272460639476776
430298,0.0120849609375,0.5433349609375,0.8616943359375,17.15087890625,0.4882812201976776,-0.4882812201976776
430334,0.0108642578125,0.5357666015625,0.865234375,16.6015625,0.4882812201976776,-0.4272460639476776
430351,0.011474609375,0.5316162109375,0.8682861328125,16.41845703125,0.4272460639476776,-0.4272460639476776
430367,0.0118408203125,0.52783203125,0.8709716796875,16.2353515625,0.4272460639476776,-0.4272460639476776
430383,0.0128173828125,0.525390625,0.8731689453125,15.991209983825684,0.4272460639476776,-0.3662109076976776
430400,0.0118408203125,0.5230712890625,0.8736572265625,15.869139671325684,0.4272460639476776,-0.3662109076976776
430421,0.0120849609375,0.5194091796875,0.8751220703125,15.686034202575684,0.4272460639476776,-0.4272460639476776
430437,0.013916015625,0.517578125,0.8785400390625,15.563963890075684,0.4272460639476776,-0.4272460639476776
430454,0.013671875,0.5107421875,0.8814697265625,15.502928733825684,0.4272460639476776,-0.4882812201976776
430471,0.0128173828125,0.5069580078125,0.882568359375,15.380858421325684,0.4882812201976776,-0.4272460639476776
430504,0.014892578125,0.50244140625,0.88623046875,15.197752952575684,0.4272460639476776,-0.4272460639476776
430521,0.0145263671875,0.50048828125,0.887939453125,15.136717796325684,0.4272460639476776,-0.3662109076976776
430537,0.0137939453125,0.4962158203125,0.89111328125,15.136717796325684,0.4882812201976776,-0.30517578125
430570,0.015380859375,0.488037109375,0.89404296875,14.953612327575684,0.4882812201976776,-0.3662109076976776
430621,0.0152587890625,0.4757080078125,0.90185546875,14.709471702575684,0.3662109076976776,-0.30517578125
430654,0.017333984375,0.46484375,0.9072265625,14.404295921325684,0.4882812201976776,-0.2441406100988388
430698,0.0164794921875,0.4642333984375,0.90869140625,14.404295921325684,0.4272460639476776,-0.2441406100988388
430715,0.0166015625,0.4512939453125,0.9156494140625,14.343260765075684,0.4272460639476776,-0.2441406100988388
430746,0.02099609375,0.4456787109375,0.91650390625,13.671874046325684,0.3662109076976776,-0.30517578125
430762,0.0145263671875,0.4466552734375,0.9149169921875,13.549803733825684,0.30517578125,-0.3662109076976776
430779,0.0167236328125,0.440673828125,0.9188232421875,13.305663108825684,0.4272460639476776,-0.30517578125
430811,0.0203857421875,0.4384765625,0.9228515625,12.878417015075684,0.30517578125,-0.3662109076976776
430827,0.0166015625,0.4381103515625,0.9229736328125,12.573241233825684,0.30517578125,-0.3662109076976776
430843,0.0164794921875,0.4273681640625,0.9267578125,12.390135765075684,0.30517578125,-0.2441406100988388
430859,0.017822265625,0.4327392578125,0.92529296875,12.023924827575684,0.30517578125,-0.1831054538488388
430913,0.015625,0.4317626953125,0.9237060546875,12.268065452575684,0.3662109076976776,-0.1831054538488388
431000,0.018310546875,0.411376953125,0.9346923828125,11.840819358825684,0.2441406100988388,-0.2441406100988388
431017,0.01953125,0.4033203125,0.9375,11.840819358825684,0.2441406100988388,-0.1831054538488388
431054,0.02099609375,0.3929443359375,0.9432373046875,11.413573265075684,0.2441406100988388,-0.1220703050494194
431071,0.0211181640625,0.3929443359375,0.9429931640625,11.108397483825684,0.2441406100988388,-0.1831054538488388
431104,0.020751953125,0.3857421875,0.9442138671875,10.620116233825684,0.1831054538488388,-0.1220703050494194
431121,0.021484375,0.38232421875,0.94580078125,10.131834983825684,0.2441406100988388,-0.1220703050494194
431142,0.0230712890625,0.3785400390625,0.9478759765625,9.58251953125,0.1831054538488388,-0.1220703050494194
431158,0.020751953125,0.3837890625,0.94482421875,9.33837890625,0.1831054538488388,-0.1831054538488388
431239,0.02197265625,0.3609619140625,0.955810546875,9.27734375,0.1220703050494194,-0.1831054538488388
431302,0.0244140625,0.3619384765625,0.9561767578125,9.33837890625,0.2441406100988388,-0.0610351525247097
431319,0.02099609375,0.3612060546875,0.955322265625,9.27734375,0.2441406100988388,-0.1220703050494194
431336,0.02197265625,0.3594970703125,0.9566650390625,9.09423828125,0.1831054538488388,-0.0610351525247097
431386,0.023193359375,0.3504638671875,0.9591064453125,8.7890625,0.1220703050494194,-0.0610351525247097
431418,0.023681640625,0.3485107421875,0.960693359375,8.60595703125,0.1831054538488388,-0.0610351525247097
431435,0.0228271484375,0.3492431640625,0.9603271484375,8.48388671875,0.1220703050494194,0.0
431468,0.0230712890625,0.3419189453125,0.963134765625,8.36181640625,0.1220703050494194,-0.1220703050494194
431485,0.0235595703125,0.3392333984375,0.96484375,8.1787109375,0.1220703050494194,-0.1220703050494194
431502,0.0235595703125,0.3388671875,0.964599609375,7.995604991912842,0.1220703050494194,-0.0610351525247097
431518,0.0242919921875,0.3341064453125,0.96533203125,7.751464366912842,0.1220703050494194,-0.0610351525247097
431572,0.024658203125,0.3284912109375,0.9683837890625,7.080077648162842,0.1220703050494194,0.0610351525247097
431602,0.02490234375,0.3253173828125,0.9691162109375,6.591796398162842,0.0610351525247097,0.0610351525247097
431618,0.0255126953125,0.322021484375,0.9693603515625,6.408690929412842,0.0610351525247097,0.0610351525247097
431639,0.0250244140625,0.3221435546875,0.969482421875,5.981444835662842,0.0610351525247097,0.0
431656,0.0247802734375,0.3189697265625,0.9708251953125,5.554198741912842,0.0610351525247097,0.0610351525247097
431672,0.0252685546875,0.3177490234375,0.9715576171875,5.126952648162842,0.0,0.0610351525247097
431705,0.0252685546875,0.3121337890625,0.973876953125,4.2724609375,-0.0610351525247097,0.1220703050494194
431727,0.02490234375,0.312255859375,0.9730224609375,3.662109136581421,-0.1220703050494194,0.1220703050494194
431743,0.02490234375,0.312744140625,0.974365234375,3.173827886581421,-0.0610351525247097,0.0610351525247097
431760,0.024658203125,0.3145751953125,0.972412109375,2.929687261581421,-0.1220703050494194,0.0610351525247097
431826,0.026123046875,0.3104248046875,0.9725341796875,0.9155272841453552,-0.1831054538488388,0.1831054538488388
431859,0.025390625,0.312744140625,0.9736328125,-0.1831054538488388,-0.1831054538488388,0.30517578125
431960,0.0252685546875,0.3201904296875,0.9705810546875,-1.4648436307907104,-0.30517578125,0.30517578125
431977,0.024658203125,0.3206787109375,0.970947265625,-1.5869139432907104,-0.30517578125,0.4272460639476776
432014,0.0238037109375,0.323974609375,0.9697265625,-1.5869139432907104,-0.30517578125,0.3662109076976776
432030,0.0240478515625,0.324462890625,0.9700927734375,-1.5869139432907104,-0.30517578125,0.3662109076976776
432047,0.0238037109375,0.324462890625,0.968994140625,-1.5258787870407104,-0.2441406100988388,0.3662109076976776
432063,0.024169921875,0.3258056640625,0.968994140625,-1.4648436307907104,-0.30517578125,0.4272460639476776
432085,0.02490234375,0.3271484375,0.96875,-1.5258787870407104,-0.2441406100988388,0.3662109076976776
432101,0.02490234375,0.3275146484375,0.96923828125,-1.5258787870407104,-0.2441406100988388,0.30517578125
432118,0.02490234375,0.328125,0.9676513671875,-1.5869139432907104,-0.2441406100988388,0.30517578125
432135,0.0252685546875,0.327392578125,0.96826171875,-1.4648436307907104,-0.30517578125,0.3662109076976776
432151,0.0244140625,0.3284912109375,0.96875,-1.4038084745407104,-0.30517578125,0.3662109076976776
432185,0.0244140625,0.3302001953125,0.96630859375,-1.2817381620407104,-0.2441406100988388,0.3662109076976776
432201,0.02490234375,0.3311767578125,0.9669189453125,-1.220703125,-0.30517578125,0.30517578125
432217,0.02392578125,0.3314208984375,0.9671630859375,-1.220703125,-0.30517578125,0.30517578125
432247,0.023681640625,0.3326416015625,0.966552734375,-1.0986328125,-0.2441406100988388,0.3662109076976776
432269,0.024169921875,0.3328857421875,0.9659423828125,-1.03759765625,-0.2441406100988388,0.30517578125
432285,0.02392578125,0.332763671875,0.9656982421875,-0.9155272841453552,-0.30517578125,0.30517578125
432299,0.0233154296875,0.3330078125,0.965576171875,-0.9155272841453552,-0.2441406100988388,0.30517578125
432318,0.0233154296875,0.3341064453125,0.9652099609375,-0.8544921278953552,-0.2441406100988388,0.3662109076976776
432368,0.024169921875,0.3353271484375,0.965576171875,-0.6103515625,-0.2441406100988388,0.30517578125
432384,0.024169921875,0.3365478515625,0.9656982421875,-0.4882812201976776,-0.1831054538488388,0.30517578125
432400,0.0244140625,0.3367919921875,0.9656982421875,-0.3662109076976776,-0.2441406100988388,0.30517578125
432436,0.0242919921875,0.3372802734375,0.96435546875,-0.2441406100988388,-0.2441406100988388,0.30517578125
432452,0.0238037109375,0.337646484375,0.9649658203125,-0.2441406100988388,-0.2441406100988388,0.2441406100988388
432468,0.0247802734375,0.337646484375,0.9654541015625,-0.1831054538488388,-0.2441406100988388,0.2441406100988388
432484,0.024169921875,0.338134765625,0.96484375,0.0,-0.2441406100988388,0.2441406100988388
432548,0.0242919921875,0.3388671875,0.96533203125,0.1831054538488388,-0.2441406100988388,0.1831054538488388
432569,0.0235595703125,0.3380126953125,0.964111328125,0.30517578125,-0.2441406100988388,0.2441406100988388
432586,0.0244140625,0.337890625,0.9644775390625,0.30517578125,-0.1220703050494194,0.2441406100988388
432603,0.023193359375,0.3387451171875,0.96484375,0.4272460639476776,-0.0610351525247097,0.30517578125
432619,0.02294921875,0.3394775390625,0.964111328125,0.54931640625,-0.1220703050494194,0.2441406100988388
432636,0.0235595703125,0.3389892578125,0.9639892578125,0.6103515625,-0.1831054538488388,0.30517578125
432669,0.0233154296875,0.337646484375,0.9647216796875,0.6713866591453552,-0.1831054538488388,0.1831054538488388
432685,0.02392578125,0.3380126953125,0.9654541015625,0.7934569716453552,-0.1831054538488388,0.2441406100988388
432701,0.025390625,0.3389892578125,0.964111328125,0.8544921278953552,-0.1831054538488388,0.30517578125
432717,0.0242919921875,0.339111328125,0.96435546875,0.8544921278953552,-0.1831054538488388,0.30517578125
432742,0.0230712890625,0.339111328125,0.96435546875,0.9155272841453552,-0.2441406100988388,0.2441406100988388
432758,0.0247802734375,0.3397216796875,0.9635009765625,0.9765624403953552,-0.1831054538488388,0.2441406100988388
432775,0.02392578125,0.3382568359375,0.9644775390625,1.03759765625,-0.1831054538488388,0.1831054538488388
432793,0.0240478515625,0.337890625,0.963623046875,1.0986328125,-0.1831054538488388,0.1831054538488388
432809,0.023681640625,0.3385009765625,0.9637451171875,1.15966796875,-0.1220703050494194,0.30517578125
432846,0.024169921875,0.337890625,0.966064453125,1.2817381620407104,-0.1831054538488388,0.2441406100988388
432863,0.0228271484375,0.3382568359375,0.9652099609375,1.2817381620407104,-0.1831054538488388,0.1831054538488388
432879,0.0247802734375,0.338134765625,0.96630859375,1.2817381620407104,-0.1831054538488388,0.1831054538488388
432931,0.0233154296875,0.3370361328125,0.965087890625,1.4038084745407104,-0.1220703050494194,0.2441406100988388
432982,0.02294921875,0.3363037109375,0.96484375,1.4648436307907104,-0.1831054538488388,0.1831054538488388
432999,0.023681640625,0.3363037109375,0.96484375,1.4648436307907104,-0.1831054538488388,0.1831054538488388
433015,0.0242919921875,0.3353271484375,0.965087890625,1.4038084745407104,-0.1831054538488388,0.2441406100988388
433036,0.0233154296875,0.3359375,0.9659423828125,1.4648436307907104,-0.1831054538488388,0.2441406100988388
433052,0.0240478515625,0.336669921875,0.9654541015625,1.5258787870407104,-0.1831054538488388,0.2441406100988388
433068,0.0245361328125,0.335693359375,0.965087890625,1.5258787870407104,-0.1220703050494194,0.2441406100988388
433085,0.0242919921875,0.3353271484375,0.9659423828125,1.5258787870407104,-0.1831054538488388,0.1831054538488388
433101,0.02490234375,0.3350830078125,0.967041015625,1.4648436307907104,-0.1220703050494194,0.2441406100988388
433117,0.0247802734375,0.33544921875,0.967041015625,1.4648436307907104,-0.1220703050494194,0.2441406100988388
433148,0.0244140625,0.333740234375,0.9656982421875,1.4648436307907104,-0.1831054538488388,0.1831054538488388
433203,0.0244140625,0.333251953125,0.9671630859375,1.5258787870407104,-0.1831054538488388,0.1831054538488388
433220,0.023681640625,0.3330078125,0.967041015625,1.4648436307907104,-0.1831054538488388,0.1831054538488388
433236,0.0234375,0.3333740234375,0.966064453125,1.5258787870407104,-0.1220703050494194,0.1831054538488388
433266,0.0247802734375,0.3330078125,0.9676513671875,1.4038084745407104,-0.1220703050494194,0.1831054538488388
433282,0.025146484375,0.3319091796875,0.966796875,1.4038084745407104,-0.1831054538488388,0.2441406100988388
433298,0.024658203125,0.3321533203125,0.9664306640625,1.4038084745407104,-0.1831054538488388,0.2441406100988388
433331,0.0242919921875,0.332275390625,0.9671630859375,1.3427733182907104,-0.1831054538488388,0.2441406100988388
433352,0.0245361328125,0.3316650390625,0.966064453125,1.2817381620407104,-0.1220703050494194,0.2441406100988388
433368,0.0228271484375,0.3330078125,0.9666748046875,1.3427733182907104,-0.1220703050494194,0.2441406100988388
433384,0.0235595703125,0.33154296875,0.96630859375,1.4038084745407104,-0.1831054538488388,0.2441406100988388
433400,0.0240478515625,0.330810546875,0.9664306640625,1.2817381620407104,-0.1831054538488388,0.30517578125
433450,0.023681640625,0.331298828125,0.9674072265625,1.2817381620407104,-0.1831054538488388,0.2441406100988388
433466,0.023681640625,0.33056640625,0.9678955078125,1.220703125,-0.1831054538488388,0.2441406100988388
433482,0.0245361328125,0.3304443359375,0.96630859375,1.15966796875,-0.1831054538488388,0.2441406100988388
433498,0.0245361328125,0.3299560546875,0.9656982421875,1.15966796875,-0.1220703050494194,0.2441406100988388
433569,0.023681640625,0.330322265625,0.9676513671875,1.15966796875,-0.1831054538488388,0.2441406100988388
433586,0.025146484375,0.3289794921875,0.967529296875,1.0986328125,-0.2441406100988388,0.30517578125
433602,0.0247802734375,0.3302001953125,0.9671630859375,1.0986328125,-0.1831054538488388,0.2441406100988388
433619,0.0247802734375,0.33154296875,0.967041015625,1.03759765625,-0.1831054538488388,0.1831054538488388
433636,0.0240478515625,0.3319091796875,0.9683837890625,1.03759765625,-0.1831054538488388,0.30517578125
433652,0.0238037109375,0.330322265625,0.96826171875,0.9765624403953552,-0.1831054538488388,0.30517578125
433684,0.0244140625,0.3302001953125,0.967041015625,0.9155272841453552,-0.2441406100988388,0.2441406100988388
433706,0.024658203125,0.330810546875,0.9677734375,0.9765624403953552,-0.2441406100988388,0.2441406100988388
433722,0.0235595703125,0.330810546875,0.9677734375,0.9155272841453552,-0.1220703050494194,0.30517578125
433739,0.0238037109375,0.329345703125,0.96630859375,0.9155272841453552,-0.1831054538488388,0.30517578125
433756,0.0238037109375,0.329833984375,0.9674072265625,0.9155272841453552,-0.1831054538488388,0.30517578125
433772,0.02392578125,0.3299560546875,0.9674072265625,0.7934569716453552,-0.1220703050494194,0.1831054538488388
433805,0.024658203125,0.3309326171875,0.967041015625,0.7934569716453552,-0.1831054538488388,0.1831054538488388
433822,0.0247802734375,0.3309326171875,0.966552734375,0.7934569716453552,-0.1831054538488388,0.2441406100988388
433838,0.024658203125,0.330078125,0.9678955078125,0.7934569716453552,-0.2441406100988388,0.2441406100988388
433871,0.02490234375,0.330322265625,0.9658203125,0.7324218153953552,-0.1831054538488388,0.30517578125
433892,0.023193359375,0.32958984375,0.9686279296875,0.7324218153953552,-0.1831054538488388,0.30517578125
433908,0.024169921875,0.33056640625,0.9676513671875,0.7324218153953552,-0.1831054538488388,0.2441406100988388
433925,0.023681640625,0.3310546875,0.96728515625,0.7934569716453552,-0.1220703050494194,0.2441406100988388
433941,0.02392578125,0.33056640625,0.9676513671875,0.7934569716453552,-0.1831054538488388,0.2441406100988388
433958,0.0233154296875,0.330078125,0.9683837890625,0.7324218153953552,-0.1831054538488388,0.2441406100988388
433991,0.02490234375,0.330322265625,0.9674072265625,0.7934569716453552,-0.1831054538488388,0.30517578125
434007,0.025146484375,0.3310546875,0.967529296875,0.7324218153953552,-0.1831054538488388,0.2441406100988388
434039,0.0250244140625,0.3302001953125,0.9681396484375,0.6713866591453552,-0.1831054538488388,0.2441406100988388
434059,0.0245361328125,0.330322265625,0.968017578125,0.6713866591453552,-0.1220703050494194,0.30517578125
434081,0.0240478515625,0.330810546875,0.967529296875,0.6713866591453552,-0.1831054538488388,0.2441406100988388
434097,0.0238037109375,0.330322265625,0.9669189453125,0.7324218153953552,-0.1831054538488388,0.2441406100988388
434114,0.024658203125,0.3302001953125,0.966796875,0.6713866591453552,-0.1831054538488388,0.30517578125
434131,0.023681640625,0.330322265625,0.9671630859375,0.7324218153953552,-0.1831054538488388,0.30517578125
434164,0.0245361328125,0.330322265625,0.966796875,0.7324218153953552,-0.1220703050494194,0.2441406100988388
434181,0.0247802734375,0.33056640625,0.9678955078125,0.7324218153953552,-0.1220703050494194,0.2441406100988388
434197,0.023681640625,0.3316650390625,0.967041015625,0.7324218153953552,-0.1831054538488388,0.2441406100988388
434229,0.0238037109375,0.3306884765625,0.967529296875,0.7324218153953552,-0.2441406100988388,0.30517578125
434245,0.0247802734375,0.3309326171875,0.9678955078125,0.7324218153953552,-0.1831054538488388,0.30517578125
434277,0.0245361328125,0.3310546875,0.9676513671875,0.7934569716453552,-0.1220703050494194,0.30517578125
434297,0.0244140625,0.3306884765625,0.9674072265625,0.7934569716453552,-0.1220703050494194,0.2441406100988388
434319,0.024169921875,0.3310546875,0.96826171875,0.7934569716453552,-0.1831054538488388,0.2441406100988388
434335,0.02490234375,0.3311767578125,0.96728515625,0.7324218153953552,-0.1220703050494194,0.3662109076976776
434352,0.0245361328125,0.331298828125,0.966796875,0.7934569716453552,-0.1220703050494194,0.30517578125
434369,0.0235595703125,0.330322265625,0.9669189453125,0.7934569716453552,-0.1220703050494194,0.2441406100988388
434402,0.0238037109375,0.331298828125,0.9681396484375,0.7934569716453552,-0.1831054538488388,0.2441406100988388
434451,0.0240478515625,0.3309326171875,0.9659423828125,0.8544921278953552,-0.1220703050494194,0.2441406100988388
434602,0.024658203125,0.33154296875,0.9676513671875,0.9155272841453552,-0.1220703050494194,0.30517578125
434622,0.0238037109375,0.33056640625,0.9677734375,0.8544921278953552,-0.1831054538488388,0.2441406100988388
434643,0.023681640625,0.3302001953125,0.9683837890625,0.9155272841453552,-0.1220703050494194,0.1831054538488388
434659,0.0240478515625,0.330078125,0.9664306640625,0.9155272841453552,-0.1220703050494194,0.2441406100988388
434676,0.0244140625,0.3304443359375,0.96630859375,0.9155272841453552,-0.1831054538488388,0.30517578125
434707,0.024169921875,0.3316650390625,0.96826171875,0.9155272841453552,-0.1220703050494194,0.30517578125
434728,0.023681640625,0.3310546875,0.9681396484375,0.9765624403953552,-0.1220703050494194,0.30517578125
434744,0.024169921875,0.3302001953125,0.968017578125,0.9765624403953552,-0.1220703050494194,0.2441406100988388
434761,0.0242919921875,0.3302001953125,0.967529296875,0.9155272841453552,-0.1831054538488388,0.1831054538488388
434827,0.025146484375,0.3292236328125,0.9669189453125,0.9155272841453552,-0.1831054538488388,0.2441406100988388
434844,0.0252685546875,0.329345703125,0.9671630859375,0.9155272841453552,-0.1831054538488388,0.2441406100988388
434860,0.0242919921875,0.330078125,0.9671630859375,0.9765624403953552,-0.1831054538488388,0.30517578125
434896,0.0242919921875,0.330322265625,0.96728515625,0.9155272841453552,-0.1831054538488388,0.2441406100988388
434912,0.0245361328125,0.3302001953125,0.967041015625,0.9155272841453552,-0.1831054538488388,0.30517578125
434928,0.02392578125,0.3294677734375,0.967041015625,0.9765624403953552,-0.1831054538488388,0.30517578125
434944,0.023193359375,0.3287353515625,0.9671630859375,0.9155272841453552,-0.1831054538488388,0.30517578125
434992,0.0252685546875,0.329345703125,0.9683837890625,0.9155272841453552,-0.1220703050494194,0.2441406100988388
435024,0.0233154296875,0.3304443359375,0.968505859375,0.9155272841453552,-0.1220703050494194,0.30517578125
435041,0.024169921875,0.330078125,0.9674072265625,0.9155272841453552,-0.1220703050494194,0.30517578125
435058,0.02392578125,0.330078125,0.9677734375,0.9155272841453552,-0.1220703050494194,0.30517578125
435074,0.023681640625,0.3302001953125,0.9676513671875,0.9155272841453552,-0.1831054538488388,0.2441406100988388
435091,0.0247802734375,0.32958984375,0.968505859375,0.9155272841453552,-0.1831054538488388,0.30517578125
435124,0.024169921875,0.328857421875,0.9677734375,0.9155272841453552,-0.1831054538488388,0.30517578125
435141,0.023681640625,0.3294677734375,0.968017578125,0.9155272841453552,-0.1831054538488388,0.30517578125
435162,0.023681640625,0.3289794921875,0.968017578125,0.9155272841453552,-0.1831054538488388,0.30517578125
435178,0.0245361328125,0.3297119140625,0.968017578125,0.8544921278953552,-0.1831054538488388,0.30517578125
435195,0.0244140625,0.330322265625,0.9681396484375,0.7934569716453552,-0.1831054538488388,0.1831054538488388
435212,0.0245361328125,0.3291015625,0.96875,0.8544921278953552,-0.1220703050494194,0.2441406100988388
435245,0.0242919921875,0.329833984375,0.9676513671875,0.8544921278953552,-0.1831054538488388,0.2441406100988388
435262,0.0250244140625,0.3297119140625,0.96826171875,0.8544921278953552,-0.1220703050494194,0.2441406100988388
435278,0.0247802734375,0.3291015625,0.9674072265625,0.8544921278953552,-0.1220703050494194,0.1831054538488388
435310,0.025146484375,0.3291015625,0.967041015625,0.7934569716453552,-0.2441406100988388,0.2441406100988388
435326,0.0252685546875,0.32861328125,0.9671630859375,0.8544921278953552,-0.2441406100988388,0.30517578125
435342,0.0235595703125,0.3284912109375,0.9677734375,0.8544921278953552,-0.1831054538488388,0.3662109076976776
435358,0.0250244140625,0.328857421875,0.9674072265625,0.7934569716453552,-0.1831054538488388,0.30517578125
435378,0.02490234375,0.328857421875,0.9681396484375,0.9155272841453552,-0.1831054538488388,0.1831054538488388
435399,0.023681640625,0.3287353515625,0.9677734375,0.8544921278953552,-0.1831054538488388,0.2441406100988388
435415,0.02392578125,0.3291015625,0.966552734375,0.8544921278953552,-0.1831054538488388,0.30517578125
435465,0.02392578125,0.3291015625,0.9686279296875,0.8544921278953552,-0.1831054538488388,0.1831054538488388
435499,0.024169921875,0.329345703125,0.9669189453125,0.7934569716453552,-0.1831054538488388,0.2441406100988388
435516,0.0234375,0.32958984375,0.9669189453125,0.7934569716453552,-0.1831054538488388,0.30517578125
435549,0.0238037109375,0.3299560546875,0.96923828125,0.7934569716453552,-0.1831054538488388,0.2441406100988388
435566,0.0240478515625,0.329833984375,0.968994140625,0.8544921278953552,-0.1831054538488388,0.2441406100988388
435582,0.0242919921875,0.3291015625,0.9677734375,0.8544921278953552,-0.1831054538488388,0.1831054538488388
435598,0.0240478515625,0.3294677734375,0.9677734375,0.8544921278953552,-0.1831054538488388,0.2441406100988388
435618,0.0245361328125,0.3294677734375,0.96728515625,0.8544921278953552,-0.1831054538488388,0.30517578125
435634,0.024658203125,0.3287353515625,0.96728515625,0.8544921278953552,-0.1831054538488388,0.30517578125
435650,0.02490234375,0.32861328125,0.9676513671875,0.7934569716453552,-0.2441406100988388,0.2441406100988388
435666,0.0244140625,0.3292236328125,0.9681396484375,0.7934569716453552,-0.2441406100988388,0.2441406100988388
