tMillis,ax,ay,az,gx,gy,gz
911042,0.0157470703125,0.9669189453125,-0.19384765625,0.6713866591453552,-0.2441406100988388,0.30517578125
911058,0.016357421875,0.96533203125,-0.19287109375,0.7324218153953552,-0.2441406100988388,0.2441406100988388
911074,0.0172119140625,0.9658203125,-0.1920166015625,0.6713866591453552,-0.1831054538488388,0.30517578125
911091,0.0169677734375,0.9659423828125,-0.192626953125,0.6713866591453552,-0.2441406100988388,0.30517578125
911112,0.01611328125,0.9659423828125,-0.194091796875,0.6713866591453552,-0.2441406100988388,0.2441406100988388
911128,0.017578125,0.9674072265625,-0.193603515625,0.6713866591453552,-0.2441406100988388,0.2441406100988388
911195,0.0172119140625,0.96484375,-0.194091796875,0.6103515625,-0.1220703050494194,0.2441406100988388
911212,0.01708984375,0.96435546875,-0.1937255859375,0.6713866591453552,-0.1831054538488388,0.2441406100988388
911228,0.0174560546875,0.967529296875,-0.1939697265625,0.6103515625,-0.1831054538488388,0.2441406100988388
911257,0.0189208984375,0.96630859375,-0.193115234375,0.6103515625,-0.1831054538488388,0.2441406100988388
911279,0.0186767578125,0.964111328125,-0.1934814453125,0.6103515625,-0.1831054538488388,0.2441406100988388
911295,0.0166015625,0.9642333984375,-0.1932373046875,0.6713866591453552,-0.1831054538488388,0.2441406100988388
911312,0.0162353515625,0.966552734375,-0.19384765625,0.6713866591453552,-0.1220703050494194,0.2441406100988388
911329,0.0169677734375,0.9661865234375,-0.1932373046875,0.6713866591453552,-0.1831054538488388,0.1831054538488388
911345,0.016845703125,0.965576171875,-0.1925048828125,0.54931640625,-0.2441406100988388,0.1831054538488388
911379,0.0177001953125,0.9658203125,-0.19384765625,0.6713866591453552,-0.1831054538488388,0.2441406100988388
911447,0.017822265625,0.9666748046875,-0.194580078125,0.6103515625,-0.30517578125,0.2441406100988388
911469,0.017822265625,0.9664306640625,-0.194580078125,0.6103515625,-0.1831054538488388,0.2441406100988388
911485,0.0167236328125,0.967041015625,-0.1937255859375,0.6103515625,-0.1831054538488388,0.2441406100988388
911502,0.017578125,0.9654541015625,-0.1934814453125,0.6103515625,-0.2441406100988388,0.2441406100988388
911552,0.0155029296875,0.966552734375,-0.19384765625,0.6713866591453552,-0.1831054538488388,0.2441406100988388
911575,0.016845703125,0.9669189453125,-0.1942138671875,0.6103515625,-0.1831054538488388,0.2441406100988388
911592,0.016845703125,0.964599609375,-0.193359375,0.6713866591453552,-0.1831054538488388,0.2441406100988388
911609,0.017333984375,0.9671630859375,-0.19384765625,0.6713866591453552,-0.2441406100988388,0.2441406100988388
911659,0.01708984375,0.9666748046875,-0.1937255859375,0.6103515625,-0.1831054538488388,0.1831054538488388
911691,0.0174560546875,0.9659423828125,-0.19287109375,0.6103515625,-0.1831054538488388,0.2441406100988388
911708,0.017578125,0.966064453125,-0.193115234375,0.6713866591453552,-0.1831054538488388,0.2441406100988388
911745,0.01708984375,0.96630859375,-0.195068359375,0.6713866591453552,-0.1831054538488388,0.1831054538488388
911762,0.0174560546875,0.9656982421875,-0.193115234375,0.6713866591453552,-0.1831054538488388,0.1831054538488388
911778,0.017578125,0.9656982421875,-0.1929931640625,0.6713866591453552,-0.2441406100988388,0.2441406100988388
911795,0.0169677734375,0.9658203125,-0.1937255859375,0.6713866591453552,-0.30517578125,0.30517578125
911813,0.0169677734375,0.9658203125,-0.1937255859375,0.6713866591453552,-0.1831054538488388,0.2441406100988388
911834,0.0164794921875,0.966064453125,-0.19384765625,0.6713866591453552,-0.1831054538488388,0.30517578125
911850,0.0166015625,0.9681396484375,-0.1925048828125,0.6713866591453552,-0.1831054538488388,0.2441406100988388
911867,0.0152587890625,0.9696044921875,-0.192626953125,0.6713866591453552,-0.2441406100988388,0.1831054538488388
911884,0.0159912109375,0.96728515625,-0.194091796875,0.6713866591453552,-0.1831054538488388,0.2441406100988388
911917,0.0166015625,0.96484375,-0.1942138671875,0.6103515625,-0.1831054538488388,0.2441406100988388
911938,0.0159912109375,0.9649658203125,-0.19287109375,0.6103515625,-0.2441406100988388,0.2441406100988388
911958,0.0159912109375,0.964599609375,-0.19384765625,0.6713866591453552,-0.2441406100988388,0.2441406100988388
911974,0.0167236328125,0.966796875,-0.1947021484375,0.6713866591453552,-0.1831054538488388,0.2441406100988388
911991,0.017333984375,0.9658203125,-0.19287109375,0.6713866591453552,-0.1831054538488388,0.2441406100988388
912012,0.0174560546875,0.966796875,-0.1927490234375,0.6713866591453552,-0.1831054538488388,0.2441406100988388
912028,0.01611328125,0.9683837890625,-0.194580078125,0.6713866591453552,-0.1831054538488388,0.2441406100988388
912045,0.0162353515625,0.9654541015625,-0.1929931640625,0.6103515625,-0.2441406100988388,0.2441406100988388
912062,0.0167236328125,0.966552734375,-0.1943359375,0.6103515625,-0.1831054538488388,0.2441406100988388
912095,0.0157470703125,0.966064453125,-0.19384765625,0.6713866591453552,-0.1831054538488388,0.30517578125
912112,0.0159912109375,0.9652099609375,-0.1947021484375,0.6103515625,-0.1831054538488388,0.2441406100988388
912128,0.0162353515625,0.96484375,-0.194580078125,0.6103515625,-0.2441406100988388,0.2441406100988388
912158,0.0166015625,0.9659423828125,-0.1937255859375,0.6103515625,-0.1831054538488388,0.2441406100988388
912179,0.0159912109375,0.966064453125,-0.194091796875,0.6103515625,-0.1831054538488388,0.2441406100988388
912195,0.0169677734375,0.966064453125,-0.194091796875,0.6103515625,-0.1831054538488388,0.2441406100988388
912212,0.0159912109375,0.9649658203125,-0.1949462890625,0.6103515625,-0.1831054538488388,0.1831054538488388
912229,0.0157470703125,0.965576171875,-0.1944580078125,0.6713866591453552,-0.1831054538488388,0.1831054538488388
912279,0.016845703125,0.9669189453125,-0.193359375,0.6713866591453552,-0.1831054538488388,0.30517578125
912295,0.0159912109375,0.9676513671875,-0.1934814453125,0.6713866591453552,-0.2441406100988388,0.2441406100988388
912311,0.0162353515625,0.9656982421875,-0.1929931640625,0.6103515625,-0.2441406100988388,0.2441406100988388
912347,0.017578125,0.9658203125,-0.1929931640625,0.6103515625,-0.1831054538488388,0.2441406100988388
912363,0.0174560546875,0.9658203125,-0.19384765625,0.6713866591453552,-0.1831054538488388,0.30517578125
912379,0.017822265625,0.96533203125,-0.1939697265625,0.6713866591453552,-0.1831054538488388,0.2441406100988388
912395,0.0177001953125,0.9664306640625,-0.1937255859375,0.6713866591453552,-0.2441406100988388,0.1831054538488388
912417,0.0169677734375,0.9661865234375,-0.19384765625,0.6713866591453552,-0.2441406100988388,0.2441406100988388
912433,0.0169677734375,0.9659423828125,-0.1939697265625,0.6713866591453552,-0.1831054538488388,0.2441406100988388
912450,0.01708984375,0.9661865234375,-0.193603515625,0.6103515625,-0.1220703050494194,0.30517578125
912467,0.016845703125,0.967529296875,-0.193359375,0.6103515625,-0.1220703050494194,0.2441406100988388
912483,0.0169677734375,0.9656982421875,-0.1932373046875,0.6103515625,-0.1831054538488388,0.2441406100988388
912517,0.016357421875,0.9666748046875,-0.193603515625,0.6713866591453552,-0.2441406100988388,0.30517578125
912533,0.0167236328125,0.9666748046875,-0.1943359375,0.6713866591453552,-0.1220703050494194,0.30517578125
912549,0.016357421875,0.9658203125,-0.1943359375,0.6713866591453552,-0.1220703050494194,0.2441406100988388
912581,0.0174560546875,0.966552734375,-0.19384765625,0.6713866591453552,-0.1831054538488388,0.2441406100988388
912597,0.0169677734375,0.9661865234375,-0.193359375,0.7324218153953552,-0.1220703050494194,0.2441406100988388
912613,0.0166015625,0.9659423828125,-0.1925048828125,0.6713866591453552,-0.1831054538488388,0.30517578125
912629,0.0166015625,0.966796875,-0.193359375,0.6103515625,-0.1831054538488388,0.30517578125
912649,0.0169677734375,0.966796875,-0.1939697265625,0.6713866591453552,-0.1831054538488388,0.2441406100988388
912671,0.0159912109375,0.9658203125,-0.1932373046875,0.6713866591453552,-0.1831054538488388,0.2441406100988388
912687,0.0169677734375,0.9659423828125,-0.193115234375,0.6713866591453552,-0.2441406100988388,0.2441406100988388
912704,0.0162353515625,0.966064453125,-0.1947021484375,0.6713866591453552,-0.2441406100988388,0.2441406100988388
912721,0.0162353515625,0.966064453125,-0.1951904296875,0.6103515625,-0.2441406100988388,0.2441406100988388
912754,0.0164794921875,0.9658203125,-0.1934814453125,0.7324218153953552,-0.1831054538488388,0.1831054538488388
912771,0.017578125,0.9659423828125,-0.193603515625,0.6713866591453552,-0.1831054538488388,0.1831054538488388
912787,0.017822265625,0.965576171875,-0.193603515625,0.6103515625,-0.2441406100988388,0.2441406100988388
912818,0.0162353515625,0.9661865234375,-0.1944580078125,0.6103515625,-0.1831054538488388,0.1831054538488388
912839,0.016357421875,0.9659423828125,-0.19384765625,0.6713866591453552,-0.2441406100988388,0.2441406100988388
912855,0.0164794921875,0.9658203125,-0.193115234375,0.6713866591453552,-0.2441406100988388,0.2441406100988388
912872,0.0172119140625,0.966552734375,-0.193359375,0.6103515625,-0.1831054538488388,0.2441406100988388
912889,0.016357421875,0.9661865234375,-0.1939697265625,0.54931640625,-0.1831054538488388,0.30517578125
912905,0.0167236328125,0.9654541015625,-0.1934814453125,0.6103515625,-0.1831054538488388,0.30517578125
912937,0.0157470703125,0.9652099609375,-0.1942138671875,0.6103515625,-0.1831054538488388,0.2441406100988388
912959,0.015625,0.9674072265625,-0.1934814453125,0.6713866591453552,-0.2441406100988388,0.1831054538488388
912975,0.0174560546875,0.966552734375,-0.193603515625,0.6713866591453552,-0.2441406100988388,0.1831054538488388
912996,0.017333984375,0.96533203125,-0.1925048828125,0.6103515625,-0.1220703050494194,0.2441406100988388
913016,0.016845703125,0.9656982421875,-0.1925048828125,0.6103515625,-0.1220703050494194,0.2441406100988388
913037,0.0174560546875,0.966064453125,-0.1949462890625,0.6713866591453552,-0.1220703050494194,0.1831054538488388
913053,0.0174560546875,0.96630859375,-0.19384765625,0.6713866591453552,-0.2441406100988388,0.2441406100988388
913070,0.0174560546875,0.9664306640625,-0.1942138671875,0.6713866591453552,-0.1831054538488388,0.2441406100988388
913087,0.017822265625,0.9659423828125,-0.1944580078125,0.6713866591453552,-0.1220703050494194,0.2441406100988388
913116,0.0169677734375,0.966064453125,-0.193359375,0.6103515625,-0.1831054538488388,0.2441406100988388
913138,0.0166015625,0.9654541015625,-0.193359375,0.6713866591453552,-0.1831054538488388,0.2441406100988388
913171,0.0179443359375,0.966796875,-0.1934814453125,0.6713866591453552,-0.1831054538488388,0.2441406100988388
913188,0.0169677734375,0.966552734375,-0.1934814453125,0.6713866591453552,-0.2441406100988388,0.2441406100988388
913205,0.0169677734375,0.9664306640625,-0.19384765625,0.6713866591453552,-0.2441406100988388,0.2441406100988388
913238,0.016845703125,0.9656982421875,-0.19384765625,0.6713866591453552,-0.1831054538488388,0.2441406100988388
913254,0.0162353515625,0.96484375,-0.193603515625,0.6713866591453552,-0.1831054538488388,0.2441406100988388
913270,0.0169677734375,0.9656982421875,-0.1932373046875,0.6713866591453552,-0.2441406100988388,0.1831054538488388
913303,0.01708984375,0.96630859375,-0.1943359375,0.6103515625,-0.1831054538488388,0.2441406100988388
913324,0.0169677734375,0.9658203125,-0.192626953125,0.6713866591453552,-0.1831054538488388,0.2441406100988388
913340,0.0172119140625,0.9664306640625,-0.1944580078125,0.6713866591453552,-0.1831054538488388,0.30517578125
913354,0.0167236328125,0.9664306640625,-0.194580078125,0.6713866591453552,-0.2441406100988388,0.30517578125
913371,0.016357421875,0.9661865234375,-0.1944580078125,0.6713866591453552,-0.2441406100988388,0.30517578125
913387,0.0157470703125,0.9666748046875,-0.194091796875,0.6713866591453552,-0.2441406100988388,0.3662109076976776
913421,0.01708984375,0.9649658203125,-0.194091796875,0.6103515625,-0.1831054538488388,0.2441406100988388
913437,0.0157470703125,0.9644775390625,-0.193359375,0.6103515625,-0.1220703050494194,0.30517578125
913453,0.0162353515625,0.9676513671875,-0.194580078125,0.6103515625,-0.1831054538488388,0.2441406100988388
913469,0.016357421875,0.967041015625,-0.1949462890625,0.6103515625,-0.1831054538488388,0.2441406100988388
913489,0.01708984375,0.965087890625,-0.194580078125,0.6103515625,-0.1831054538488388,0.30517578125
913505,0.0177001953125,0.9632568359375,-0.19287109375,0.6713866591453552,-0.1831054538488388,0.2441406100988388
913521,0.017333984375,0.965087890625,-0.193115234375,0.6713866591453552,-0.1831054538488388,0.2441406100988388
913537,0.0167236328125,0.9700927734375,-0.195068359375,0.6713866591453552,-0.2441406100988388,0.30517578125
913559,0.016845703125,0.967041015625,-0.1937255859375,0.7324218153953552,-0.2441406100988388,0.30517578125
913575,0.0164794921875,0.965087890625,-0.193115234375,0.6713866591453552,-0.1831054538488388,0.2441406100988388
913589,0.0164794921875,0.966796875,-0.1937255859375,0.6103515625,-0.2441406100988388,0.2441406100988388
913608,0.0169677734375,0.9676513671875,-0.193603515625,0.6713866591453552,-0.2441406100988388,0.2441406100988388
913624,0.01611328125,0.9639892578125,-0.1923828125,0.6103515625,-0.2441406100988388,0.30517578125
913657,0.0172119140625,0.9652099609375,-0.1929931640625,0.6713866591453552,-0.2441406100988388,0.2441406100988388
913679,0.016845703125,0.9676513671875,-0.1939697265625,0.6713866591453552,-0.1831054538488388,0.2441406100988388
913695,0.01611328125,0.966552734375,-0.1937255859375,0.6103515625,-0.1220703050494194,0.2441406100988388
913709,0.0164794921875,0.966552734375,-0.193115234375,0.6103515625,-0.1831054538488388,0.2441406100988388
913728,0.0164794921875,0.966552734375,-0.1934814453125,0.6103515625,-0.1831054538488388,0.2441406100988388
913745,0.0164794921875,0.9671630859375,-0.193359375,0.6103515625,-0.2441406100988388,0.2441406100988388
913777,0.015869140625,0.96533203125,-0.193359375,0.6713866591453552,-0.1831054538488388,0.1831054538488388
913799,0.016357421875,0.9656982421875,-0.1943359375,0.6103515625,-0.1831054538488388,0.1831054538488388
913815,0.0162353515625,0.966552734375,-0.1944580078125,0.6103515625,-0.1831054538488388,0.2441406100988388
913832,0.015625,0.9671630859375,-0.193359375,0.7324218153953552,-0.1220703050494194,0.2441406100988388
913849,0.01611328125,0.96875,-0.1939697265625,0.7324218153953552,-0.1831054538488388,0.30517578125
913865,0.01708984375,0.965087890625,-0.194091796875,0.6103515625,-0.30517578125,0.2441406100988388
913897,0.015380859375,0.9674072265625,-0.1951904296875,0.6713866591453552,-0.1220703050494194,0.1831054538488388
913919,0.0162353515625,0.9674072265625,-0.195556640625,0.6713866591453552,-0.1220703050494194,0.1831054538488388
913935,0.016845703125,0.9656982421875,-0.1932373046875,0.6713866591453552,-0.2441406100988388,0.1831054538488388
913954,0.0157470703125,0.9671630859375,-0.1929931640625,0.6713866591453552,-0.2441406100988388,0.2441406100988388
913971,0.017822265625,0.96533203125,-0.1929931640625,0.6713866591453552,-0.2441406100988388,0.1831054538488388
913988,0.01708984375,0.9658203125,-0.1944580078125,0.6713866591453552,-0.2441406100988388,0.2441406100988388
914008,0.01708984375,0.96484375,-0.194091796875,0.6713866591453552,-0.1831054538488388,0.1831054538488388
914028,0.0172119140625,0.965576171875,-0.194580078125,0.6713866591453552,-0.1831054538488388,0.2441406100988388
914044,0.0169677734375,0.9652099609375,-0.1944580078125,0.7324218153953552,-0.1831054538488388,0.2441406100988388
914060,0.0172119140625,0.9666748046875,-0.194091796875,0.7324218153953552,-0.1831054538488388,0.1831054538488388
914072,0.0169677734375,0.9698486328125,-0.1944580078125,0.7934569716453552,-0.2441406100988388,0.1831054538488388
914094,0.017333984375,0.9677734375,-0.1944580078125,0.7324218153953552,-0.2441406100988388,0.1831054538488388
914110,0.0167236328125,0.9658203125,-0.194091796875,0.6713866591453552,-0.1831054538488388,0.2441406100988388
914127,0.01708984375,0.9669189453125,-0.19287109375,0.6103515625,-0.1831054538488388,0.2441406100988388
914148,0.0167236328125,0.966552734375,-0.1929931640625,0.7324218153953552,-0.2441406100988388,0.2441406100988388
914164,0.01708984375,0.9661865234375,-0.193115234375,0.6713866591453552,-0.1831054538488388,0.2441406100988388
914181,0.0177001953125,0.96533203125,-0.193603515625,0.6713866591453552,-0.2441406100988388,0.30517578125
914198,0.017333984375,0.9658203125,-0.193115234375,0.6713866591453552,-0.1831054538488388,0.1831054538488388
914214,0.017578125,0.9659423828125,-0.1934814453125,0.6713866591453552,-0.1831054538488388,0.1831054538488388
914230,0.01611328125,0.96533203125,-0.1929931640625,0.6103515625,-0.1220703050494194,0.2441406100988388
914264,0.016845703125,0.966064453125,-0.193115234375,0.6713866591453552,-0.2441406100988388,0.2441406100988388
914286,0.016845703125,0.96630859375,-0.1937255859375,0.6103515625,-0.1831054538488388,0.1831054538488388
914302,0.0164794921875,0.965576171875,-0.1937255859375,0.6713866591453552,-0.1831054538488388,0.1831054538488388
914319,0.01611328125,0.9638671875,-0.1934814453125,0.6713866591453552,-0.2441406100988388,0.2441406100988388
914369,0.017578125,0.9664306640625,-0.1927490234375,0.6713866591453552,-0.1831054538488388,0.2441406100988388
914389,0.0172119140625,0.9658203125,-0.1922607421875,0.6713866591453552,-0.1831054538488388,0.2441406100988388
914406,0.0166015625,0.9652099609375,-0.1917724609375,0.6713866591453552,-0.1831054538488388,0.1831054538488388
914422,0.0167236328125,0.9658203125,-0.1934814453125,0.6713866591453552,-0.1831054538488388,0.1831054538488388
914434,0.0179443359375,0.9666748046875,-0.1943359375,0.6713866591453552,-0.2441406100988388,0.2441406100988388
914488,0.0167236328125,0.964599609375,-0.1939697265625,0.6103515625,-0.2441406100988388,0.2441406100988388
914511,0.0174560546875,0.9664306640625,-0.1944580078125,0.6713866591453552,-0.2441406100988388,0.2441406100988388
914528,0.017578125,0.9659423828125,-0.1942138671875,0.7324218153953552,-0.2441406100988388,0.30517578125
914562,0.0166015625,0.967529296875,-0.194580078125,0.6103515625,-0.1831054538488388,0.1831054538488388
914578,0.017578125,0.9656982421875,-0.1939697265625,0.6103515625,-0.1831054538488388,0.2441406100988388
914594,0.0177001953125,0.9652099609375,-0.193359375,0.6103515625,-0.2441406100988388,0.2441406100988388
914611,0.015869140625,0.9664306640625,-0.1937255859375,0.6713866591453552,-0.2441406100988388,0.2441406100988388
914628,0.0164794921875,0.966064453125,-0.1937255859375,0.6103515625,-0.2441406100988388,0.2441406100988388
914649,0.0167236328125,0.967041015625,-0.194091796875,0.4882812201976776,-0.1831054538488388,0.1831054538488388
914665,0.0177001953125,0.967529296875,-0.1947021484375,0.6103515625,-0.1831054538488388,0.2441406100988388
914686,0.017578125,0.968017578125,-0.193359375,0.6103515625,-0.1831054538488388,0.2441406100988388
914703,0.0167236328125,0.9656982421875,-0.19287109375,0.6713866591453552,-0.1831054538488388,0.30517578125
914719,0.01708984375,0.9664306640625,-0.194580078125,0.6103515625,-0.1831054538488388,0.2441406100988388
914736,0.017822265625,0.967041015625,-0.1947021484375,0.6713866591453552,-0.1831054538488388,0.2441406100988388
914753,0.0174560546875,0.966796875,-0.1942138671875,0.6103515625,-0.1831054538488388,0.2441406100988388
914769,0.0166015625,0.96630859375,-0.193359375,0.6713866591453552,-0.1831054538488388,0.30517578125
914801,0.016357421875,0.9664306640625,-0.1934814453125,0.6713866591453552,-0.1831054538488388,0.2441406100988388
914817,0.015869140625,0.9661865234375,-0.19384765625,0.6713866591453552,-0.1831054538488388,0.2441406100988388
914833,0.0167236328125,0.9658203125,-0.1932373046875,0.6103515625,-0.1831054538488388,0.2441406100988388
914849,0.0164794921875,0.96484375,-0.193115234375,0.6713866591453552,-0.30517578125,0.30517578125
914869,0.01611328125,0.9666748046875,-0.19482421875,0.7324218153953552,-0.2441406100988388,0.30517578125
914891,0.016357421875,0.9664306640625,-0.1943359375,0.7324218153953552,-0.2441406100988388,0.30517578125
914907,0.0164794921875,0.966796875,-0.1927490234375,0.6103515625,-0.1831054538488388,0.2441406100988388
914924,0.0164794921875,0.9664306640625,-0.193359375,0.6103515625,-0.1831054538488388,0.1831054538488388
914974,0.016357421875,0.9642333984375,-0.194091796875,0.6103515625,-0.1831054538488388,0.30517578125
914991,0.0152587890625,0.964111328125,-0.1937255859375,0.6713866591453552,-0.1831054538488388,0.2441406100988388
915007,0.015869140625,0.9661865234375,-0.193603515625,0.6713866591453552,-0.1831054538488388,0.2441406100988388
915038,0.0172119140625,0.9686279296875,-0.193603515625,0.6713866591453552,-0.2441406100988388,0.1220703050494194
915059,0.016845703125,0.96923828125,-0.1937255859375,0.6103515625,-0.2441406100988388,0.2441406100988388
915075,0.0166015625,0.9659423828125,-0.194580078125,0.54931640625,-0.1831054538488388,0.2441406100988388
915092,0.017333984375,0.9639892578125,-0.194091796875,0.6103515625,-0.1831054538488388,0.2441406100988388
915109,0.01708984375,0.96435546875,-0.193115234375,0.6713866591453552,-0.1831054538488388,0.30517578125
915125,0.0162353515625,0.9676513671875,-0.194091796875,0.6713866591453552,-0.2441406100988388,0.2441406100988388
915157,0.0164794921875,0.965087890625,-0.1943359375,0.6713866591453552,-0.1220703050494194,0.2441406100988388
915179,0.017822265625,0.9642333984375,-0.193359375,0.6713866591453552,-0.1831054538488388,0.2441406100988388
915199,0.0169677734375,0.966064453125,-0.19482421875,0.6103515625,-0.1831054538488388,0.2441406100988388
915215,0.016845703125,0.9652099609375,-0.193603515625,0.6103515625,-0.2441406100988388,0.30517578125
915236,0.0164794921875,0.96435546875,-0.19384765625,0.6103515625,-0.1831054538488388,0.1220703050494194
915257,0.01806640625,0.9661865234375,-0.195068359375,0.6103515625,-0.1831054538488388,0.1831054538488388
915270,0.017578125,0.9678955078125,-0.1943359375,0.6103515625,-0.1831054538488388,0.30517578125
915336,0.017578125,0.9642333984375,-0.1939697265625,0.6103515625,-0.1831054538488388,0.30517578125
915358,0.0174560546875,0.9644775390625,-0.1944580078125,0.6103515625,-0.1831054538488388,0.30517578125
915374,0.0157470703125,0.967529296875,-0.1942138671875,0.6713866591453552,-0.1831054538488388,0.30517578125
915389,0.01611328125,0.9677734375,-0.1944580078125,0.7324218153953552,-0.2441406100988388,0.2441406100988388
915458,0.0159912109375,0.9664306640625,-0.1932373046875,0.6103515625,-0.1831054538488388,0.2441406100988388
915474,0.0179443359375,0.9658203125,-0.19384765625,0.6713866591453552,-0.2441406100988388,0.2441406100988388
915490,0.0159912109375,0.967041015625,-0.195068359375,0.6713866591453552,-0.2441406100988388,0.30517578125
915525,0.016845703125,0.965576171875,-0.1937255859375,0.6103515625,-0.1831054538488388,0.2441406100988388
915547,0.0174560546875,0.9658203125,-0.1944580078125,0.6713866591453552,-0.2441406100988388,0.30517578125
915563,0.0167236328125,0.967041015625,-0.1947021484375,0.6713866591453552,-0.1831054538488388,0.30517578125
915584,0.01708984375,0.9677734375,-0.1942138671875,0.6103515625,-0.1831054538488388,0.2441406100988388
915601,0.017333984375,0.966064453125,-0.19384765625,0.6103515625,-0.1831054538488388,0.1831054538488388
915617,0.016357421875,0.96533203125,-0.1925048828125,0.6713866591453552,-0.2441406100988388,0.2441406100988388
915634,0.0172119140625,0.9656982421875,-0.19287109375,0.7324218153953552,-0.1831054538488388,0.2441406100988388
915651,0.0174560546875,0.9666748046875,-0.1937255859375,0.6713866591453552,-0.1831054538488388,0.30517578125
915667,0.0166015625,0.965087890625,-0.1937255859375,0.6713866591453552,-0.1831054538488388,0.2441406100988388
915698,0.017822265625,0.9661865234375,-0.1937255859375,0.6713866591453552,-0.2441406100988388,0.2441406100988388
915719,0.0169677734375,0.96728515625,-0.192138671875,0.6713866591453552,-0.2441406100988388,0.2441406100988388
915735,0.015625,0.96533203125,-0.194091796875,0.6103515625,-0.1831054538488388,0.2441406100988388
915752,0.0177001953125,0.9649658203125,-0.19482421875,0.54931640625,-0.1831054538488388,0.2441406100988388
915816,0.0164794921875,0.9661865234375,-0.1943359375,0.6103515625,-0.2441406100988388,0.1831054538488388
915833,0.017333984375,0.9654541015625,-0.1949462890625,0.6713866591453552,-0.1831054538488388,0.30517578125
915881,0.0167236328125,0.967529296875,-0.193603515625,0.6713866591453552,-0.1831054538488388,0.2441406100988388
915951,0.0169677734375,0.9658203125,-0.1939697265625,0.6713866591453552,-0.1831054538488388,0.1831054538488388
915968,0.017333984375,0.96728515625,-0.193359375,0.6713866591453552,-0.1831054538488388,0.1831054538488388
916000,0.0169677734375,0.9656982421875,-0.1937255859375,0.6713866591453552,-0.1831054538488388,0.2441406100988388
916017,0.017822265625,0.967041015625,-0.1937255859375,0.6103515625,-0.1831054538488388,0.2441406100988388
916033,0.0185546875,0.96533203125,-0.1932373046875,0.6103515625,-0.1220703050494194,0.2441406100988388
916049,0.017822265625,0.9649658203125,-0.193603515625,0.6713866591453552,-0.1831054538488388,0.2441406100988388
916069,0.0169677734375,0.9669189453125,-0.1943359375,0.7324218153953552,-0.2441406100988388,0.2441406100988388
916089,0.01611328125,0.96728515625,-0.195068359375,0.7324218153953552,-0.2441406100988388,0.2441406100988388
916109,0.0174560546875,0.9658203125,-0.19384765625,0.6713866591453552,-0.1831054538488388,0.2441406100988388
916129,0.016357421875,0.966552734375,-0.1937255859375,0.6713866591453552,-0.1220703050494194,0.2441406100988388
916149,0.0164794921875,0.9664306640625,-0.1939697265625,0.6713866591453552,-0.1831054538488388,0.2441406100988388
916165,0.017333984375,0.965576171875,-0.1942138671875,0.6103515625,-0.2441406100988388,0.2441406100988388
916181,0.0167236328125,0.9649658203125,-0.1942138671875,0.6103515625,-0.1831054538488388,0.2441406100988388
916202,0.0162353515625,0.96630859375,-0.193603515625,0.6713866591453552,-0.2441406100988388,0.1831054538488388
916219,0.015869140625,0.9677734375,-0.1942138671875,0.6713866591453552,-0.2441406100988388,0.1831054538488388
916238,0.0164794921875,0.9659423828125,-0.1929931640625,0.6713866591453552,-0.2441406100988388,0.30517578125
916254,0.017333984375,0.9654541015625,-0.193359375,0.6713866591453552,-0.1831054538488388,0.30517578125
916271,0.017822265625,0.9664306640625,-0.194091796875,0.6103515625,-0.1831054538488388,0.2441406100988388
916288,0.0169677734375,0.9674072265625,-0.1939697265625,0.6103515625,-0.1831054538488388,0.2441406100988388
916308,0.0159912109375,0.9649658203125,-0.193603515625,0.6713866591453552,-0.2441406100988388,0.30517578125
916330,0.016845703125,0.9664306640625,-0.194091796875,0.6103515625,-0.1831054538488388,0.2441406100988388
916346,0.0169677734375,0.9666748046875,-0.1932373046875,0.54931640625,-0.1831054538488388,0.1831054538488388
916363,0.0172119140625,0.9664306640625,-0.1927490234375,0.6713866591453552,-0.1831054538488388,0.2441406100988388
916380,0.0164794921875,0.964599609375,-0.1932373046875,0.6713866591453552,-0.1831054538488388,0.2441406100988388
916413,0.01708984375,0.9671630859375,-0.1944580078125,0.6713866591453552,-0.1831054538488388,0.30517578125
916430,0.0177001953125,0.967041015625,-0.194091796875,0.7324218153953552,-0.2441406100988388,0.30517578125
916446,0.017578125,0.96630859375,-0.194091796875,0.6713866591453552,-0.2441406100988388,0.30517578125
916478,0.017333984375,0.96630859375,-0.1949462890625,0.6103515625,-0.1831054538488388,0.2441406100988388
916494,0.0162353515625,0.965576171875,-0.1942138671875,0.6713866591453552,-0.1831054538488388,0.2441406100988388
916510,0.015625,0.9656982421875,-0.193603515625,0.6713866591453552,-0.30517578125,0.2441406100988388
916542,0.0169677734375,0.9661865234375,-0.193603515625,0.6713866591453552,-0.1831054538488388,0.30517578125
916558,0.016845703125,0.9647216796875,-0.19482421875,0.6713866591453552,-0.2441406100988388,0.2441406100988388
916574,0.0167236328125,0.9654541015625,-0.19384765625,0.6103515625,-0.2441406100988388,0.1831054538488388
916590,0.016357421875,0.966064453125,-0.193359375,0.6713866591453552,-0.1831054538488388,0.1831054538488388
916610,0.01806640625,0.9656982421875,-0.1939697265625,0.6713866591453552,-0.1831054538488388,0.2441406100988388
916626,0.0177001953125,0.96533203125,-0.193603515625,0.6713866591453552,-0.2441406100988388,0.1831054538488388
916642,0.016357421875,0.9639892578125,-0.193359375,0.6713866591453552,-0.2441406100988388,0.1831054538488388
916658,0.016357421875,0.9666748046875,-0.1934814453125,0.7324218153953552,-0.1831054538488388,0.2441406100988388
916680,0.01708984375,0.967041015625,-0.1944580078125,0.7324218153953552,-0.1831054538488388,0.2441406100988388
916696,0.0166015625,0.966796875,-0.19482421875,0.6103515625,-0.2441406100988388,0.1831054538488388
916713,0.0169677734375,0.967529296875,-0.1944580078125,0.6713866591453552,-0.2441406100988388,0.2441406100988388
916730,0.017333984375,0.966796875,-0.1942138671875,0.6713866591453552,-0.2441406100988388,0.2441406100988388
916746,0.016845703125,0.964599609375,-0.194091796875,0.6103515625,-0.2441406100988388,0.1831054538488388
916779,0.0172119140625,0.966064453125,-0.1929931640625,0.6713866591453552,-0.1831054538488388,0.1831054538488388
916795,0.016357421875,0.9656982421875,-0.193115234375,0.6713866591453552,-0.2441406100988388,0.1831054538488388
916811,0.0167236328125,0.966552734375,-0.1937255859375,0.6713866591453552,-0.30517578125,0.2441406100988388
916847,0.0166015625,0.967041015625,-0.1944580078125,0.6713866591453552,-0.1831054538488388,0.1831054538488388
916863,0.01611328125,0.9666748046875,-0.194580078125,0.6103515625,-0.1831054538488388,0.1831054538488388
916895,0.0162353515625,0.9664306640625,-0.1937255859375,0.6713866591453552,-0.1831054538488388,0.30517578125
916958,0.015869140625,0.968017578125,-0.1937255859375,0.6713866591453552,-0.2441406100988388,0.2441406100988388
916979,0.016357421875,0.9666748046875,-0.1944580078125,0.6713866591453552,-0.1831054538488388,0.30517578125
916995,0.01708984375,0.9627685546875,-0.1920166015625,0.6713866591453552,-0.1220703050494194,0.30517578125
917012,0.0167236328125,0.9644775390625,-0.19189453125,0.6713866591453552,-0.1831054538488388,0.2441406100988388
917029,0.0166015625,0.9652099609375,-0.194091796875,0.6103515625,-0.1831054538488388,0.2441406100988388
917045,0.0174560546875,0.9700927734375,-0.194580078125,0.6713866591453552,-0.2441406100988388,0.2441406100988388
917077,0.01708984375,0.9688720703125,-0.1949462890625,0.6103515625,-0.1220703050494194,0.2441406100988388
917099,0.0169677734375,0.97314453125,-0.1961669921875,0.6713866591453552,-0.1220703050494194,0.2441406100988388
917115,0.016357421875,0.9664306640625,-0.193115234375,0.6713866591453552,-0.1220703050494194,0.2441406100988388
917132,0.016845703125,0.9642333984375,-0.19287109375,0.6103515625,-0.1831054538488388,0.2441406100988388
917149,0.0185546875,0.963623046875,-0.194091796875,0.6103515625,-0.2441406100988388,0.2441406100988388
917169,0.0167236328125,0.961669921875,-0.194091796875,0.6103515625,-0.1831054538488388,0.30517578125
917190,0.015625,0.970458984375,-0.1944580078125,0.7324218153953552,-0.1831054538488388,0.30517578125
917207,0.017578125,0.96875,-0.1956787109375,0.6713866591453552,-0.1831054538488388,0.2441406100988388
917223,0.0172119140625,0.968994140625,-0.1951904296875,0.6713866591453552,-0.1831054538488388,0.1831054538488388
917255,0.017333984375,0.9676513671875,-0.1942138671875,0.6713866591453552,-0.1831054538488388,0.3662109076976776
917319,0.01806640625,0.9669189453125,-0.1943359375,0.6713866591453552,-0.1831054538488388,0.2441406100988388
917340,0.0162353515625,0.9632568359375,-0.1917724609375,0.6713866591453552,-0.1831054538488388,0.30517578125
917356,0.0157470703125,0.968505859375,-0.1942138671875,0.6103515625,-0.1831054538488388,0.30517578125
917373,0.0172119140625,0.968994140625,-0.195556640625,0.6713866591453552,-0.2441406100988388,0.2441406100988388
917423,0.017578125,0.9649658203125,-0.1939697265625,0.6713866591453552,-0.1831054538488388,0.3662109076976776
917455,0.0162353515625,0.96630859375,-0.1944580078125,0.6103515625,-0.2441406100988388,0.2441406100988388
917472,0.0152587890625,0.964111328125,-0.193359375,0.6103515625,-0.1831054538488388,0.2441406100988388
917489,0.01806640625,0.96826171875,-0.194091796875,0.6713866591453552,-0.1831054538488388,0.1831054538488388
917505,0.018310546875,0.9642333984375,-0.1932373046875,0.6713866591453552,-0.2441406100988388,0.1831054538488388
917522,0.0166015625,0.963134765625,-0.193359375,0.6713866591453552,-0.2441406100988388,0.2441406100988388
917555,0.0166015625,0.969970703125,-0.193359375,0.7324218153953552,-0.1831054538488388,0.2441406100988388
917572,0.016845703125,0.9656982421875,-0.194091796875,0.7324218153953552,-0.1831054538488388,0.1831054538488388
917593,0.0167236328125,0.9661865234375,-0.194580078125,0.6103515625,-0.1220703050494194,0.1831054538488388
917609,0.016357421875,0.96435546875,-0.1932373046875,0.6713866591453552,-0.1831054538488388,0.1831054538488388
917677,0.0174560546875,0.96728515625,-0.193603515625,0.6713866591453552,-0.1831054538488388,0.2441406100988388
917694,0.0167236328125,0.967041015625,-0.19482421875,0.6713866591453552,-0.1831054538488388,0.2441406100988388
917710,0.0157470703125,0.9644775390625,-0.1934814453125,0.6103515625,-0.2441406100988388,0.30517578125
917758,0.0167236328125,0.9691162109375,-0.194580078125,0.6713866591453552,-0.1831054538488388,0.2441406100988388
917810,0.01806640625,0.9659423828125,-0.19482421875,0.6103515625,-0.1831054538488388,0.1831054538488388
917827,0.0179443359375,0.9654541015625,-0.1939697265625,0.6713866591453552,-0.1831054538488388,0.2441406100988388
917860,0.0162353515625,0.96826171875,-0.1944580078125,0.6103515625,-0.1831054538488388,0.2441406100988388
917877,0.0169677734375,0.9656982421875,-0.1947021484375,0.6713866591453552,-0.1220703050494194,0.2441406100988388
917894,0.016845703125,0.967041015625,-0.1944580078125,0.6713866591453552,-0.2441406100988388,0.30517578125
917910,0.0169677734375,0.9664306640625,-0.1937255859375,0.6713866591453552,-0.2441406100988388,0.3662109076976776
917930,0.0172119140625,0.96630859375,-0.1934814453125,0.6713866591453552,-0.1831054538488388,0.2441406100988388
917946,0.01708984375,0.9659423828125,-0.1937255859375,0.6103515625,-0.2441406100988388,0.2441406100988388
917962,0.0177001953125,0.9666748046875,-0.1934814453125,0.6103515625,-0.1220703050494194,0.2441406100988388
917979,0.0167236328125,0.9683837890625,-0.1934814453125,0.6713866591453552,-0.1220703050494194,0.2441406100988388
918000,0.0147705078125,0.9664306640625,-0.193115234375,0.7324218153953552,-0.1831054538488388,0.1831054538488388
918016,0.0186767578125,0.96630859375,-0.1927490234375,0.6713866591453552,-0.2441406100988388,0.2441406100988388
918033,0.017822265625,0.9639892578125,-0.1981201171875,0.7324218153953552,-0.2441406100988388,0.30517578125
918050,0.0159912109375,0.9656982421875,-0.1990966796875,0.9765624403953552,-0.1831054538488388,0.2441406100988388
918066,0.0162353515625,0.96630859375,-0.197021484375,1.220703125,-0.2441406100988388,0.2441406100988388
918100,0.017333984375,0.9671630859375,-0.1925048828125,1.3427733182907104,-0.1831054538488388,0.1831054538488388
918148,0.0167236328125,0.9654541015625,-0.19482421875,1.4038084745407104,-0.2441406100988388,0.1831054538488388
918170,0.0152587890625,0.966064453125,-0.19677734375,1.6479490995407104,-0.2441406100988388,0.1831054538488388
918187,0.0146484375,0.966552734375,-0.1968994140625,2.0751953125,-0.1831054538488388,0.2441406100988388
918220,0.0169677734375,0.966064453125,-0.19580078125,2.44140625,-0.30517578125,0.1220703050494194
918237,0.0167236328125,0.9654541015625,-0.1949462890625,2.807616949081421,-0.2441406100988388,0.0610351525247097
918254,0.01611328125,0.966796875,-0.1966552734375,3.173827886581421,-0.2441406100988388,0.1220703050494194
918270,0.0162353515625,0.9659423828125,-0.18798828125,3.295898199081421,-0.2441406100988388,0.0610351525247097
918291,0.01708984375,0.9686279296875,-0.1837158203125,3.173827886581421,-0.2441406100988388,0.0
918312,0.0191650390625,0.9693603515625,-0.1861572265625,3.112792730331421,-0.30517578125,0.0
918329,0.01953125,0.9664306640625,-0.1865234375,2.929687261581421,-0.30517578125,0.1220703050494194
918346,0.01708984375,0.967041015625,-0.1854248046875,2.868652105331421,-0.30517578125,0.1220703050494194
918362,0.0150146484375,0.96875,-0.183349609375,2.868652105331421,-0.30517578125,0.0610351525247097
918396,0.0191650390625,0.96728515625,-0.1854248046875,2.685546636581421,-0.30517578125,0.0
918412,0.0191650390625,0.9676513671875,-0.18115234375,2.44140625,-0.30517578125,0.0
918428,0.017822265625,0.9661865234375,-0.1790771484375,2.3193359375,-0.30517578125,0.0
918460,0.0186767578125,0.9622802734375,-0.1815185546875,2.0751953125,-0.4272460639476776,-0.2441406100988388
918508,0.0166015625,0.9765625,-0.1807861328125,1.7089842557907104,-0.2441406100988388,-1.7700194120407104
918530,0.015869140625,0.9776611328125,-0.181884765625,1.3427733182907104,-0.1220703050494194,-2.929687261581421
918547,0.0228271484375,0.9869384765625,-0.1781005859375,0.6713866591453552,-1.03759765625,-4.45556640625
918580,0.0289306640625,1.330322265625,-0.3116455078125,5.249022960662842,-0.8544921278953552,-1.9531248807907104
918597,0.0142822265625,1.454833984375,-0.339599609375,8.97216796875,0.0610351525247097,-0.1220703050494194
918614,0.033203125,1.442138671875,-0.3173828125,13.427733421325684,0.8544921278953552,2.13623046875
918630,0.043701171875,1.3677978515625,-0.265380859375,14.892577171325684,0.6713866591453552,2.38037109375
918651,0.0338134765625,1.25439453125,-0.2386474609375,15.380858421325684,0.0,2.197265625
918675,0.0220947265625,1.2257080078125,-0.234130859375,15.563963890075684,-0.1831054538488388,1.2817381620407104
918691,0.017822265625,1.2528076171875,-0.251708984375,14.587401390075684,-0.54931640625,1.0986328125
918712,0.0133056640625,1.3302001953125,-0.280517578125,14.831542015075684,-0.3662109076976776,1.4038084745407104
918732,0.015869140625,1.3583984375,-0.2813720703125,14.831542015075684,-0.0610351525247097,1.7089842557907104
918753,0.0135498046875,1.3226318359375,-0.2587890625,15.686034202575684,0.0,1.8920897245407104
918769,0.009033203125,1.2606201171875,-0.2115478515625,15.380858421325684,-0.3662109076976776,0.6103515625
918786,0.005615234375,1.2650146484375,-0.1986083984375,14.953612327575684,-1.03759765625,-1.03759765625
918820,0.0230712890625,1.342041015625,-0.220703125,14.404295921325684,-1.5258787870407104,-1.7700194120407104
918841,0.0419921875,1.344482421875,-0.2135009765625,14.526366233825684,-1.4648436307907104,-1.6479490995407104
918857,0.0545654296875,1.355712890625,-0.2095947265625,14.038084983825684,-1.2817381620407104,-1.5258787870407104
918871,0.064208984375,1.358154296875,-0.1951904296875,13.854979515075684,-1.15966796875,-0.9155272841453552
918938,0.0740966796875,1.2564697265625,-0.15966796875,8.97216796875,-0.2441406100988388,3.479003667831421
919010,0.0201416015625,1.0399169921875,-0.1041259765625,1.8920897245407104,0.6103515625,6.469726085662842
919027,0.0113525390625,0.938232421875,-0.08349609375,0.4882812201976776,0.6713866591453552,6.347655773162842
919060,0.0062255859375,0.8922119140625,-0.076904296875,-5.126952648162842,0.7934569716453552,4.8828125
919077,-0.0010986328125,0.864501953125,-0.0694580078125,-7.141112804412842,0.7934569716453552,4.69970703125
919093,-0.0081787109375,0.802734375,-0.0693359375,-8.23974609375,0.8544921278953552,4.638671875
919110,-0.0093994140625,0.768798828125,-0.0677490234375,-10.437010765075684,0.9765624403953552,4.45556640625
919130,-0.00927734375,0.6798095703125,-0.0645751953125,-12.268065452575684,0.9155272841453552,4.08935546875
919146,-0.0059814453125,0.617431640625,-0.063232421875,-14.099120140075684,0.9765624403953552,3.784179449081421
919162,-0.00537109375,0.590576171875,-0.064453125,-14.770506858825684,1.03759765625,3.906249761581421
919178,-0.0052490234375,0.4906005859375,-0.0521240234375,-16.05224609375,1.220703125,3.906249761581421
919226,-0.0169677734375,0.3519287109375,-0.032470703125,-18.5546875,1.2817381620407104,1.8920897245407104
919249,-0.0196533203125,0.334716796875,-0.0111083984375,-19.4091796875,1.0986328125,0.7934569716453552
919266,-0.0172119140625,0.3763427734375,-0.008056640625,-19.775390625,0.8544921278953552,0.2441406100988388
919299,-0.0008544921875,0.4688720703125,-0.0400390625,-20.874021530151367,0.3662109076976776,-0.54931640625
919316,0.0123291015625,0.5247802734375,-0.0423583984375,-21.301267623901367,0.2441406100988388,-1.220703125
919332,0.013916015625,0.586669921875,-0.052734375,-21.484373092651367,0.1220703050494194,-1.3427733182907104
919348,0.0103759765625,0.69921875,-0.0677490234375,-21.606443405151367,-0.1220703050494194,-0.7324218153953552
919369,0.003662109375,0.7598876953125,-0.0985107421875,-21.484373092651367,-0.30517578125,0.0610351525247097
919385,0.0009765625,0.8040771484375,-0.133544921875,-20.751951217651367,-0.30517578125,0.1220703050494194
919401,0.00146484375,0.8260498046875,-0.1407470703125,-20.324705123901367,-0.2441406100988388,0.30517578125
919417,0.001953125,0.8603515625,-0.1439208984375,-19.53125,-0.4272460639476776,0.4882812201976776
919433,0.0008544921875,0.888916015625,-0.1572265625,-19.10400390625,-0.4272460639476776,0.7324218153953552
919449,-0.0015869140625,0.8994140625,-0.1539306640625,-17.9443359375,-0.4272460639476776,1.220703125
919481,-0.00537109375,0.8807373046875,-0.165771484375,-15.808104515075684,-0.6103515625,1.2817381620407104
919497,-0.009033203125,0.904541015625,-0.18603515625,-14.160155296325684,-0.4882812201976776,1.03759765625
919513,-0.0108642578125,0.9088134765625,-0.1844482421875,-13.305663108825684,-0.4272460639476776,1.15966796875
919529,-0.0145263671875,0.8974609375,-0.170166015625,-11.901854515075684,-0.54931640625,0.7934569716453552
919549,-0.0164794921875,0.9354248046875,-0.18017578125,-10.437010765075684,-0.9155272841453552,0.1831054538488388
919570,-0.0174560546875,0.97509765625,-0.2164306640625,-8.48388671875,-1.03759765625,0.30517578125
919586,-0.0198974609375,0.9700927734375,-0.2403564453125,-7.202147960662842,-0.9765624403953552,0.2441406100988388
919603,-0.021240234375,0.970703125,-0.2435302734375,-4.21142578125,-0.7934569716453552,-0.2441406100988388
919620,-0.021728515625,1.0010986328125,-0.240234375,-2.685546636581421,-0.7934569716453552,-0.4882812201976776
919653,-0.018798828125,0.99365234375,-0.2359619140625,3.784179449081421,-1.03759765625,-0.6103515625
919670,-0.0140380859375,0.959716796875,-0.228759765625,6.835937023162842,-1.220703125,-1.0986328125
919686,-0.0101318359375,0.9652099609375,-0.226806640625,9.82666015625,-1.4038084745407104,-1.7089842557907104
919718,-0.0040283203125,0.97265625,-0.21826171875,13.916014671325684,-1.5258787870407104,-1.5258787870407104
919739,-0.0045166015625,0.9661865234375,-0.215576171875,15.014647483825684,-1.5869139432907104,-1.5869139432907104
919755,-0.006103515625,0.9635009765625,-0.21826171875,16.9677734375,-1.5869139432907104,-1.8310545682907104
919772,-0.004150390625,0.980224609375,-0.225341796875,18.798828125,-1.5869139432907104,-1.7700194120407104
919789,-0.0052490234375,0.9827880859375,-0.2288818359375,19.59228515625,-1.4648436307907104,-1.5869139432907104
919805,-0.0069580078125,0.969970703125,-0.2171630859375,20.996091842651367,-1.15966796875,-1.3427733182907104
919839,-0.0084228515625,0.9644775390625,-0.19189453125,22.338865280151367,-0.9765624403953552,-1.2817381620407104
919855,-0.00390625,0.972900390625,-0.1806640625,22.399900436401367,-0.9155272841453552,-1.220703125
919871,0.000732421875,0.9693603515625,-0.1732177734375,22.521970748901367,-0.9155272841453552,-0.9765624403953552
919905,0.01513671875,0.9764404296875,-0.1646728515625,22.460935592651367,-0.9765624403953552,-0.9765624403953552
919958,0.02294921875,1.00341796875,-0.168212890625,21.972654342651367,-0.7934569716453552,0.0
919975,0.0234375,0.9986572265625,-0.165283203125,21.545408248901367,-0.54931640625,0.30517578125
919992,0.0218505859375,0.9866943359375,-0.1580810546875,20.935056686401367,-0.4272460639476776,0.4882812201976776
920008,0.0162353515625,0.954345703125,-0.141845703125,20.568845748901367,-0.3662109076976776,0.54931640625
920029,0.0101318359375,0.9210205078125,-0.1234130859375,18.6767578125,-0.30517578125,0.1220703050494194
920046,0.0059814453125,0.891845703125,-0.1075439453125,17.822265625,-0.3662109076976776,-0.1220703050494194
920062,0.005126953125,0.8863525390625,-0.10546875,16.17431640625,-0.4272460639476776,-0.7324218153953552
920078,0.006103515625,0.87451171875,-0.097900390625,14.404295921325684,-0.3662109076976776,-1.220703125
920099,0.00634765625,0.875732421875,-0.0966796875,13.488768577575684,-0.30517578125,-1.4038084745407104
920115,0.00439453125,0.8594970703125,-0.088134765625,11.657713890075684,-0.2441406100988388,-1.6479490995407104
920136,0.00537109375,0.8447265625,-0.077392578125,9.94873046875,-0.2441406100988388,-2.197265625
920156,0.0079345703125,0.85009765625,-0.0731201171875,8.23974609375,-0.30517578125,-2.44140625
920177,0.009033203125,0.8154296875,-0.0560302734375,6.530761241912842,-0.2441406100988388,-2.44140625
920193,0.0091552734375,0.8056640625,-0.050537109375,4.69970703125,-0.1831054538488388,-2.685546636581421
920210,0.011962890625,0.79736328125,-0.0469970703125,2.929687261581421,-0.30517578125,-3.051757574081421
920227,0.0185546875,0.81201171875,-0.0511474609375,2.0751953125,-0.4272460639476776,-3.112792730331421
920263,0.0281982421875,0.8704833984375,-0.0751953125,-0.6103515625,-0.54931640625,-3.234863042831421
920279,0.02880859375,0.91357421875,-0.091064453125,-0.9765624403953552,-0.54931640625,-3.295898199081421
920296,0.029052734375,0.9384765625,-0.09716796875,-1.2817381620407104,-0.54931640625,-3.051757574081421
920313,0.0316162109375,0.9805908203125,-0.1124267578125,-0.9765624403953552,-0.3662109076976776,-2.197265625
920329,0.0316162109375,0.927490234375,-0.1021728515625,-0.7324218153953552,-0.1831054538488388,-1.7089842557907104
920346,0.03125,0.895751953125,-0.0906982421875,-0.6713866591453552,-0.1220703050494194,-1.4648436307907104
920378,0.0335693359375,0.8638916015625,-0.0745849609375,-1.6479490995407104,-0.1831054538488388,-1.5869139432907104
920400,0.03271484375,0.8634033203125,-0.07080078125,-1.9531248807907104,-0.1831054538488388,-1.3427733182907104
920416,0.0260009765625,0.845458984375,-0.0626220703125,-2.50244140625,-0.1831054538488388,-0.9155272841453552
920433,0.0234375,0.807861328125,-0.0599365234375,-3.662109136581421,-0.1220703050494194,-0.6713866591453552
920450,0.02685546875,0.789794921875,-0.057861328125,-4.39453125,-0.1220703050494194,-0.9155272841453552
920466,0.027099609375,0.8175048828125,-0.0643310546875,-6.042479991912842,-0.2441406100988388,-1.15966796875
920499,0.017578125,0.8555908203125,-0.0927734375,-8.7890625,-0.1831054538488388,-0.4272460639476776
920516,0.014892578125,0.86767578125,-0.1009521484375,-9.521484375,-0.1220703050494194,-0.1831054538488388
920532,0.01611328125,0.8955078125,-0.1195068359375,-10.864256858825684,0.0,0.2441406100988388
920548,0.023681640625,0.9444580078125,-0.13623046875,-11.596678733825684,0.0,0.4882812201976776
920568,0.02978515625,0.955322265625,-0.15185546875,-12.695311546325684,0.2441406100988388,1.6479490995407104
920584,0.0323486328125,0.9322509765625,-0.14794921875,-13.610838890075684,0.6103515625,2.50244140625
920616,0.0283203125,0.89013671875,-0.14306640625,-15.258788108825684,0.7934569716453552,3.051757574081421
920632,0.0206298828125,0.88330078125,-0.1441650390625,-16.29638671875,0.8544921278953552,3.051757574081421
920648,0.013916015625,0.88671875,-0.154296875,-16.7236328125,0.9155272841453552,3.051757574081421
920680,0.00732421875,0.876953125,-0.17041015625,-17.02880859375,1.2817381620407104,3.601073980331421
920696,0.0072021484375,0.8511962890625,-0.168212890625,-17.08984375,1.2817381620407104,3.540038824081421
920748,0.0029296875,0.8658447265625,-0.188232421875,-16.90673828125,1.220703125,2.01416015625
920764,0.00146484375,0.8721923828125,-0.1904296875,-16.41845703125,1.220703125,1.7089842557907104
920780,0.0030517578125,0.8521728515625,-0.181884765625,-15.808104515075684,0.9765624403953552,0.8544921278953552
920796,0.0050048828125,0.86376953125,-0.1865234375,-15.563963890075684,0.7324218153953552,0.30517578125
920818,0.011474609375,0.88818359375,-0.20361328125,-14.831542015075684,0.4882812201976776,-0.4882812201976776
920834,0.016845703125,0.9412841796875,-0.2376708984375,-13.549803733825684,0.30517578125,-1.4038084745407104
920851,0.019287109375,1.0029296875,-0.251220703125,-12.756346702575684,0.4272460639476776,-1.7089842557907104
920868,0.0201416015625,0.9906005859375,-0.2398681640625,-10.864256858825684,0.54931640625,-1.7089842557907104
920884,0.0205078125,0.9349365234375,-0.217529296875,-9.3994140625,0.2441406100988388,-2.685546636581421
920917,0.030517578125,0.9439697265625,-0.2293701171875,-7.751464366912842,-0.3662109076976776,-5.187987804412842
920933,0.0396728515625,1.056884765625,-0.2628173828125,-6.469726085662842,-0.30517578125,-6.103515148162842
920949,0.044921875,1.117431640625,-0.2701416015625,-5.615233898162842,-0.1220703050494194,-5.920409679412842
920980,0.04736328125,1.1011962890625,-0.2564697265625,-2.44140625,0.2441406100988388,-5.493163585662842
921002,0.0479736328125,1.099853515625,-0.25439453125,-1.9531248807907104,0.2441406100988388,-5.493163585662842
921022,0.0513916015625,1.0865478515625,-0.245849609375,-1.4038084745407104,0.3662109076976776,-5.187987804412842
921041,0.057861328125,1.069580078125,-0.2369384765625,-0.9765624403953552,0.4272460639476776,-4.8828125
921091,0.0623779296875,1.1328125,-0.2818603515625,0.4272460639476776,0.9155272841453552,-4.82177734375
921108,0.061767578125,1.1361083984375,-0.2855224609375,1.7089842557907104,1.4038084745407104,-3.845214605331421
921125,0.05908203125,1.09619140625,-0.2550048828125,2.868652105331421,1.7700194120407104,-3.173827886581421
921157,0.051513671875,1.1036376953125,-0.245361328125,3.845214605331421,1.4038084745407104,-3.540038824081421
921174,0.054443359375,1.179931640625,-0.2720947265625,5.0048828125,1.5869139432907104,-3.173827886581421
921195,0.0606689453125,1.199951171875,-0.275390625,5.737304210662842,1.7700194120407104,-2.44140625
921211,0.0574951171875,1.1700439453125,-0.243896484375,6.958007335662842,2.0751953125,-1.5869139432907104
921228,0.052734375,1.1728515625,-0.2286376953125,7.385253429412842,1.8920897245407104,-1.3427733182907104
921245,0.0439453125,1.18896484375,-0.225830078125,7.507323741912842,1.6479490995407104,-1.15966796875
921276,0.0433349609375,1.1434326171875,-0.2210693359375,7.995604991912842,1.3427733182907104,0.4272460639476776
921293,0.0443115234375,1.1085205078125,-0.228759765625,8.1787109375,1.15966796875,0.7324218153953552
921309,0.043701171875,1.072998046875,-0.21875,8.23974609375,1.0986328125,0.8544921278953552
921340,0.0294189453125,1.0673828125,-0.2264404296875,7.934569835662842,0.7934569716453552,0.3662109076976776
921362,0.0296630859375,1.0797119140625,-0.23583984375,7.934569835662842,0.7324218153953552,0.7934569716453552
921378,0.032958984375,1.0703125,-0.23095703125,8.11767578125,1.0986328125,1.7700194120407104
921395,0.0302734375,0.9879150390625,-0.2066650390625,8.056640625,1.0986328125,1.8920897245407104
921412,0.0325927734375,1.0020751953125,-0.2115478515625,7.751464366912842,0.8544921278953552,1.15966796875
921428,0.03271484375,1.0303955078125,-0.21875,7.446288585662842,0.6713866591453552,0.9765624403953552
921461,0.0296630859375,1.0545654296875,-0.2156982421875,7.812499523162842,0.9155272841453552,1.7700194120407104
921478,0.0294189453125,1.0626220703125,-0.2164306640625,7.995604991912842,0.8544921278953552,1.7700194120407104
921494,0.0301513671875,1.05517578125,-0.210693359375,8.23974609375,0.8544921278953552,2.13623046875
921510,0.0302734375,1.0433349609375,-0.2080078125,8.1787109375,0.7324218153953552,2.01416015625
921530,0.0318603515625,1.0614013671875,-0.2158203125,8.11767578125,0.6713866591453552,2.38037109375
921546,0.0296630859375,1.020263671875,-0.201416015625,7.995604991912842,0.6103515625,2.685546636581421
921562,0.0250244140625,0.980224609375,-0.1954345703125,7.324218273162842,0.4882812201976776,2.50244140625
921578,0.0240478515625,0.97265625,-0.19091796875,6.958007335662842,0.4272460639476776,2.38037109375
921599,0.0225830078125,0.97607421875,-0.1884765625,6.103515148162842,0.3662109076976776,2.197265625
921615,0.0380859375,1.0655517578125,-0.2484130859375,5.065917491912842,0.4882812201976776,2.44140625
921632,0.0572509765625,1.0986328125,-0.2613525390625,0.54931640625,1.0986328125,4.0283203125
921649,0.043701171875,0.990966796875,-0.210693359375,-1.4038084745407104,1.6479490995407104,5.371093273162842
921666,0.018310546875,0.8917236328125,-0.145263671875,-3.662109136581421,1.4648436307907104,4.5166015625
921696,0.0208740234375,0.9525146484375,-0.169189453125,-2.197265625,1.220703125,4.69970703125
921713,0.0308837890625,1.0030517578125,-0.1710205078125,-1.8310545682907104,0.9765624403953552,4.7607421875
921729,0.0360107421875,1.036865234375,-0.1776123046875,0.0,0.9765624403953552,4.94384765625
921761,-0.005615234375,0.7296142578125,-0.1297607421875,1.7089842557907104,0.4272460639476776,3.845214605331421
921809,0.038818359375,1.07080078125,-0.1824951171875,1.6479490995407104,-0.54931640625,0.1220703050494194
921831,0.0328369140625,0.8714599609375,-0.15185546875,1.2817381620407104,-0.54931640625,0.7324218153953552
921848,0.04248046875,1.0230712890625,-0.1893310546875,1.15966796875,-0.3662109076976776,2.0751953125
921881,0.0030517578125,0.8912353515625,-0.194091796875,3.234863042831421,-0.1220703050494194,0.7324218153953552
921954,0.0269775390625,1.013916015625,-0.1697998046875,0.8544921278953552,-0.4272460639476776,0.54931640625
921971,0.0224609375,0.9827880859375,-0.1871337890625,0.54931640625,-0.4272460639476776,0.9155272841453552
922004,0.0152587890625,0.9918212890625,-0.1748046875,1.0986328125,0.0610351525247097,0.54931640625
922068,0.018798828125,0.970947265625,-0.1806640625,-0.30517578125,-0.3662109076976776,0.6103515625
922085,0.017822265625,0.966552734375,-0.185791015625,-0.2441406100988388,-0.30517578125,0.54931640625
922118,0.02294921875,0.9747314453125,-0.162841796875,-0.1220703050494194,0.0,0.3662109076976776
922192,0.0196533203125,0.9674072265625,-0.1910400390625,-0.4882812201976776,-0.1220703050494194,0.3662109076976776
922209,0.018798828125,0.9703369140625,-0.1785888671875,-0.1220703050494194,-0.0610351525247097,0.2441406100988388
922226,0.0194091796875,0.9720458984375,-0.1680908203125,-0.0610351525247097,-0.1220703050494194,0.30517578125
922246,0.0225830078125,0.969482421875,-0.171875,-0.0610351525247097,-0.2441406100988388,0.3662109076976776
922263,0.0213623046875,0.9700927734375,-0.177490234375,0.0,-0.30517578125,0.4272460639476776
922279,0.0166015625,0.9678955078125,-0.1856689453125,0.4272460639476776,-0.2441406100988388,0.4272460639476776
922296,0.018798828125,0.9686279296875,-0.1844482421875,0.7934569716453552,-0.1220703050494194,0.30517578125
922312,0.02099609375,0.9722900390625,-0.178466796875,0.9155272841453552,-0.1220703050494194,0.30517578125
922360,0.0203857421875,0.9698486328125,-0.1790771484375,0.9765624403953552,-0.2441406100988388,0.2441406100988388
922376,0.01953125,0.97021484375,-0.18359375,1.2817381620407104,-0.1831054538488388,0.2441406100988388
922392,0.0179443359375,0.969970703125,-0.1807861328125,1.4038084745407104,-0.1831054538488388,0.1831054538488388
922408,0.0179443359375,0.9681396484375,-0.1761474609375,1.5258787870407104,-0.2441406100988388,0.1831054538488388
922428,0.0206298828125,0.971923828125,-0.1727294921875,1.5258787870407104,-0.2441406100988388,0.1831054538488388
922476,0.0191650390625,0.9669189453125,-0.1734619140625,1.4038084745407104,-0.1831054538488388,0.2441406100988388
922493,0.0189208984375,0.9669189453125,-0.1707763671875,1.2817381620407104,-0.1831054538488388,0.1831054538488388
922514,0.019775390625,0.9705810546875,-0.1690673828125,0.9155272841453552,-0.2441406100988388,0.1220703050494194
922530,0.0233154296875,0.96923828125,-0.1693115234375,0.54931640625,-0.2441406100988388,-0.1220703050494194
922597,0.0296630859375,0.9833984375,-0.169921875,-2.563476324081421,-0.4272460639476776,-2.01416015625
922617,0.0501708984375,1.0087890625,-0.1881103515625,-2.563476324081421,-1.5258787870407104,-3.662109136581421
922637,0.069091796875,1.1630859375,-0.291259765625,0.1220703050494194,-0.9155272841453552,-2.38037109375
922657,0.073486328125,1.2572021484375,-0.283203125,1.6479490995407104,-0.1220703050494194,0.2441406100988388
922679,0.06494140625,1.2412109375,-0.267333984375,1.7089842557907104,-0.1831054538488388,0.3662109076976776
922695,0.050537109375,1.2686767578125,-0.255615234375,1.5869139432907104,-0.6713866591453552,-0.0610351525247097
922712,0.04248046875,1.343017578125,-0.291015625,1.220703125,-0.7934569716453552,0.4882812201976776
922729,0.0386962890625,1.3743896484375,-0.3387451171875,1.8310545682907104,-0.8544921278953552,0.6713866591453552
922745,0.0390625,1.4798583984375,-0.3917236328125,3.662109136581421,-0.8544921278953552,0.30517578125
922777,0.036376953125,1.4658203125,-0.3724365234375,8.4228515625,0.3662109076976776,2.868652105331421
922799,0.0340576171875,1.4324951171875,-0.3489990234375,8.85009765625,0.54931640625,3.234863042831421
922815,0.027587890625,1.3790283203125,-0.3013916015625,9.27734375,0.6713866591453552,3.784179449081421
922832,0.0179443359375,1.3052978515625,-0.26416015625,9.46044921875,0.30517578125,3.845214605331421
922849,0.0078125,1.32373046875,-0.276123046875,9.58251953125,0.1831054538488388,3.540038824081421
922865,-0.005615234375,1.3541259765625,-0.28515625,10.559081077575684,0.1831054538488388,3.601073980331421
922897,-0.02197265625,1.2962646484375,-0.245849609375,11.352538108825684,0.3662109076976776,4.638671875
922919,-0.02392578125,1.255126953125,-0.22802734375,10.925292015075684,0.30517578125,4.45556640625
922935,-0.0203857421875,1.21533203125,-0.20947265625,9.3994140625,0.1831054538488388,3.601073980331421
922952,-0.0133056640625,1.1776123046875,-0.18896484375,7.934569835662842,0.0,2.868652105331421
922969,-0.014892578125,1.1597900390625,-0.19091796875,7.019042491912842,-0.0610351525247097,2.44140625
922985,-0.0150146484375,1.1439208984375,-0.18310546875,5.493163585662842,-0.0610351525247097,1.6479490995407104
923017,-0.006103515625,1.10546875,-0.1485595703125,1.4038084745407104,-0.30517578125,0.54931640625
923039,-0.004150390625,1.08984375,-0.14208984375,0.4882812201976776,-0.3662109076976776,0.4882812201976776
923055,-0.0020751953125,1.0306396484375,-0.1246337890625,-1.8920897245407104,-0.54931640625,0.30517578125
923072,0.000732421875,0.9990234375,-0.132080078125,-4.150390625,-0.54931640625,-0.2441406100988388
923089,0.0059814453125,1.011962890625,-0.1209716796875,-5.310058116912842,-0.4272460639476776,-0.2441406100988388
923105,0.008056640625,1.0028076171875,-0.1123046875,-7.690429210662842,-0.3662109076976776,0.6713866591453552
923137,0.0126953125,0.83154296875,-0.0933837890625,-12.634276390075684,-0.1831054538488388,2.01416015625
923159,0.013671875,0.7982177734375,-0.0943603515625,-13.793944358825684,-0.1831054538488388,2.0751953125
923175,0.012939453125,0.7623291015625,-0.09716796875,-15.747069358825684,-0.1831054538488388,2.197265625
923192,0.0111083984375,0.7568359375,-0.105712890625,-17.333984375,0.0,2.624511480331421
923258,0.001953125,0.493408203125,-0.0731201171875,-20.080564498901367,0.6103515625,4.21142578125
923275,0.0008544921875,0.462158203125,-0.0594482421875,-20.568845748901367,0.4272460639476776,3.967284917831421
923291,-0.00244140625,0.4129638671875,-0.0673828125,-21.667478561401367,0.4272460639476776,3.479003667831421
923327,-0.000244140625,0.4088134765625,-0.0679931640625,-22.521970748901367,0.4272460639476776,2.929687261581421
923343,0.0008544921875,0.407470703125,-0.0621337890625,-22.827146530151367,0.4272460639476776,2.685546636581421
923359,0.0009765625,0.4322509765625,-0.0911865234375,-23.010251998901367,0.4272460639476776,2.01416015625
923375,0.0037841796875,0.476318359375,-0.095703125,-23.071287155151367,0.4882812201976776,1.8310545682907104
923392,0.0003662109375,0.539794921875,-0.1131591796875,-22.827146530151367,0.54931640625,1.7089842557907104
923413,-0.0068359375,0.624755859375,-0.1175537109375,-22.155759811401367,0.2441406100988388,1.15966796875
923429,-0.0118408203125,0.736083984375,-0.1611328125,-21.728513717651367,0.1831054538488388,1.03759765625
923446,-0.00830078125,0.77392578125,-0.17431640625,-20.385740280151367,0.1831054538488388,1.220703125
923463,-0.00048828125,0.8297119140625,-0.2103271484375,-19.53125,0.1220703050494194,1.2817381620407104
923496,0.0111083984375,0.9007568359375,-0.23193359375,-15.991209983825684,0.3662109076976776,1.8310545682907104
923513,0.01318359375,0.9150390625,-0.2318115234375,-14.038084983825684,0.1220703050494194,2.01416015625
923529,0.0108642578125,0.920166015625,-0.2431640625,-11.901854515075684,0.2441406100988388,2.44140625
923577,0.0140380859375,0.900146484375,-0.24560546875,-7.873534679412842,0.2441406100988388,2.13623046875
923629,-0.0015869140625,0.897216796875,-0.2559814453125,-1.7700194120407104,0.1220703050494194,2.563476324081421
923646,-0.0025634765625,0.907958984375,-0.2645263671875,0.6713866591453552,-0.1220703050494194,1.6479490995407104
923676,-0.006103515625,0.9415283203125,-0.278564453125,4.7607421875,-0.0610351525247097,1.5869139432907104
923692,-0.008056640625,0.9271240234375,-0.2762451171875,7.385253429412842,-0.1831054538488388,1.0986328125
923709,-0.01123046875,0.956787109375,-0.2855224609375,8.544921875,-0.30517578125,0.6103515625
923741,-0.01220703125,0.95458984375,-0.2777099609375,13.244627952575684,-0.1831054538488388,0.3662109076976776
923757,-0.0108642578125,0.93603515625,-0.263427734375,14.221190452575684,-0.2441406100988388,0.2441406100988388
923777,-0.0093994140625,0.8966064453125,-0.240234375,15.686034202575684,-0.4272460639476776,-0.7934569716453552
923793,-0.009765625,0.9246826171875,-0.243408203125,16.9677734375,-0.6713866591453552,-1.15966796875
923810,-0.0081787109375,0.9224853515625,-0.2388916015625,18.12744140625,-0.7324218153953552,-1.3427733182907104
923835,-0.0084228515625,0.9161376953125,-0.2354736328125,18.85986328125,-0.6713866591453552,-1.7089842557907104
923851,-0.0072021484375,0.9354248046875,-0.2349853515625,19.1650390625,-0.6713866591453552,-2.01416015625
923868,-0.006591796875,0.9483642578125,-0.2379150390625,19.59228515625,-0.6713866591453552,-2.197265625
923889,-0.006591796875,0.947265625,-0.2257080078125,19.775390625,-0.4882812201976776,-1.8920897245407104
923926,-0.010009765625,0.9693603515625,-0.22265625,19.47021484375,-0.4882812201976776,-2.197265625
923942,-0.0069580078125,0.973876953125,-0.2225341796875,19.287109375,-0.4272460639476776,-1.8920897245407104
923959,-0.0074462890625,0.9613037109375,-0.221923828125,19.10400390625,-0.3662109076976776,-1.7700194120407104
923976,-0.008056640625,0.9544677734375,-0.216064453125,18.798828125,-0.1831054538488388,-1.6479490995407104
923997,-0.004150390625,0.9505615234375,-0.2056884765625,18.24951171875,-0.0610351525247097,-1.7700194120407104
924013,0.0048828125,0.9825439453125,-0.204345703125,17.9443359375,-0.0610351525247097,-1.7700194120407104
924030,0.0074462890625,0.988037109375,-0.2017822265625,17.39501953125,0.1220703050494194,-1.2817381620407104
924047,0.00927734375,0.9761962890625,-0.1903076171875,16.6015625,0.2441406100988388,-0.9155272841453552
924063,0.008056640625,0.981689453125,-0.1885986328125,16.2353515625,0.2441406100988388,-0.8544921278953552
924097,0.0040283203125,0.9989013671875,-0.1907958984375,14.465331077575684,0.4272460639476776,-0.4882812201976776
924113,0.002685546875,0.9993896484375,-0.1900634765625,13.854979515075684,0.6103515625,-0.0610351525247097
924129,0.0013427734375,0.9835205078125,-0.187255859375,13.427733421325684,0.6713866591453552,-0.0610351525247097
924157,-0.0032958984375,0.981689453125,-0.17724609375,12.207030296325684,0.7324218153953552,-0.1220703050494194
924179,-0.0047607421875,0.9720458984375,-0.173828125,11.230467796325684,0.7934569716453552,0.0
924195,-0.007568359375,0.9381103515625,-0.159912109375,10.681151390075684,0.8544921278953552,-0.1220703050494194
924212,-0.0091552734375,0.929931640625,-0.1505126953125,9.33837890625,0.7934569716453552,-0.54931640625
924229,-0.0089111328125,0.9378662109375,-0.1519775390625,7.873534679412842,0.7934569716453552,-0.9155272841453552
924245,-0.0076904296875,0.9373779296875,-0.1546630859375,7.202147960662842,0.7324218153953552,-0.9765624403953552
924279,-0.006591796875,0.952392578125,-0.156005859375,4.45556640625,0.6713866591453552,-1.6479490995407104
924343,-0.0018310546875,0.9541015625,-0.1512451171875,1.2817381620407104,0.7934569716453552,-1.7700194120407104
924359,-0.0015869140625,0.944580078125,-0.1458740234375,0.9155272841453552,0.7934569716453552,-1.8310545682907104
924391,0.0001220703125,0.94677734375,-0.14697265625,-0.3662109076976776,0.54931640625,-2.25830078125
924413,0.001708984375,0.958251953125,-0.153076171875,-0.8544921278953552,0.6103515625,-2.197265625
924430,0.0029296875,0.9599609375,-0.154296875,-0.9765624403953552,0.6103515625,-2.0751953125
924447,0.0042724609375,0.964599609375,-0.15625,-1.03759765625,0.6103515625,-2.01416015625
924465,0.0078125,0.9747314453125,-0.1558837890625,-1.0986328125,0.6713866591453552,-1.9531248807907104
924514,0.009521484375,0.97900390625,-0.1590576171875,-0.54931640625,0.7324218153953552,-1.220703125
924536,0.008056640625,0.963623046875,-0.1522216796875,-0.4882812201976776,0.7324218153953552,-1.220703125
924553,0.0069580078125,0.962890625,-0.150390625,-0.4272460639476776,0.7324218153953552,-1.2817381620407104
924570,0.00634765625,0.9681396484375,-0.1529541015625,-0.30517578125,0.6713866591453552,-1.220703125
924586,0.005859375,0.976806640625,-0.158447265625,-0.2441406100988388,0.6713866591453552,-1.0986328125
924603,0.0057373046875,0.96728515625,-0.160888671875,-0.1220703050494194,0.8544921278953552,-0.8544921278953552
924636,0.005615234375,0.9718017578125,-0.163330078125,-0.1831054538488388,0.9765624403953552,-0.6103515625
924653,0.00634765625,0.9669189453125,-0.1590576171875,-0.1220703050494194,1.0986328125,-0.3662109076976776
924674,0.0057373046875,0.9588623046875,-0.1556396484375,-0.1220703050494194,1.0986328125,-0.4272460639476776
924690,0.004638671875,0.9630126953125,-0.158203125,-0.1831054538488388,1.0986328125,-0.4882812201976776
924707,0.006103515625,0.958984375,-0.15087890625,-0.1220703050494194,1.0986328125,-0.1220703050494194
924724,0.0057373046875,0.915771484375,-0.13818359375,-0.1831054538488388,1.15966796875,0.0610351525247097
924757,0.003662109375,0.8653564453125,-0.1214599609375,-0.54931640625,1.03759765625,-0.4882812201976776
924774,0.0050048828125,0.894287109375,-0.134033203125,-0.2441406100988388,0.8544921278953552,-0.8544921278953552
924790,0.0064697265625,0.9097900390625,-0.1417236328125,0.2441406100988388,0.9155272841453552,-0.7324218153953552
924822,0.0025634765625,0.917724609375,-0.1494140625,1.8920897245407104,0.8544921278953552,-0.7324218153953552
924838,0.0048828125,0.9344482421875,-0.148193359375,2.929687261581421,0.7324218153953552,-0.9155272841453552
924854,0.0103759765625,0.9588623046875,-0.1519775390625,4.08935546875,0.8544921278953552,-0.4272460639476776
924870,0.0123291015625,0.956787109375,-0.1490478515625,4.69970703125,0.7934569716453552,-0.2441406100988388
924890,0.015380859375,0.9443359375,-0.1434326171875,5.859374523162842,0.7934569716453552,-0.0610351525247097
924906,0.0194091796875,0.9046630859375,-0.1214599609375,6.713866710662842,0.6713866591453552,-0.1220703050494194
924922,0.0206298828125,0.9150390625,-0.1153564453125,6.896972179412842,0.4882812201976776,-0.4882812201976776
924935,0.02001953125,0.9354248046875,-0.11328125,7.324218273162842,0.30517578125,-0.6103515625
924989,0.02294921875,0.924560546875,-0.1212158203125,8.544921875,-0.1220703050494194,0.30517578125
925007,0.02978515625,0.9400634765625,-0.1219482421875,8.544921875,-0.1220703050494194,0.1831054538488388
925023,0.0325927734375,0.94873046875,-0.114990234375,8.544921875,-0.1831054538488388,0.4882812201976776
925056,0.0284423828125,0.962646484375,-0.09912109375,8.60595703125,-0.54931640625,0.7934569716453552
925072,0.0260009765625,0.980224609375,-0.10595703125,8.97216796875,-0.7324218153953552,1.03759765625
925089,0.0247802734375,0.9549560546875,-0.103271484375,9.33837890625,-0.7934569716453552,1.8310545682907104
925118,0.02197265625,0.8682861328125,-0.0814208984375,8.6669921875,-1.0986328125,1.15966796875
925139,0.022705078125,0.890869140625,-0.0823974609375,8.056640625,-1.4038084745407104,0.7324218153953552
925156,0.0262451171875,0.919677734375,-0.083740234375,7.812499523162842,-1.4648436307907104,0.7324218153953552
925173,0.0274658203125,0.9295654296875,-0.089111328125,7.751464366912842,-1.7089842557907104,0.9155272841453552
925190,0.0299072265625,0.920654296875,-0.09375,7.751464366912842,-2.0751953125,0.7324218153953552
925207,0.036865234375,0.97216796875,-0.1002197265625,7.812499523162842,-2.25830078125,1.03759765625
925240,0.04248046875,0.9385986328125,-0.1044921875,7.995604991912842,-2.50244140625,1.5869139432907104
925256,0.0426025390625,0.930419921875,-0.1182861328125,8.11767578125,-2.563476324081421,1.8920897245407104
925276,0.0362548828125,0.8968505859375,-0.1165771484375,8.11767578125,-2.50244140625,2.0751953125
925292,0.0316162109375,0.8787841796875,-0.111328125,7.873534679412842,-2.50244140625,1.9531248807907104
925314,0.0240478515625,0.885009765625,-0.103271484375,7.324218273162842,-2.50244140625,1.2817381620407104
925330,0.0189208984375,0.9091796875,-0.1002197265625,6.713866710662842,-2.50244140625,1.4648436307907104
925347,0.0113525390625,0.880615234375,-0.09423828125,6.347655773162842,-2.624511480331421,1.5869139432907104
925368,0.009033203125,0.8497314453125,-0.089599609375,5.187987804412842,-2.50244140625,1.0986328125
925384,0.010986328125,0.861083984375,-0.0723876953125,3.601073980331421,-2.50244140625,-0.1831054538488388
925401,0.0135498046875,0.89794921875,-0.0706787109375,2.13623046875,-2.685546636581421,-0.6103515625
925417,0.0185546875,0.9530029296875,-0.08984375,0.9765624403953552,-2.624511480331421,-0.1220703050494194
925434,0.0167236328125,0.9307861328125,-0.0987548828125,0.6713866591453552,-2.563476324081421,0.30517578125
925450,0.011474609375,0.888671875,-0.09765625,-0.0610351525247097,-2.25830078125,0.6103515625
925482,0.002197265625,0.84423828125,-0.0714111328125,-2.0751953125,-2.25830078125,-0.54931640625
925503,-0.0003662109375,0.914794921875,-0.0767822265625,-3.356933355331421,-2.50244140625,-0.9155272841453552
925520,0.0025634765625,1.0003662109375,-0.10888671875,-3.540038824081421,-2.624511480331421,-0.30517578125
925570,-0.006591796875,0.8189697265625,-0.086181640625,-3.662109136581421,-2.685546636581421,-1.0986328125
925613,0.0052490234375,0.951171875,-0.11376953125,-4.8828125,-3.234863042831421,-2.50244140625
925630,0.022705078125,1.0167236328125,-0.1351318359375,-4.8828125,-3.173827886581421,-2.197265625
925647,0.02783203125,1.025390625,-0.1494140625,-4.5166015625,-2.990722417831421,-1.4038084745407104
925697,0.019287109375,0.9434814453125,-0.1015625,-3.845214605331421,-2.868652105331421,-0.9155272841453552
925729,0.0101318359375,0.9459228515625,-0.1058349609375,-4.150390625,-3.051757574081421,-1.4038084745407104
925746,0.0086669921875,0.98681640625,-0.1119384765625,-4.7607421875,-3.173827886581421,-1.7700194120407104
925779,0.0030517578125,1.042724609375,-0.1317138671875,-5.0048828125,-3.112792730331421,-1.7089842557907104
925813,0.00732421875,1.041259765625,-0.120849609375,-4.82177734375,-2.624511480331421,-0.7324218153953552
925855,0.01220703125,1.09423828125,-0.1251220703125,-4.69970703125,-2.685546636581421,-0.6103515625
925872,0.0072021484375,1.0853271484375,-0.1502685546875,-3.784179449081421,-2.38037109375,0.2441406100988388
925889,0.00830078125,1.04833984375,-0.1602783203125,-3.234863042831421,-2.38037109375,0.30517578125
925909,0.0107421875,1.033447265625,-0.15966796875,-2.38037109375,-2.197265625,0.1831054538488388
925926,0.01171875,1.04150390625,-0.1563720703125,-1.7089842557907104,-1.9531248807907104,0.1831054538488388
925957,0.013427734375,0.98974609375,-0.14892578125,-0.54931640625,-2.01416015625,0.0610351525247097
925979,0.0140380859375,1.009521484375,-0.1510009765625,-0.30517578125,-2.01416015625,-0.3662109076976776
925995,0.019287109375,1.087890625,-0.1700439453125,0.6713866591453552,-1.8920897245407104,-0.4272460639476776
926012,0.0299072265625,1.1513671875,-0.1829833984375,2.0751953125,-1.6479490995407104,0.4882812201976776
926029,0.0479736328125,1.11962890625,-0.173095703125,2.929687261581421,-1.4648436307907104,0.9765624403953552
926045,0.0562744140625,1.101318359375,-0.1695556640625,3.967284917831421,-1.4038084745407104,1.2817381620407104
926077,0.068359375,1.1214599609375,-0.1822509765625,5.310058116912842,-1.15966796875,1.5869139432907104
926099,0.07080078125,1.142578125,-0.179931640625,5.676269054412842,-1.0986328125,1.8920897245407104
926115,0.067138671875,1.182861328125,-0.1900634765625,6.774901866912842,-0.8544921278953552,2.868652105331421
926132,0.0543212890625,1.15234375,-0.1785888671875,7.751464366912842,-0.6713866591453552,4.0283203125
926149,0.04052734375,1.0804443359375,-0.1669921875,7.995604991912842,-0.54931640625,4.21142578125
926165,0.03369140625,1.046630859375,-0.1552734375,8.1787109375,-0.30517578125,4.33349609375
926198,0.0089111328125,1.0484619140625,-0.118896484375,7.324218273162842,-0.4272460639476776,2.929687261581421
926215,0.0059814453125,1.049072265625,-0.1212158203125,7.324218273162842,-0.4882812201976776,2.868652105331421
926231,0.000244140625,1.052490234375,-0.1326904296875,7.446288585662842,-0.3662109076976776,2.563476324081421
926267,-0.008544921875,1.008056640625,-0.1065673828125,7.385253429412842,-0.1220703050494194,1.3427733182907104
926283,-0.009765625,1.010009765625,-0.100830078125,6.896972179412842,-0.2441406100988388,0.6103515625
926299,-0.01025390625,1.0010986328125,-0.0992431640625,6.408690929412842,-0.2441406100988388,0.1831054538488388
926315,-0.01025390625,0.98486328125,-0.0986328125,5.981444835662842,-0.2441406100988388,0.0
926332,-0.00927734375,0.9351806640625,-0.0997314453125,5.187987804412842,-0.30517578125,-0.9155272841453552
926353,-0.005126953125,0.958740234375,-0.109130859375,4.39453125,-0.2441406100988388,-2.0751953125
926369,-0.0015869140625,0.9915771484375,-0.11181640625,4.08935546875,-0.1831054538488388,-2.38037109375
926386,-0.00048828125,1.01708984375,-0.1165771484375,3.784179449081421,-0.2441406100988388,-2.807616949081421
926403,0.00341796875,1.0128173828125,-0.111083984375,3.784179449081421,-0.1220703050494194,-2.807616949081421
926436,0.010498046875,0.9932861328125,-0.10546875,3.479003667831421,-0.1831054538488388,-4.0283203125
926453,0.01611328125,1.0303955078125,-0.109130859375,3.112792730331421,-0.30517578125,-4.45556640625
926469,0.0220947265625,1.0478515625,-0.111572265625,2.990722417831421,-0.2441406100988388,-4.150390625
926497,0.027099609375,1.037841796875,-0.12109375,2.990722417831421,-0.30517578125,-4.08935546875
926519,0.0281982421875,1.0269775390625,-0.1181640625,3.112792730331421,-0.1220703050494194,-3.601073980331421
926535,0.0284423828125,0.9901123046875,-0.1051025390625,2.746581792831421,-0.0610351525247097,-3.356933355331421
926552,0.041015625,1.2415771484375,-0.1197509765625,2.197265625,0.0,-3.356933355331421
926569,0.057861328125,1.7777099609375,-0.1932373046875,1.3427733182907104,0.54931640625,1.9531248807907104
926585,0.025634765625,1.1268310546875,-0.1162109375,-0.30517578125,0.7934569716453552,5.798339366912842
926651,0.0316162109375,1.1038818359375,-0.098388671875,0.4272460639476776,0.0,0.1220703050494194
926693,0.0213623046875,0.875244140625,-0.074951171875,3.051757574081421,-0.1220703050494194,1.2817381620407104
926714,0.0196533203125,0.9547119140625,-0.0849609375,2.746581792831421,-0.4272460639476776,0.1831054538488388
926734,0.0250244140625,1.060546875,-0.1256103515625,3.906249761581421,-0.30517578125,0.7324218153953552
926755,0.0272216796875,0.948486328125,-0.104248046875,4.39453125,-0.1831054538488388,0.7324218153953552
926771,0.02685546875,0.97607421875,-0.09130859375,4.638671875,-0.0610351525247097,0.4272460639476776
926792,0.025146484375,1.0087890625,-0.0797119140625,4.69970703125,-0.1831054538488388,0.9155272841453552
926809,0.0224609375,0.9622802734375,-0.073486328125,4.638671875,-0.2441406100988388,1.03759765625
926825,0.021484375,0.9759521484375,-0.0909423828125,4.7607421875,-0.4882812201976776,0.7934569716453552
926861,0.0263671875,0.96435546875,-0.0849609375,5.249022960662842,-0.1831054538488388,0.8544921278953552
926877,0.0242919921875,0.976318359375,-0.0738525390625,5.126952648162842,-0.2441406100988388,0.6713866591453552
926893,0.0206298828125,0.9925537109375,-0.068603515625,4.5166015625,-0.3662109076976776,0.4882812201976776
926909,0.0247802734375,0.9801025390625,-0.0692138671875,4.21142578125,-0.3662109076976776,0.3662109076976776
926930,0.02734375,0.9925537109375,-0.0855712890625,3.601073980331421,-0.3662109076976776,0.2441406100988388
926951,0.0255126953125,0.985107421875,-0.08544921875,3.662109136581421,-0.2441406100988388,0.3662109076976776
926967,0.0224609375,0.9752197265625,-0.0625,3.295898199081421,-0.3662109076976776,0.30517578125
926984,0.01904296875,0.983642578125,-0.0748291015625,2.990722417831421,-0.3662109076976776,0.4272460639476776
927001,0.0286865234375,0.983154296875,-0.05419921875,2.13623046875,-0.1831054538488388,0.3662109076976776
927034,0.02490234375,0.9852294921875,-0.07177734375,0.9155272841453552,-0.30517578125,0.3662109076976776
927052,0.0205078125,0.982177734375,-0.079345703125,0.6103515625,-0.0610351525247097,0.3662109076976776
927068,0.021484375,0.98486328125,-0.0679931640625,0.4882812201976776,-0.0610351525247097,0.3662109076976776
927100,0.025634765625,0.9852294921875,-0.065185546875,-0.4272460639476776,-0.1831054538488388,0.30517578125
927116,0.0242919921875,0.9822998046875,-0.0738525390625,-1.0986328125,-0.1831054538488388,0.3662109076976776
927132,0.0220947265625,0.9840087890625,-0.07470703125,-1.5258787870407104,-0.1831054538488388,0.30517578125
927148,0.021484375,0.9842529296875,-0.079833984375,-1.7089842557907104,-0.1831054538488388,0.3662109076976776
927168,0.0245361328125,0.98486328125,-0.0723876953125,-2.01416015625,-0.0610351525247097,0.3662109076976776
927190,0.02392578125,0.984375,-0.070068359375,-2.44140625,-0.0610351525247097,0.4272460639476776
927206,0.0220947265625,0.983642578125,-0.0721435546875,-2.868652105331421,-0.1831054538488388,0.54931640625
927223,0.02294921875,0.982666015625,-0.0787353515625,-3.051757574081421,-0.1220703050494194,0.54931640625
927273,0.021484375,0.981689453125,-0.083251953125,-3.601073980331421,0.0,0.4882812201976776
927289,0.021240234375,0.9820556640625,-0.0811767578125,-3.723144292831421,0.0,0.4272460639476776
927306,0.02490234375,0.985595703125,-0.08642578125,-3.906249761581421,-0.1220703050494194,0.4272460639476776
927338,0.02294921875,0.9832763671875,-0.0902099609375,-4.0283203125,0.0,0.4882812201976776
927354,0.0213623046875,0.984130859375,-0.091796875,-3.906249761581421,-0.0610351525247097,0.4882812201976776
927370,0.0225830078125,0.9832763671875,-0.0947265625,-3.784179449081421,-0.0610351525247097,0.4882812201976776
927403,0.0223388671875,0.9835205078125,-0.0975341796875,-3.540038824081421,-0.1220703050494194,0.4272460639476776
927424,0.0220947265625,0.9830322265625,-0.0986328125,-3.479003667831421,-0.1220703050494194,0.4272460639476776
927440,0.02197265625,0.982666015625,-0.099365234375,-3.356933355331421,-0.1220703050494194,0.4882812201976776
927457,0.021484375,0.9818115234375,-0.1011962890625,-3.234863042831421,-0.1220703050494194,0.4882812201976776
927474,0.020751953125,0.9815673828125,-0.1044921875,-3.051757574081421,-0.1831054538488388,0.4272460639476776
927490,0.021484375,0.9835205078125,-0.10546875,-2.563476324081421,-0.1220703050494194,0.3662109076976776
927528,0.0225830078125,0.9825439453125,-0.1072998046875,-1.7089842557907104,-0.1220703050494194,0.3662109076976776
927544,0.0194091796875,0.983154296875,-0.1077880859375,-1.220703125,-0.1831054538488388,0.3662109076976776
927560,0.0198974609375,0.9815673828125,-0.1075439453125,-1.03759765625,-0.1831054538488388,0.3662109076976776
927576,0.0223388671875,0.981689453125,-0.1085205078125,-0.6713866591453552,-0.1831054538488388,0.30517578125
927598,0.0223388671875,0.9832763671875,-0.107421875,-0.3662109076976776,-0.2441406100988388,0.30517578125
927614,0.0205078125,0.979736328125,-0.1075439453125,-0.30517578125,-0.2441406100988388,0.3662109076976776
927631,0.0203857421875,0.981201171875,-0.108154296875,-0.0610351525247097,-0.1831054538488388,0.3662109076976776
927648,0.0213623046875,0.9810791015625,-0.1077880859375,0.1831054538488388,-0.1831054538488388,0.2441406100988388
927664,0.0228271484375,0.980712890625,-0.1070556640625,0.2441406100988388,-0.1831054538488388,0.2441406100988388
927697,0.0216064453125,0.9805908203125,-0.106689453125,0.4882812201976776,-0.1831054538488388,0.2441406100988388
927719,0.0211181640625,0.982666015625,-0.1064453125,0.6103515625,-0.1831054538488388,0.2441406100988388
927735,0.020751953125,0.9814453125,-0.10546875,0.6103515625,-0.1220703050494194,0.2441406100988388
927752,0.020751953125,0.9815673828125,-0.104736328125,0.6713866591453552,-0.1220703050494194,0.2441406100988388
927770,0.0213623046875,0.9793701171875,-0.1036376953125,0.6103515625,-0.1831054538488388,0.2441406100988388
927786,0.0211181640625,0.9820556640625,-0.103759765625,0.54931640625,-0.2441406100988388,0.1831054538488388
927820,0.02197265625,0.9808349609375,-0.10595703125,0.54931640625,-0.1831054538488388,0.1220703050494194
927888,0.0240478515625,0.9837646484375,-0.1492919921875,2.25830078125,-0.6713866591453552,-4.82177734375
927904,0.0125732421875,1.1392822265625,-0.197998046875,4.57763671875,-1.2817381620407104,-6.286620616912842
927920,0.017578125,1.3018798828125,-0.277587890625,5.798339366912842,-1.03759765625,-4.638671875
927936,0.0623779296875,1.4549560546875,-0.357666015625,7.690429210662842,0.4882812201976776,0.4882812201976776
927952,0.0582275390625,1.4063720703125,-0.3582763671875,8.1787109375,1.3427733182907104,1.0986328125
927968,0.0474853515625,1.374755859375,-0.29833984375,7.446288585662842,2.746581792831421,1.6479490995407104
928000,0.0076904296875,1.1944580078125,-0.1414794921875,3.784179449081421,2.990722417831421,1.220703125
928021,0.0086669921875,1.2784423828125,-0.1094970703125,0.6713866591453552,2.3193359375,0.1220703050494194
928037,0.03369140625,1.381103515625,-0.1181640625,-0.2441406100988388,2.13623046875,0.2441406100988388
928054,0.0389404296875,1.4520263671875,-0.174560546875,-1.4648436307907104,1.8310545682907104,0.7324218153953552
928071,0.0335693359375,1.4637451171875,-0.187744140625,-2.0751953125,2.25830078125,1.6479490995407104
928087,0.013916015625,1.4119873046875,-0.1761474609375,-2.0751953125,2.624511480331421,2.01416015625
928108,-0.0018310546875,1.33935546875,-0.1243896484375,-4.150390625,3.112792730331421,2.0751953125
928127,0.0030517578125,1.2808837890625,-0.0986328125,-5.859374523162842,2.685546636581421,1.4038084745407104
928147,0.0164794921875,1.2767333984375,-0.133544921875,-7.202147960662842,2.197265625,0.4272460639476776
928179,0.0325927734375,1.421875,-0.18701171875,-6.408690929412842,2.929687261581421,1.9531248807907104
928200,0.030517578125,1.3514404296875,-0.164794921875,-6.347655773162842,3.234863042831421,2.38037109375
928216,0.0228271484375,1.339111328125,-0.1414794921875,-6.530761241912842,3.173827886581421,2.38037109375
928233,0.0191650390625,1.333251953125,-0.141845703125,-6.958007335662842,3.173827886581421,3.356933355331421
928250,0.0185546875,1.2354736328125,-0.12646484375,-7.690429210662842,3.173827886581421,4.21142578125
928300,0.018798828125,1.196533203125,-0.148681640625,-8.72802734375,2.990722417831421,3.845214605331421
928316,0.007080078125,1.1243896484375,-0.1551513671875,-8.23974609375,3.112792730331421,4.21142578125
928332,0.003173828125,1.09521484375,-0.1488037109375,-7.995604991912842,3.173827886581421,4.08935546875
928348,-0.0028076171875,1.0296630859375,-0.1456298828125,-7.812499523162842,3.173827886581421,3.845214605331421
928368,-0.0018310546875,0.978515625,-0.1324462890625,-7.873534679412842,3.295898199081421,4.21142578125
928390,0.0052490234375,0.843505859375,-0.1175537109375,-8.11767578125,3.356933355331421,4.45556640625
928406,0.0087890625,0.7099609375,-0.105224609375,-8.4228515625,3.295898199081421,4.150390625
928423,0.009521484375,0.665283203125,-0.0986328125,-9.09423828125,3.356933355331421,3.417968511581421
928440,0.007568359375,0.5899658203125,-0.0843505859375,-9.3994140625,3.356933355331421,3.234863042831421
928473,0.00537109375,0.5303955078125,-0.0716552734375,-10.803221702575684,3.173827886581421,1.9531248807907104
928490,0.0048828125,0.53125,-0.078369140625,-10.986327171325684,3.112792730331421,1.9531248807907104
928506,0.0054931640625,0.50927734375,-0.0806884765625,-10.681151390075684,3.173827886581421,2.38037109375
928538,0.0050048828125,0.46435546875,-0.08251953125,-10.437010765075684,2.929687261581421,1.4038084745407104
928554,0.0067138671875,0.531005859375,-0.0953369140625,-10.192870140075684,2.868652105331421,1.0986328125
928570,0.0078125,0.56787109375,-0.1002197265625,-9.33837890625,2.929687261581421,1.0986328125
928602,0.0089111328125,0.6529541015625,-0.096435546875,-8.1787109375,3.112792730331421,1.7089842557907104
928650,0.00732421875,0.570556640625,-0.0633544921875,-10.620116233825684,2.929687261581421,2.807616949081421
928671,0.012939453125,0.55859375,-0.07373046875,-12.695311546325684,2.746581792831421,2.0751953125
928688,0.0169677734375,0.623046875,-0.088134765625,-13.671874046325684,2.746581792831421,1.8920897245407104
928721,0.009033203125,0.70654296875,-0.1356201171875,-15.686034202575684,2.868652105331421,2.13623046875
928738,-0.001708984375,0.7354736328125,-0.1571044921875,-15.747069358825684,2.990722417831421,1.8920897245407104
928754,-0.0059814453125,0.76171875,-0.162353515625,-15.563963890075684,3.051757574081421,1.5258787870407104
928770,-0.0125732421875,0.847412109375,-0.1658935546875,-15.258788108825684,3.112792730331421,1.220703125
928790,-0.0242919921875,0.881103515625,-0.167724609375,-15.136717796325684,2.929687261581421,1.03759765625
928806,-0.0352783203125,0.8782958984375,-0.1722412109375,-15.075682640075684,2.929687261581421,0.8544921278953552
928822,-0.0367431640625,0.8876953125,-0.180908203125,-15.136717796325684,2.624511480331421,-0.2441406100988388
928838,-0.0367431640625,0.930908203125,-0.1995849609375,-15.075682640075684,2.563476324081421,-0.9155272841453552
928859,-0.037841796875,0.9420166015625,-0.207763671875,-14.831542015075684,2.563476324081421,-1.03759765625
928875,-0.035888671875,0.9093017578125,-0.2081298828125,-14.221190452575684,2.624511480331421,-1.5258787870407104
928892,-0.0291748046875,0.9254150390625,-0.21044921875,-13.488768577575684,2.38037109375,-2.38037109375
928909,-0.0150146484375,0.9366455078125,-0.20458984375,-13.061522483825684,2.3193359375,-2.3193359375
928925,-0.00830078125,0.9114990234375,-0.1949462890625,-12.145995140075684,2.25830078125,-2.197265625
928959,0.005615234375,0.895263671875,-0.189697265625,-10.498045921325684,1.4038084745407104,-3.479003667831421
928975,0.009521484375,0.9256591796875,-0.204345703125,-9.8876953125,1.220703125,-3.540038824081421
928991,0.0169677734375,0.9766845703125,-0.22998046875,-8.36181640625,1.0986328125,-3.051757574081421
929027,0.02734375,1.0047607421875,-0.2615966796875,-4.2724609375,0.9155272841453552,-2.197265625
929075,0.0228271484375,0.9849853515625,-0.262939453125,0.0,0.9155272841453552,-1.2817381620407104
929092,0.018798828125,0.981201171875,-0.267578125,2.13623046875,0.9155272841453552,-1.0986328125
929113,0.0130615234375,0.991455078125,-0.2763671875,4.33349609375,0.9765624403953552,-0.9155272841453552
929129,0.0087890625,0.993896484375,-0.283935546875,5.554198741912842,1.03759765625,-0.6103515625
929146,0.0059814453125,0.97705078125,-0.2828369140625,7.995604991912842,1.2817381620407104,-0.0610351525247097
929163,-0.0001220703125,0.9384765625,-0.2646484375,9.94873046875,1.4038084745407104,-0.1220703050494194
929196,0.003173828125,0.932373046875,-0.24462890625,11.596678733825684,1.3427733182907104,-0.4272460639476776
929217,0.0028076171875,0.929443359375,-0.242919921875,12.207030296325684,1.220703125,-0.30517578125
929233,0.001953125,0.93115234375,-0.2412109375,12.573241233825684,1.15966796875,-0.54931640625
929249,0.005615234375,0.9508056640625,-0.242919921875,12.634276390075684,0.9765624403953552,-0.9155272841453552
929268,0.0125732421875,0.99169921875,-0.2454833984375,12.451170921325684,0.8544921278953552,-0.9765624403953552
929293,0.0123291015625,1.0072021484375,-0.248046875,12.145995140075684,0.9765624403953552,-0.4272460639476776
929359,0.0120849609375,0.956787109375,-0.2099609375,9.521484375,0.8544921278953552,-0.0610351525247097
929393,0.002685546875,0.9046630859375,-0.1826171875,8.36181640625,0.6713866591453552,-0.1831054538488388
929410,-0.0035400390625,0.913330078125,-0.1856689453125,8.11767578125,0.6103515625,-0.30517578125
929427,-0.0057373046875,0.9168701171875,-0.187255859375,7.995604991912842,0.4272460639476776,-0.30517578125
929477,-0.00439453125,0.941162109375,-0.19921875,7.934569835662842,0.0,-0.8544921278953552
929509,0.00146484375,0.9757080078125,-0.198486328125,7.629394054412842,0.0,-0.1220703050494194
929526,0.0032958984375,0.9635009765625,-0.19482421875,7.202147960662842,-0.1831054538488388,-0.1220703050494194
929559,0.0078125,0.986572265625,-0.1976318359375,6.530761241912842,-0.4882812201976776,-0.54931640625
929593,0.0052490234375,0.9962158203125,-0.20556640625,6.896972179412842,-0.7934569716453552,-0.4272460639476776
929635,0.001708984375,0.99609375,-0.2081298828125,7.934569835662842,-0.9155272841453552,0.1220703050494194
929652,0.0040283203125,0.96923828125,-0.203857421875,8.1787109375,-0.9155272841453552,0.2441406100988388
929668,0.005615234375,0.964599609375,-0.19677734375,8.1787109375,-0.9155272841453552,0.2441406100988388
929689,0.0037841796875,0.94580078125,-0.1724853515625,7.934569835662842,-1.0986328125,0.3662109076976776
929705,0.0008544921875,0.9385986328125,-0.166015625,7.141112804412842,-1.220703125,0.1831054538488388
929722,-0.003662109375,0.93017578125,-0.164306640625,6.103515148162842,-1.4648436307907104,-0.1831054538488388
929739,-0.005126953125,0.947021484375,-0.1700439453125,5.615233898162842,-1.5258787870407104,-0.30517578125
929760,-0.006591796875,0.9461669921875,-0.1690673828125,4.57763671875,-1.5869139432907104,-0.30517578125
929776,-0.0111083984375,0.93408203125,-0.1685791015625,3.417968511581421,-1.5869139432907104,-0.6103515625
929793,-0.01318359375,0.9300537109375,-0.162353515625,2.746581792831421,-1.5869139432907104,-0.8544921278953552
929810,-0.0128173828125,0.936279296875,-0.1610107421875,1.5258787870407104,-1.7089842557907104,-1.2817381620407104
929826,-0.012451171875,0.93896484375,-0.1595458984375,0.54931640625,-1.8310545682907104,-1.7700194120407104
929860,-0.0078125,0.9678955078125,-0.17431640625,-0.9155272841453552,-2.0751953125,-2.38037109375
929876,-0.0047607421875,0.9840087890625,-0.1795654296875,-1.03759765625,-2.01416015625,-2.44140625
929892,0.0020751953125,1.0078125,-0.1832275390625,-1.03759765625,-1.9531248807907104,-2.3193359375
929908,0.0067138671875,1.014892578125,-0.18603515625,-0.9155272841453552,-1.9531248807907104,-2.197265625
929928,0.01416015625,1.028076171875,-0.1885986328125,-0.6103515625,-1.8920897245407104,-1.8920897245407104
929944,0.01806640625,1.0391845703125,-0.1929931640625,-0.0610351525247097,-1.7089842557907104,-1.2817381620407104
929976,0.024658203125,1.0111083984375,-0.1776123046875,0.2441406100988388,-1.4648436307907104,-0.0610351525247097
929993,0.0279541015625,1.00439453125,-0.1710205078125,0.1831054538488388,-1.4038084745407104,0.54931640625
930014,0.028076171875,1.00439453125,-0.16943359375,0.0610351525247097,-1.4038084745407104,0.9765624403953552
930030,0.0281982421875,0.985595703125,-0.1591796875,-0.2441406100988388,-1.2817381620407104,1.7700194120407104
930047,0.0267333984375,0.97509765625,-0.159423828125,-0.9155272841453552,-1.3427733182907104,2.38037109375
930064,0.0242919921875,0.95849609375,-0.157958984375,-1.220703125,-1.4648436307907104,2.44140625
930097,0.025390625,1.0201416015625,-0.178955078125,-1.9531248807907104,-1.6479490995407104,2.746581792831421
930113,0.0264892578125,1.03662109375,-0.1964111328125,-1.4648436307907104,-1.5869139432907104,3.417968511581421
930129,0.0255126953125,1.0230712890625,-0.1981201171875,-1.15966796875,-1.5258787870407104,3.540038824081421
930162,0.015869140625,0.9893798828125,-0.1932373046875,0.1831054538488388,-1.220703125,3.784179449081421
930183,0.0137939453125,0.967529296875,-0.1834716796875,0.3662109076976776,-1.2817381620407104,3.784179449081421
930199,0.00927734375,0.940673828125,-0.167236328125,0.6103515625,-1.4648436307907104,3.295898199081421
930216,0.0062255859375,0.9398193359375,-0.1630859375,0.6713866591453552,-1.6479490995407104,3.051757574081421
930233,0.005126953125,0.92236328125,-0.15869140625,0.7934569716453552,-1.7700194120407104,2.929687261581421
930249,0.004150390625,0.909912109375,-0.160400390625,0.7934569716453552,-2.01416015625,2.50244140625
930287,0.0023193359375,0.9287109375,-0.174560546875,0.6103515625,-2.25830078125,1.7089842557907104
930303,0.0029296875,0.91357421875,-0.1785888671875,0.8544921278953552,-2.3193359375,1.3427733182907104
930319,0.003173828125,0.911376953125,-0.1790771484375,1.0986328125,-2.44140625,1.03759765625
930335,0.0010986328125,0.9217529296875,-0.1790771484375,1.5258787870407104,-2.38037109375,0.6103515625
930357,0.0010986328125,0.9212646484375,-0.172119140625,2.0751953125,-2.38037109375,0.2441406100988388
930373,0.0054931640625,0.9117431640625,-0.160888671875,2.3193359375,-2.50244140625,0.0
930390,0.0062255859375,0.917724609375,-0.1591796875,2.807616949081421,-2.807616949081421,-0.54931640625
930407,0.0069580078125,0.9434814453125,-0.166748046875,3.479003667831421,-2.929687261581421,-0.7934569716453552
930423,0.01171875,0.95654296875,-0.1788330078125,3.906249761581421,-2.990722417831421,-0.8544921278953552
930456,0.020263671875,0.987060546875,-0.1895751953125,6.591796398162842,-2.929687261581421,-1.15966796875
930473,0.0208740234375,0.998291015625,-0.183837890625,8.11767578125,-2.746581792831421,-0.7934569716453552
930489,0.0203857421875,0.9915771484375,-0.1806640625,8.7890625,-2.746581792831421,-0.6103515625
930522,0.018310546875,0.9317626953125,-0.1531982421875,10.253905296325684,-2.685546636581421,-0.4882812201976776
930543,0.017822265625,0.9197998046875,-0.1451416015625,10.986327171325684,-2.746581792831421,-0.4272460639476776
930559,0.0155029296875,0.9027099609375,-0.1314697265625,11.474608421325684,-2.868652105331421,-0.7934569716453552
930576,0.0137939453125,0.9169921875,-0.1195068359375,11.657713890075684,-2.868652105331421,-0.8544921278953552
930593,0.013671875,0.9229736328125,-0.1199951171875,12.084959983825684,-3.112792730331421,-0.7324218153953552
930609,0.013427734375,0.913818359375,-0.1209716796875,12.329100608825684,-3.173827886581421,-0.3662109076976776
930646,0.0101318359375,0.8780517578125,-0.1170654296875,12.451170921325684,-3.112792730331421,-0.4882812201976776
930663,0.0068359375,0.876220703125,-0.106201171875,12.512206077575684,-2.990722417831421,-0.4882812201976776
930679,0.00439453125,0.880859375,-0.10400390625,12.390135765075684,-3.051757574081421,-0.4882812201976776
930695,0.0003662109375,0.88720703125,-0.10498046875,12.329100608825684,-3.051757574081421,-0.54931640625
930717,-0.002197265625,0.8988037109375,-0.1053466796875,12.329100608825684,-2.929687261581421,-0.4882812201976776
930733,-0.0035400390625,0.9088134765625,-0.10400390625,12.329100608825684,-2.868652105331421,-0.30517578125
930750,-0.00390625,0.8935546875,-0.1014404296875,12.268065452575684,-2.563476324081421,0.2441406100988388
930767,-0.0045166015625,0.83203125,-0.086181640625,12.023924827575684,-2.44140625,0.2441406100988388
930783,-0.0030517578125,0.8118896484375,-0.0748291015625,11.108397483825684,-2.38037109375,-0.30517578125
930817,0.00048828125,0.927001953125,-0.07763671875,9.1552734375,-2.25830078125,-0.9155272841453552
930834,-0.000732421875,0.96484375,-0.0743408203125,8.72802734375,-2.197265625,-0.1220703050494194
930854,0.003173828125,0.927001953125,-0.0643310546875,8.30078125,-2.13623046875,0.54931640625
930874,0.0067138671875,0.8858642578125,-0.071044921875,7.690429210662842,-2.13623046875,0.6103515625
930942,0.01220703125,0.966796875,-0.0654296875,6.530761241912842,-2.197265625,1.220703125
930958,0.0052490234375,0.876708984375,-0.0582275390625,6.286620616912842,-2.44140625,2.01416015625
930974,-0.001953125,0.76806640625,-0.0701904296875,5.371093273162842,-2.50244140625,1.0986328125
930990,-0.0023193359375,0.758544921875,-0.074462890625,4.82177734375,-2.563476324081421,0.2441406100988388
931010,-0.0035400390625,0.8406982421875,-0.088134765625,4.39453125,-2.44140625,-0.54931640625
931026,0.0020751953125,0.9222412109375,-0.0941162109375,4.7607421875,-2.563476324081421,-0.1220703050494194
931042,0.0035400390625,0.9263916015625,-0.096435546875,5.187987804412842,-2.44140625,0.6713866591453552
931058,0.00048828125,0.787109375,-0.07373046875,5.310058116912842,-2.44140625,0.8544921278953552
931074,-0.0008544921875,0.7076416015625,-0.0625,4.150390625,-2.685546636581421,-0.8544921278953552
931090,0.0013427734375,0.723388671875,-0.0611572265625,3.540038824081421,-2.807616949081421,-1.6479490995407104
931122,0.01318359375,0.9158935546875,-0.0770263671875,2.807616949081421,-3.234863042831421,-2.624511480331421
931138,0.014404296875,1.0106201171875,-0.107421875,4.08935546875,-3.112792730331421,-1.03759765625
931154,0.0101318359375,0.9034423828125,-0.111083984375,4.82177734375,-3.051757574081421,-0.30517578125
931170,0.00830078125,0.831787109375,-0.10546875,5.310058116912842,-2.868652105331421,-0.7934569716453552
931189,0.0054931640625,0.78662109375,-0.101806640625,5.126952648162842,-3.051757574081421,-2.563476324081421
931210,0.0054931640625,0.8880615234375,-0.11328125,5.432128429412842,-3.356933355331421,-3.845214605331421
931227,0.009765625,0.98828125,-0.144775390625,6.042479991912842,-3.356933355331421,-3.723144292831421
931248,0.013671875,1.0035400390625,-0.1466064453125,7.812499523162842,-3.051757574081421,-2.929687261581421
931264,0.016845703125,0.87109375,-0.11279296875,8.97216796875,-2.990722417831421,-3.051757574081421
931281,0.016845703125,0.879638671875,-0.1083984375,8.9111328125,-3.234863042831421,-4.5166015625
931297,0.0189208984375,0.9146728515625,-0.0953369140625,8.7890625,-3.479003667831421,-5.310058116912842
931313,0.020263671875,0.9495849609375,-0.1011962890625,8.7890625,-3.601073980331421,-5.554198741912842
931329,0.0267333984375,0.988525390625,-0.11181640625,9.21630859375,-3.723144292831421,-5.493163585662842
931359,0.0400390625,0.94482421875,-0.124755859375,9.82666015625,-3.723144292831421,-6.408690929412842
931380,0.0447998046875,1.0185546875,-0.1287841796875,9.82666015625,-3.540038824081421,-6.896972179412842
931396,0.0390625,1.03515625,-0.101318359375,9.8876953125,-3.479003667831421,-6.713866710662842
931413,0.038330078125,1.032470703125,-0.093017578125,9.58251953125,-3.601073980331421,-6.713866710662842
931430,0.043701171875,1.0491943359375,-0.0850830078125,9.1552734375,-3.662109136581421,-6.896972179412842
931446,0.052001953125,1.1126708984375,-0.105224609375,8.48388671875,-3.784179449081421,-7.263183116912842
931477,0.06298828125,1.1822509765625,-0.1395263671875,8.544921875,-3.295898199081421,-5.554198741912842
931499,0.065185546875,1.1661376953125,-0.1405029296875,8.7890625,-3.173827886581421,-4.94384765625
931515,0.0625,1.0718994140625,-0.10888671875,8.85009765625,-2.746581792831421,-4.33349609375
931532,0.0633544921875,1.0537109375,-0.087646484375,7.995604991912842,-2.50244140625,-4.7607421875
931549,0.072265625,1.1551513671875,-0.071044921875,7.263183116912842,-2.563476324081421,-5.0048828125
931565,0.0760498046875,1.1995849609375,-0.0594482421875,6.347655773162842,-2.50244140625,-3.967284917831421
931598,0.066650390625,1.157470703125,-0.05859375,5.371093273162842,-2.44140625,-2.0751953125
931615,0.0601806640625,1.1396484375,-0.05029296875,5.126952648162842,-2.44140625,-2.0751953125
931631,0.0604248046875,1.162353515625,-0.048828125,4.33349609375,-2.38037109375,-2.13623046875
931667,0.06982421875,1.2242431640625,-0.0396728515625,4.69970703125,-2.197265625,-0.30517578125
931683,0.0640869140625,1.19775390625,-0.0411376953125,4.82177734375,-2.197265625,0.1831054538488388
931699,0.0484619140625,1.130126953125,-0.03564453125,4.82177734375,-1.8920897245407104,0.3662109076976776
931715,0.0396728515625,1.1387939453125,-0.021484375,4.45556640625,-1.8310545682907104,0.1831054538488388
931732,0.0374755859375,1.157470703125,-0.026611328125,3.479003667831421,-1.8310545682907104,0.54931640625
931753,0.040771484375,1.181396484375,-0.0263671875,2.990722417831421,-1.6479490995407104,1.3427733182907104
931769,0.0460205078125,1.1875,-0.0299072265625,2.990722417831421,-1.4648436307907104,1.8310545682907104
931786,0.0509033203125,1.1761474609375,-0.0120849609375,2.197265625,-1.0986328125,3.051757574081421
931803,0.0511474609375,1.1302490234375,-0.011474609375,2.13623046875,-1.03759765625,3.479003667831421
931836,0.0523681640625,1.09814453125,-0.0086669921875,0.30517578125,-0.6713866591453552,4.33349609375
931853,0.053955078125,1.0955810546875,0.0010986328125,-0.1831054538488388,-0.4272460639476776,5.0048828125
931869,0.048095703125,1.0303955078125,0.0009765625,-1.4038084745407104,-0.2441406100988388,5.615233898162842
931902,0.0421142578125,0.9854736328125,0.0179443359375,-3.112792730331421,-0.1220703050494194,5.493163585662842
931923,0.04443359375,1.001953125,0.0220947265625,-4.21142578125,-0.1831054538488388,5.0048828125
931939,0.046630859375,1.074951171875,0.0057373046875,-4.45556640625,-0.1831054538488388,5.0048828125
931956,0.047119140625,1.098876953125,0.0006103515625,-4.94384765625,-0.3662109076976776,5.798339366912842
931973,0.0380859375,1.0721435546875,-0.02734375,-4.45556640625,-0.1831054538488388,6.958007335662842
931989,0.033447265625,0.9658203125,-0.0147705078125,-4.57763671875,-0.1220703050494194,6.896972179412842
932027,0.027587890625,0.9854736328125,-0.016845703125,-5.432128429412842,-0.1220703050494194,5.126952648162842
932043,0.0257568359375,0.998046875,-0.024169921875,-5.615233898162842,-0.1831054538488388,4.82177734375
932075,0.019775390625,0.937255859375,-0.02294921875,-4.82177734375,-0.2441406100988388,3.479003667831421
932092,0.0196533203125,0.9774169921875,-0.0274658203125,-4.5166015625,-0.3662109076976776,2.38037109375
932113,0.017578125,0.9974365234375,-0.03369140625,-3.906249761581421,-0.4272460639476776,2.25830078125
932129,0.01416015625,0.9488525390625,-0.0467529296875,-3.845214605331421,-0.4272460639476776,2.3193359375
932146,0.03662109375,1.103515625,-0.108154296875,-6.530761241912842,-0.1831054538488388,2.01416015625
932167,0.149658203125,1.4573974609375,-0.1544189453125,-14.343260765075684,0.4272460639476776,4.0283203125
932187,-0.001953125,0.7490234375,-0.024169921875,-15.075682640075684,0.3662109076976776,-0.7324218153953552
932208,0.0230712890625,1.0306396484375,-0.0360107421875,-12.268065452575684,0.0610351525247097,-0.8544921278953552
932224,0.0360107421875,1.1402587890625,-0.054443359375,-8.97216796875,-0.1831054538488388,1.15966796875
932240,0.0360107421875,1.041015625,-0.1005859375,-6.713866710662842,-0.3662109076976776,2.50244140625
932256,0.0255126953125,0.903564453125,-0.1015625,-5.615233898162842,-0.30517578125,1.9531248807907104
932273,0.0125732421875,0.87060546875,-0.102294921875,-5.249022960662842,-0.0610351525247097,0.1220703050494194
932294,0.0189208984375,1.1143798828125,-0.107421875,-3.540038824081421,0.1831054538488388,1.03759765625
932310,0.027587890625,0.9744873046875,-0.0740966796875,-2.197265625,0.2441406100988388,1.7089842557907104
932327,0.0289306640625,0.90283203125,-0.060546875,-1.8920897245407104,0.0610351525247097,1.0986328125
932344,0.0279541015625,1.00927734375,-0.0738525390625,-1.5258787870407104,-0.1831054538488388,0.7324218153953552
932375,0.024658203125,0.9561767578125,-0.08837890625,-0.4882812201976776,-0.1831054538488388,1.2817381620407104
932439,0.0252685546875,0.996337890625,-0.0704345703125,1.5869139432907104,-0.2441406100988388,0.6713866591453552
932460,0.0247802734375,0.998779296875,-0.0693359375,1.6479490995407104,-0.30517578125,0.7324218153953552
932476,0.02197265625,0.9755859375,-0.073974609375,1.4038084745407104,-0.3662109076976776,0.6103515625
932493,0.02294921875,0.990478515625,-0.0762939453125,1.3427733182907104,-0.2441406100988388,0.4272460639476776
932510,0.022216796875,0.9813232421875,-0.08203125,1.4038084745407104,-0.2441406100988388,0.1831054538488388
932526,0.0213623046875,0.987060546875,-0.0771484375,1.7700194120407104,-0.1220703050494194,0.30517578125
932557,0.025390625,0.9862060546875,-0.0714111328125,2.3193359375,-0.3662109076976776,0.4882812201976776
932579,0.02294921875,0.9898681640625,-0.083984375,2.929687261581421,-0.3662109076976776,0.4272460639476776
932595,0.02294921875,0.982666015625,-0.0771484375,3.540038824081421,-0.2441406100988388,0.3662109076976776
932612,0.0216064453125,0.989990234375,-0.0770263671875,3.723144292831421,-0.3662109076976776,0.30517578125
932629,0.023193359375,0.986328125,-0.065185546875,3.845214605331421,-0.2441406100988388,0.30517578125
932645,0.0242919921875,0.9798583984375,-0.062744140625,3.540038824081421,-0.30517578125,0.2441406100988388
932679,0.0230712890625,0.9853515625,-0.0692138671875,3.601073980331421,-0.30517578125,0.1220703050494194
932695,0.0235595703125,0.9837646484375,-0.0643310546875,3.540038824081421,-0.1831054538488388,0.1220703050494194
932711,0.0228271484375,0.9898681640625,-0.0601806640625,3.173827886581421,-0.1831054538488388,0.2441406100988388
932747,0.022216796875,0.9818115234375,-0.0511474609375,2.197265625,-0.2441406100988388,0.2441406100988388
932763,0.027099609375,0.984619140625,-0.0533447265625,1.4648436307907104,-0.30517578125,0.30517578125
932779,0.0260009765625,0.986083984375,-0.0625,1.15966796875,-0.30517578125,0.30517578125
932795,0.0224609375,0.9866943359375,-0.062744140625,0.9765624403953552,-0.30517578125,0.30517578125
932817,0.01806640625,0.982666015625,-0.062744140625,0.9765624403953552,-0.2441406100988388,0.2441406100988388
932833,0.0233154296875,0.986083984375,-0.0633544921875,0.9765624403953552,-0.2441406100988388,0.2441406100988388
932850,0.0250244140625,0.986083984375,-0.0653076171875,1.15966796875,-0.2441406100988388,0.2441406100988388
932916,0.02294921875,0.988037109375,-0.06396484375,2.01416015625,-0.2441406100988388,0.1831054538488388
932933,0.02490234375,0.986328125,-0.0625,2.197265625,-0.2441406100988388,0.1831054538488388
932949,0.0238037109375,0.98583984375,-0.0596923828125,2.25830078125,-0.1831054538488388,0.2441406100988388
933013,0.0216064453125,0.985595703125,-0.058349609375,2.38037109375,-0.2441406100988388,0.1220703050494194
933055,0.02685546875,0.985595703125,-0.0556640625,2.25830078125,-0.30517578125,0.1831054538488388
933072,0.02294921875,0.9876708984375,-0.0562744140625,2.25830078125,-0.30517578125,0.2441406100988388
933089,0.0224609375,0.98828125,-0.0552978515625,2.197265625,-0.2441406100988388,0.2441406100988388
933105,0.0247802734375,0.98388671875,-0.0556640625,2.197265625,-0.2441406100988388,0.2441406100988388
933122,0.0240478515625,0.985107421875,-0.054931640625,2.197265625,-0.30517578125,0.1831054538488388
933155,0.0213623046875,0.986572265625,-0.0516357421875,2.01416015625,-0.2441406100988388,0.0610351525247097
933172,0.024169921875,0.9879150390625,-0.052978515625,1.8920897245407104,-0.1831054538488388,0.2441406100988388
933193,0.0255126953125,0.9874267578125,-0.05078125,1.8920897245407104,-0.2441406100988388,0.3662109076976776
933209,0.02294921875,0.982177734375,-0.05078125,1.5869139432907104,-0.2441406100988388,0.3662109076976776
933226,0.021484375,0.99072265625,-0.050537109375,1.4648436307907104,-0.1831054538488388,0.30517578125
933243,0.0255126953125,0.984130859375,-0.0540771484375,1.3427733182907104,-0.1831054538488388,0.30517578125
933276,0.023193359375,0.986083984375,-0.050537109375,1.03759765625,-0.1831054538488388,0.3662109076976776
933293,0.021240234375,0.986083984375,-0.049560546875,0.8544921278953552,-0.1831054538488388,0.30517578125
933309,0.02197265625,0.9852294921875,-0.0509033203125,0.7324218153953552,-0.1831054538488388,0.2441406100988388
933341,0.022705078125,0.9844970703125,-0.051025390625,0.6103515625,-0.1831054538488388,0.2441406100988388
933389,0.0245361328125,0.9866943359375,-0.0506591796875,0.0610351525247097,-0.1831054538488388,0.2441406100988388
933411,0.02490234375,0.98583984375,-0.05419921875,0.0,-0.2441406100988388,0.30517578125
933428,0.02197265625,0.987060546875,-0.0557861328125,0.0610351525247097,-0.1831054538488388,0.2441406100988388
933448,0.0216064453125,0.98583984375,-0.056884765625,0.2441406100988388,-0.1831054538488388,0.2441406100988388
933467,0.024658203125,0.984375,-0.057861328125,0.4272460639476776,-0.1220703050494194,0.2441406100988388
933488,0.0252685546875,0.9884033203125,-0.055419921875,0.6103515625,-0.1831054538488388,0.1831054538488388
933504,0.022216796875,0.984619140625,-0.0533447265625,0.6103515625,-0.1220703050494194,0.2441406100988388
933522,0.022705078125,0.98388671875,-0.0509033203125,0.4882812201976776,-0.1831054538488388,0.1831054538488388
933544,0.0230712890625,0.9849853515625,-0.0521240234375,0.4272460639476776,-0.1831054538488388,0.1220703050494194
933560,0.0235595703125,0.9849853515625,-0.053466796875,0.30517578125,-0.1831054538488388,0.0610351525247097
933574,0.0216064453125,0.9864501953125,-0.05517578125,0.2441406100988388,-0.1831054538488388,0.0
933591,0.0223388671875,0.9869384765625,-0.0540771484375,0.30517578125,-0.1831054538488388,0.0610351525247097
933608,0.0250244140625,0.98828125,-0.0560302734375,0.3662109076976776,-0.2441406100988388,0.1220703050494194
933638,0.0218505859375,0.987060546875,-0.0560302734375,0.4882812201976776,-0.1831054538488388,0.2441406100988388
933654,0.0213623046875,0.9862060546875,-0.056396484375,0.54931640625,-0.1831054538488388,0.1220703050494194
933670,0.023193359375,0.9873046875,-0.0555419921875,0.54931640625,-0.1831054538488388,0.1831054538488388
933702,0.0247802734375,0.9853515625,-0.0517578125,0.4272460639476776,-0.1831054538488388,0.30517578125
933718,0.0234375,0.9862060546875,-0.052001953125,0.3662109076976776,-0.0610351525247097,0.30517578125
933734,0.0224609375,0.986328125,-0.051513671875,0.1831054538488388,-0.2441406100988388,0.4272460639476776
933750,0.0218505859375,0.986083984375,-0.0555419921875,0.1220703050494194,-0.30517578125,0.4272460639476776
933770,0.023681640625,0.9840087890625,-0.0574951171875,0.1831054538488388,-0.2441406100988388,0.3662109076976776
933792,0.0235595703125,0.98486328125,-0.05859375,0.30517578125,-0.1220703050494194,0.2441406100988388
933808,0.02294921875,0.9874267578125,-0.0576171875,0.4272460639476776,-0.1831054538488388,0.2441406100988388
933825,0.0235595703125,0.9874267578125,-0.056640625,0.54931640625,-0.1831054538488388,0.2441406100988388
933842,0.0238037109375,0.98681640625,-0.057373046875,0.7324218153953552,-0.2441406100988388,0.2441406100988388
933875,0.0233154296875,0.9866943359375,-0.0609130859375,1.3427733182907104,-0.2441406100988388,0.30517578125
933892,0.0247802734375,0.9854736328125,-0.0594482421875,1.4648436307907104,-0.1831054538488388,0.2441406100988388
933908,0.0240478515625,0.9854736328125,-0.0567626953125,1.6479490995407104,-0.30517578125,0.1220703050494194
933943,0.0213623046875,0.986328125,-0.052978515625,1.8920897245407104,-0.30517578125,-0.0610351525247097
933959,0.024169921875,0.986572265625,-0.05615234375,1.8920897245407104,-0.2441406100988388,-0.1831054538488388
933976,0.0247802734375,0.9832763671875,-0.0555419921875,1.8920897245407104,-0.30517578125,-0.30517578125
933993,0.024658203125,0.980224609375,-0.0546875,1.7089842557907104,-0.2441406100988388,-0.7934569716453552
934009,0.0252685546875,0.9881591796875,-0.058837890625,1.6479490995407104,-0.0610351525247097,-1.4038084745407104
934026,0.021728515625,0.9833984375,-0.0423583984375,1.5258787870407104,-0.1220703050494194,-1.4038084745407104
934059,0.0338134765625,0.9932861328125,-0.0179443359375,0.2441406100988388,0.0610351525247097,-2.990722417831421
934075,0.050048828125,1.1077880859375,-0.022216796875,-1.220703125,-0.6713866591453552,-5.126952648162842
934091,0.0592041015625,1.2977294921875,-0.033935546875,-1.220703125,-1.2817381620407104,-5.310058116912842
934127,0.06689453125,1.7662353515625,-0.2093505859375,3.784179449081421,-0.1220703050494194,3.662109136581421
934143,0.0494384765625,1.585693359375,-0.145263671875,5.249022960662842,0.0610351525247097,4.150390625
934159,0.043701171875,1.5704345703125,-0.1085205078125,4.94384765625,-0.1831054538488388,4.08935546875
934175,0.0220947265625,1.4906005859375,-0.125244140625,5.432128429412842,-0.6713866591453552,5.0048828125
934197,0.0166015625,1.42724609375,-0.130615234375,5.493163585662842,-0.7934569716453552,4.57763671875
934213,0.0164794921875,1.46533203125,-0.1925048828125,6.286620616912842,-0.54931640625,3.784179449081421
934230,0.027099609375,1.5205078125,-0.169677734375,8.97216796875,0.30517578125,5.371093273162842
934247,0.02294921875,1.42431640625,-0.1292724609375,9.27734375,0.4882812201976776,6.164550304412842
934263,0.024169921875,1.383544921875,-0.0927734375,9.3994140625,0.4882812201976776,6.347655773162842
934297,0.0048828125,1.3536376953125,-0.0938720703125,7.812499523162842,0.30517578125,6.286620616912842
934313,-0.0003662109375,1.3551025390625,-0.1112060546875,8.056640625,0.4882812201976776,6.164550304412842
934329,-0.005126953125,1.3909912109375,-0.126220703125,7.690429210662842,1.03759765625,6.225585460662842
934358,0.0045166015625,1.3763427734375,-0.08935546875,8.30078125,1.8310545682907104,6.774901866912842
934380,0.001708984375,1.3153076171875,-0.0755615234375,7.629394054412842,1.7700194120407104,7.080077648162842
934396,-0.003173828125,1.1973876953125,-0.0609130859375,7.263183116912842,1.8920897245407104,7.263183116912842
934413,-0.0059814453125,1.1500244140625,-0.068603515625,5.432128429412842,2.0751953125,6.530761241912842
934430,-0.00341796875,1.129638671875,-0.0648193359375,4.5166015625,2.197265625,6.042479991912842
934446,-0.002197265625,1.1251220703125,-0.0762939453125,3.662109136581421,2.44140625,5.676269054412842
934477,-0.009521484375,1.0196533203125,-0.0604248046875,1.7700194120407104,3.417968511581421,6.835937023162842
934499,-0.011474609375,0.9383544921875,-0.034912109375,1.0986328125,3.601073980331421,6.958007335662842
934515,-0.0198974609375,0.7779541015625,-0.023193359375,-0.8544921278953552,3.601073980331421,6.286620616912842
934534,-0.0228271484375,0.6707763671875,-0.0091552734375,-2.746581792831421,3.967284917831421,5.065917491912842
934600,-0.0211181640625,0.4666748046875,0.0137939453125,-7.690429210662842,4.39453125,3.051757574081421
934617,-0.023193359375,0.40966796875,0.0103759765625,-8.23974609375,4.57763671875,2.25830078125
934633,-0.0220947265625,0.38720703125,0.0223388671875,-8.7890625,4.638671875,1.7700194120407104
934649,-0.0228271484375,0.39453125,0.02099609375,-9.27734375,4.5166015625,0.9765624403953552
934669,-0.015380859375,0.387451171875,0.0289306640625,-9.765625,4.5166015625,0.54931640625
934691,-0.00439453125,0.3946533203125,0.0316162109375,-10.070799827575684,4.5166015625,0.2441406100988388
934707,0.0048828125,0.400634765625,0.03271484375,-10.192870140075684,4.5166015625,-0.30517578125
934724,0.005126953125,0.433837890625,0.0245361328125,-10.559081077575684,4.2724609375,-1.03759765625
934741,0.0009765625,0.4876708984375,0.0145263671875,-10.498045921325684,4.2724609375,-0.9155272841453552
934774,0.001953125,0.5098876953125,0.018310546875,-10.131834983825684,4.33349609375,-1.6479490995407104
934791,0.0091552734375,0.60888671875,0.0076904296875,-9.70458984375,4.21142578125,-2.0751953125
934807,0.0169677734375,0.6961669921875,0.00048828125,-9.1552734375,4.0283203125,-1.7700194120407104
934839,0.015625,0.750244140625,-0.02001953125,-7.751464366912842,4.08935546875,-2.197265625
934860,0.013671875,0.809326171875,-0.028564453125,-7.385253429412842,4.08935546875,-2.38037109375
934876,0.0125732421875,0.8883056640625,-0.021728515625,-6.042479991912842,4.08935546875,-1.7089842557907104
934893,0.0133056640625,0.923583984375,-0.0374755859375,-4.82177734375,3.845214605331421,-1.8310545682907104
934910,0.0230712890625,0.97265625,-0.03857421875,-4.08935546875,3.723144292831421,-1.9531248807907104
934926,0.0267333984375,1.081787109375,-0.06884765625,-2.01416015625,3.540038824081421,-2.25830078125
934957,0.0191650390625,1.0521240234375,-0.06396484375,3.356933355331421,3.540038824081421,-1.03759765625
934979,0.0177001953125,1.056884765625,-0.0594482421875,4.5166015625,3.540038824081421,-1.0986328125
934995,0.0146484375,1.033447265625,-0.0482177734375,6.530761241912842,3.662109136581421,-0.7324218153953552
935012,0.0106201171875,0.958740234375,-0.009765625,7.263183116912842,3.601073980331421,-0.6713866591453552
935029,0.0059814453125,0.919677734375,-0.0059814453125,8.056640625,3.112792730331421,-1.15966796875
935045,0.005126953125,0.915283203125,-0.0013427734375,8.60595703125,2.868652105331421,-1.7089842557907104
935079,-0.0042724609375,0.8876953125,-0.0047607421875,9.3994140625,2.685546636581421,-2.563476324081421
935095,-0.0062255859375,0.8983154296875,-0.0086669921875,9.521484375,2.563476324081421,-2.868652105331421
935111,-0.0064697265625,0.9288330078125,-0.0035400390625,9.94873046875,2.197265625,-3.112792730331421
935147,-0.0086669921875,0.9813232421875,-0.034423828125,11.474608421325684,1.8310545682907104,-3.540038824081421
935163,-0.0084228515625,0.999267578125,-0.0394287109375,12.695311546325684,1.8310545682907104,-3.723144292831421
935179,-0.0045166015625,1.020263671875,-0.0355224609375,14.099120140075684,1.5258787870407104,-3.540038824081421
935195,-0.0040283203125,1.015869140625,-0.0394287109375,14.709471702575684,1.4648436307907104,-3.601073980331421
935217,-0.0054931640625,1.0247802734375,-0.0343017578125,16.17431640625,1.2817381620407104,-3.723144292831421
935233,-0.00830078125,1.0174560546875,-0.030029296875,17.51708984375,1.220703125,-3.845214605331421
935250,-0.006591796875,1.027099609375,-0.0277099609375,18.24951171875,1.03759765625,-3.967284917831421
935267,-0.0059814453125,1.0396728515625,-0.0302734375,19.95849609375,0.9155272841453552,-4.08935546875
935283,-0.0054931640625,1.0587158203125,-0.0272216796875,21.606443405151367,0.8544921278953552,-3.601073980331421
935317,-0.00732421875,0.995361328125,-0.0035400390625,23.498533248901367,0.8544921278953552,-3.173827886581421
935333,-0.0032958984375,0.96240234375,0.0101318359375,23.864744186401367,0.7324218153953552,-3.173827886581421
935349,-0.002197265625,0.943603515625,0.0286865234375,23.742673873901367,0.4882812201976776,-3.295898199081421
