tMillis,ax,ay,az,gx,gy,gz
368191,0.034912109375,-0.9930419921875,0.1605224609375,0.6713866591453552,-0.2441406100988388,0.2441406100988388
368207,0.0347900390625,-0.9805908203125,0.1573486328125,0.6713866591453552,-0.30517578125,0.2441406100988388
368224,0.033935546875,-0.981201171875,0.157470703125,0.6713866591453552,-0.1831054538488388,0.2441406100988388
368241,0.0333251953125,-0.9849853515625,0.15869140625,0.6713866591453552,-0.1831054538488388,0.2441406100988388
368291,0.0322265625,-0.982666015625,0.1583251953125,0.6713866591453552,-0.1831054538488388,0.2441406100988388
368308,0.0335693359375,-0.985595703125,0.158203125,0.6713866591453552,-0.1831054538488388,0.2441406100988388
368329,0.0340576171875,-0.9862060546875,0.158447265625,0.6713866591453552,-0.1220703050494194,0.30517578125
368345,0.0350341796875,-0.9832763671875,0.1591796875,0.7324218153953552,-0.1220703050494194,0.3662109076976776
368362,0.0347900390625,-0.987060546875,0.160888671875,0.7324218153953552,-0.1831054538488388,0.30517578125
368379,0.033935546875,-0.9815673828125,0.1593017578125,0.7324218153953552,-0.1831054538488388,0.30517578125
368412,0.0350341796875,-0.9884033203125,0.160400390625,0.7324218153953552,-0.1220703050494194,0.30517578125
368428,0.03515625,-0.9881591796875,0.159423828125,0.7324218153953552,-0.1831054538488388,0.30517578125
368444,0.034423828125,-0.984375,0.1590576171875,0.7324218153953552,-0.2441406100988388,0.3662109076976776
368476,0.0343017578125,-0.98828125,0.159423828125,0.7934569716453552,-0.2441406100988388,0.3662109076976776
368492,0.0343017578125,-0.9874267578125,0.160400390625,0.7324218153953552,-0.1831054538488388,0.2441406100988388
368508,0.033935546875,-0.985107421875,0.159912109375,0.7934569716453552,-0.2441406100988388,0.30517578125
368524,0.034423828125,-0.9869384765625,0.1595458984375,0.7934569716453552,-0.2441406100988388,0.30517578125
368544,0.0340576171875,-0.988037109375,0.15966796875,0.7934569716453552,-0.1831054538488388,0.1831054538488388
368565,0.0341796875,-0.985107421875,0.159423828125,0.7324218153953552,-0.1831054538488388,0.1831054538488388
368581,0.03369140625,-0.9844970703125,0.158447265625,0.7324218153953552,-0.2441406100988388,0.1831054538488388
368598,0.0341796875,-0.985595703125,0.1590576171875,0.7934569716453552,-0.2441406100988388,0.2441406100988388
368615,0.0345458984375,-0.9847412109375,0.1588134765625,0.7934569716453552,-0.30517578125,0.1220703050494194
368681,0.0338134765625,-0.990966796875,0.15966796875,0.7934569716453552,-0.2441406100988388,0.2441406100988388
368723,0.0340576171875,-0.983154296875,0.1580810546875,0.7324218153953552,-0.1831054538488388,0.2441406100988388
368740,0.0341796875,-0.9854736328125,0.15869140625,0.7324218153953552,-0.1831054538488388,0.2441406100988388
368773,0.0338134765625,-0.985595703125,0.158203125,0.7934569716453552,-0.1831054538488388,0.2441406100988388
368790,0.032958984375,-0.984375,0.1585693359375,0.7324218153953552,-0.1831054538488388,0.2441406100988388
368806,0.0328369140625,-0.9852294921875,0.15771484375,0.7934569716453552,-0.1831054538488388,0.2441406100988388
368823,0.033203125,-0.9886474609375,0.158447265625,0.7324218153953552,-0.1831054538488388,0.2441406100988388
368843,0.0345458984375,-0.98486328125,0.15771484375,0.7324218153953552,-0.2441406100988388,0.2441406100988388
368865,0.0340576171875,-0.986083984375,0.1588134765625,0.7324218153953552,-0.2441406100988388,0.30517578125
368881,0.0333251953125,-0.9847412109375,0.1597900390625,0.7324218153953552,-0.1831054538488388,0.30517578125
368898,0.0340576171875,-0.9866943359375,0.159912109375,0.6713866591453552,-0.1220703050494194,0.30517578125
368915,0.034423828125,-0.98681640625,0.1585693359375,0.6713866591453552,-0.2441406100988388,0.2441406100988388
368948,0.03369140625,-0.9847412109375,0.15771484375,0.6713866591453552,-0.1220703050494194,0.2441406100988388
368965,0.033935546875,-0.985107421875,0.15771484375,0.6713866591453552,-0.2441406100988388,0.2441406100988388
368981,0.0343017578125,-0.98681640625,0.16015625,0.6713866591453552,-0.2441406100988388,0.1831054538488388
369013,0.033935546875,-0.983642578125,0.157470703125,0.6713866591453552,-0.1831054538488388,0.2441406100988388
369034,0.033447265625,-0.986328125,0.1580810546875,0.6103515625,-0.1831054538488388,0.2441406100988388
369050,0.0338134765625,-0.9862060546875,0.158203125,0.6103515625,-0.2441406100988388,0.2441406100988388
369067,0.0341796875,-0.9859619140625,0.158203125,0.6103515625,-0.2441406100988388,0.1831054538488388
369084,0.03369140625,-0.9873046875,0.15869140625,0.7324218153953552,-0.1831054538488388,0.2441406100988388
369100,0.0341796875,-0.989013671875,0.158935546875,0.7324218153953552,-0.1831054538488388,0.2441406100988388
369132,0.032958984375,-0.9849853515625,0.157958984375,0.6713866591453552,-0.1831054538488388,0.2441406100988388
369149,0.0338134765625,-0.9874267578125,0.1573486328125,0.7324218153953552,-0.1831054538488388,0.2441406100988388
369165,0.0341796875,-0.98583984375,0.1580810546875,0.7324218153953552,-0.1831054538488388,0.30517578125
369198,0.0340576171875,-0.984375,0.157958984375,0.6103515625,-0.1831054538488388,0.2441406100988388
369219,0.0341796875,-0.9857177734375,0.1590576171875,0.7324218153953552,-0.1831054538488388,0.2441406100988388
369235,0.0338134765625,-0.98681640625,0.1585693359375,0.7324218153953552,-0.1831054538488388,0.2441406100988388
369252,0.03369140625,-0.9840087890625,0.15771484375,0.7324218153953552,-0.1831054538488388,0.2441406100988388
369273,0.0330810546875,-0.9840087890625,0.157958984375,0.7934569716453552,-0.1220703050494194,0.30517578125
369289,0.0343017578125,-0.9847412109375,0.1575927734375,0.7934569716453552,-0.1831054538488388,0.30517578125
369310,0.0330810546875,-0.9859619140625,0.1593017578125,0.7934569716453552,-0.2441406100988388,0.1831054538488388
369330,0.0347900390625,-0.9892578125,0.1597900390625,0.7934569716453552,-0.2441406100988388,0.30517578125
369351,0.03369140625,-0.985595703125,0.1585693359375,0.8544921278953552,-0.1831054538488388,0.30517578125
369371,0.0330810546875,-0.984130859375,0.158203125,0.7934569716453552,-0.1831054538488388,0.2441406100988388
369391,0.0330810546875,-0.983642578125,0.1578369140625,0.7324218153953552,-0.2441406100988388,0.2441406100988388
369411,0.0340576171875,-0.9854736328125,0.158447265625,0.7934569716453552,-0.1831054538488388,0.30517578125
369427,0.0343017578125,-0.9884033203125,0.159423828125,0.8544921278953552,-0.1831054538488388,0.30517578125
369481,0.0341796875,-0.986083984375,0.156982421875,0.8544921278953552,-0.1831054538488388,0.2441406100988388
369501,0.03369140625,-0.9859619140625,0.1566162109375,0.7934569716453552,-0.1831054538488388,0.1831054538488388
369517,0.0322265625,-0.9866943359375,0.157958984375,0.7934569716453552,-0.2441406100988388,0.1831054538488388
369534,0.0340576171875,-0.98779296875,0.1578369140625,0.7324218153953552,-0.2441406100988388,0.2441406100988388
369551,0.0341796875,-0.9854736328125,0.15771484375,0.7934569716453552,-0.2441406100988388,0.30517578125
369601,0.03271484375,-0.9853515625,0.1573486328125,0.7324218153953552,-0.1831054538488388,0.2441406100988388
369623,0.0341796875,-0.9871826171875,0.156982421875,0.7324218153953552,-0.1831054538488388,0.2441406100988388
369640,0.0345458984375,-0.9857177734375,0.15673828125,0.7934569716453552,-0.1831054538488388,0.30517578125
369673,0.033447265625,-0.9857177734375,0.15625,0.7324218153953552,-0.2441406100988388,0.2441406100988388
369743,0.0328369140625,-0.98681640625,0.1558837890625,0.7324218153953552,-0.2441406100988388,0.30517578125
369759,0.0323486328125,-0.98681640625,0.15576171875,0.7324218153953552,-0.1831054538488388,0.30517578125
369775,0.033203125,-0.98486328125,0.1568603515625,0.6713866591453552,-0.2441406100988388,0.2441406100988388
369791,0.0335693359375,-0.9854736328125,0.157958984375,0.6713866591453552,-0.1831054538488388,0.2441406100988388
369808,0.0333251953125,-0.9857177734375,0.1575927734375,0.6713866591453552,-0.1831054538488388,0.2441406100988388
369829,0.0343017578125,-0.9857177734375,0.156005859375,0.6713866591453552,-0.2441406100988388,0.2441406100988388
369845,0.0330810546875,-0.988037109375,0.1561279296875,0.6713866591453552,-0.2441406100988388,0.2441406100988388
369862,0.033203125,-0.9859619140625,0.1568603515625,0.6713866591453552,-0.2441406100988388,0.2441406100988388
369879,0.033447265625,-0.984619140625,0.1572265625,0.6103515625,-0.2441406100988388,0.2441406100988388
369912,0.033203125,-0.9849853515625,0.15771484375,0.6713866591453552,-0.2441406100988388,0.2441406100988388
369928,0.032958984375,-0.984375,0.1575927734375,0.6103515625,-0.2441406100988388,0.2441406100988388
369944,0.03369140625,-0.9862060546875,0.1571044921875,0.6103515625,-0.2441406100988388,0.2441406100988388
369972,0.0340576171875,-0.9862060546875,0.1568603515625,0.6103515625,-0.2441406100988388,0.30517578125
369994,0.033935546875,-0.9862060546875,0.1566162109375,0.6103515625,-0.2441406100988388,0.2441406100988388
370010,0.03369140625,-0.9852294921875,0.1571044921875,0.6103515625,-0.2441406100988388,0.2441406100988388
370027,0.033935546875,-0.98486328125,0.1573486328125,0.6103515625,-0.2441406100988388,0.3662109076976776
370044,0.034423828125,-0.9852294921875,0.157958984375,0.6103515625,-0.2441406100988388,0.30517578125
370060,0.034423828125,-0.986083984375,0.15771484375,0.54931640625,-0.2441406100988388,0.1831054538488388
370092,0.034423828125,-0.9852294921875,0.1568603515625,0.6103515625,-0.1831054538488388,0.3662109076976776
370114,0.03466796875,-0.986083984375,0.156982421875,0.6103515625,-0.1831054538488388,0.30517578125
370130,0.0345458984375,-0.987548828125,0.1571044921875,0.6713866591453552,-0.2441406100988388,0.2441406100988388
370147,0.03369140625,-0.9859619140625,0.156494140625,0.6713866591453552,-0.1831054538488388,0.2441406100988388
370164,0.0347900390625,-0.9849853515625,0.15673828125,0.6103515625,-0.1220703050494194,0.2441406100988388
370180,0.03515625,-0.9853515625,0.1572265625,0.6713866591453552,-0.1831054538488388,0.2441406100988388
370213,0.03369140625,-0.98486328125,0.1575927734375,0.6713866591453552,-0.2441406100988388,0.2441406100988388
370235,0.033935546875,-0.9847412109375,0.158203125,0.6713866591453552,-0.2441406100988388,0.30517578125
370251,0.0335693359375,-0.9864501953125,0.1580810546875,0.6713866591453552,-0.2441406100988388,0.2441406100988388
370268,0.0335693359375,-0.9873046875,0.158447265625,0.6713866591453552,-0.2441406100988388,0.2441406100988388
370334,0.033935546875,-0.98486328125,0.156982421875,0.6713866591453552,-0.2441406100988388,0.2441406100988388
370351,0.0338134765625,-0.985107421875,0.1571044921875,0.6713866591453552,-0.2441406100988388,0.2441406100988388
370367,0.0325927734375,-0.9859619140625,0.157470703125,0.7324218153953552,-0.2441406100988388,0.30517578125
370383,0.0330810546875,-0.9854736328125,0.158203125,0.7324218153953552,-0.2441406100988388,0.30517578125
370403,0.0330810546875,-0.986083984375,0.1578369140625,0.6713866591453552,-0.2441406100988388,0.2441406100988388
370419,0.0333251953125,-0.9864501953125,0.157958984375,0.6103515625,-0.1831054538488388,0.1831054538488388
370435,0.0333251953125,-0.9857177734375,0.1575927734375,0.6103515625,-0.1831054538488388,0.2441406100988388
370451,0.03369140625,-0.98583984375,0.157470703125,0.6713866591453552,-0.1831054538488388,0.30517578125
370473,0.0335693359375,-0.9859619140625,0.1561279296875,0.6713866591453552,-0.2441406100988388,0.30517578125
370489,0.0338134765625,-0.985107421875,0.1575927734375,0.6103515625,-0.1831054538488388,0.2441406100988388
370506,0.033447265625,-0.9864501953125,0.1575927734375,0.6713866591453552,-0.2441406100988388,0.1831054538488388
370523,0.0335693359375,-0.986083984375,0.156494140625,0.7324218153953552,-0.1831054538488388,0.2441406100988388
370539,0.03369140625,-0.9871826171875,0.1563720703125,0.7324218153953552,-0.1831054538488388,0.30517578125
370573,0.0335693359375,-0.9847412109375,0.157958984375,0.7324218153953552,-0.1831054538488388,0.2441406100988388
370589,0.0341796875,-0.9853515625,0.1571044921875,0.7324218153953552,-0.1831054538488388,0.30517578125
370605,0.0343017578125,-0.985595703125,0.1568603515625,0.7324218153953552,-0.2441406100988388,0.30517578125
370637,0.0343017578125,-0.986572265625,0.157470703125,0.6713866591453552,-0.1831054538488388,0.1831054538488388
370685,0.034423828125,-0.9873046875,0.15576171875,0.6713866591453552,-0.1831054538488388,0.30517578125
370766,0.0340576171875,-0.986572265625,0.1563720703125,0.6713866591453552,-0.1220703050494194,0.2441406100988388
370787,0.0343017578125,-0.9862060546875,0.1571044921875,0.6713866591453552,-0.1831054538488388,0.30517578125
370804,0.032958984375,-0.9857177734375,0.1566162109375,0.7324218153953552,-0.2441406100988388,0.30517578125
370823,0.0333251953125,-0.9862060546875,0.1572265625,0.6713866591453552,-0.30517578125,0.30517578125
370839,0.034423828125,-0.986572265625,0.157470703125,0.6713866591453552,-0.2441406100988388,0.2441406100988388
370872,0.0335693359375,-0.9862060546875,0.1588134765625,0.6713866591453552,-0.1831054538488388,0.2441406100988388
370888,0.0330810546875,-0.986083984375,0.1575927734375,0.6713866591453552,-0.2441406100988388,0.30517578125
370904,0.033935546875,-0.986083984375,0.1573486328125,0.6713866591453552,-0.2441406100988388,0.30517578125
370936,0.034912109375,-0.9852294921875,0.157470703125,0.6713866591453552,-0.2441406100988388,0.2441406100988388
370952,0.03466796875,-0.9853515625,0.1571044921875,0.6713866591453552,-0.2441406100988388,0.2441406100988388
370968,0.0330810546875,-0.986572265625,0.156494140625,0.6713866591453552,-0.1831054538488388,0.30517578125
370984,0.0340576171875,-0.9854736328125,0.157470703125,0.6103515625,-0.1831054538488388,0.2441406100988388
371004,0.03369140625,-0.986572265625,0.157470703125,0.6713866591453552,-0.1831054538488388,0.30517578125
371020,0.033935546875,-0.98681640625,0.157470703125,0.6103515625,-0.1831054538488388,0.30517578125
371036,0.0338134765625,-0.98583984375,0.1571044921875,0.6103515625,-0.1831054538488388,0.2441406100988388
371052,0.03369140625,-0.985107421875,0.1566162109375,0.6103515625,-0.1220703050494194,0.1831054538488388
371068,0.0328369140625,-0.985107421875,0.157470703125,0.6713866591453552,-0.1831054538488388,0.2441406100988388
371084,0.0325927734375,-0.9854736328125,0.1572265625,0.6103515625,-0.2441406100988388,0.2441406100988388
371112,0.0338134765625,-0.9864501953125,0.1573486328125,0.6103515625,-0.2441406100988388,0.30517578125
371134,0.0333251953125,-0.985595703125,0.1568603515625,0.6713866591453552,-0.2441406100988388,0.2441406100988388
371150,0.033935546875,-0.9862060546875,0.1566162109375,0.6713866591453552,-0.2441406100988388,0.2441406100988388
371167,0.03369140625,-0.9862060546875,0.1568603515625,0.7324218153953552,-0.1831054538488388,0.2441406100988388
371185,0.033447265625,-0.98583984375,0.156494140625,0.6713866591453552,-0.1831054538488388,0.30517578125
371201,0.033935546875,-0.98583984375,0.15576171875,0.54931640625,-0.2441406100988388,0.30517578125
371232,0.03369140625,-0.98583984375,0.1578369140625,0.7324218153953552,-0.2441406100988388,0.2441406100988388
371254,0.034423828125,-0.9854736328125,0.1573486328125,0.6713866591453552,-0.2441406100988388,0.2441406100988388
371270,0.0338134765625,-0.986328125,0.157958984375,0.6103515625,-0.2441406100988388,0.30517578125
371287,0.0328369140625,-0.9862060546875,0.1580810546875,0.6103515625,-0.1831054538488388,0.2441406100988388
371304,0.033447265625,-0.9862060546875,0.15673828125,0.6713866591453552,-0.2441406100988388,0.2441406100988388
371321,0.032958984375,-0.986328125,0.1552734375,0.6103515625,-0.2441406100988388,0.30517578125
371351,0.033447265625,-0.986328125,0.157470703125,0.6713866591453552,-0.2441406100988388,0.2441406100988388
371368,0.0345458984375,-0.9854736328125,0.15771484375,0.6103515625,-0.1831054538488388,0.1831054538488388
371384,0.033447265625,-0.9857177734375,0.156982421875,0.6103515625,-0.1831054538488388,0.2441406100988388
371412,0.0338134765625,-0.987060546875,0.1572265625,0.6713866591453552,-0.1831054538488388,0.2441406100988388
371434,0.0333251953125,-0.9874267578125,0.1556396484375,0.7324218153953552,-0.1831054538488388,0.30517578125
371450,0.033447265625,-0.9864501953125,0.1561279296875,0.7324218153953552,-0.2441406100988388,0.2441406100988388
371467,0.0345458984375,-0.9859619140625,0.1566162109375,0.6713866591453552,-0.1831054538488388,0.2441406100988388
371484,0.03466796875,-0.9864501953125,0.1566162109375,0.6103515625,-0.1831054538488388,0.2441406100988388
371500,0.0343017578125,-0.985595703125,0.156005859375,0.6713866591453552,-0.1831054538488388,0.2441406100988388
371532,0.033203125,-0.9871826171875,0.15673828125,0.6713866591453552,-0.1831054538488388,0.1831054538488388
371554,0.0340576171875,-0.986083984375,0.1561279296875,0.6713866591453552,-0.1831054538488388,0.1831054538488388
371570,0.0335693359375,-0.98583984375,0.15673828125,0.6713866591453552,-0.1220703050494194,0.1831054538488388
371587,0.0335693359375,-0.9857177734375,0.15625,0.7324218153953552,-0.1831054538488388,0.1831054538488388
371604,0.0340576171875,-0.9862060546875,0.1566162109375,0.6103515625,-0.2441406100988388,0.1831054538488388
371620,0.033447265625,-0.986083984375,0.1561279296875,0.6103515625,-0.2441406100988388,0.2441406100988388
371652,0.0343017578125,-0.986572265625,0.156005859375,0.7324218153953552,-0.1831054538488388,0.2441406100988388
371674,0.0338134765625,-0.987060546875,0.1561279296875,0.6713866591453552,-0.1831054538488388,0.2441406100988388
371690,0.0340576171875,-0.9853515625,0.156494140625,0.6713866591453552,-0.2441406100988388,0.2441406100988388
371707,0.034423828125,-0.9862060546875,0.156494140625,0.6713866591453552,-0.2441406100988388,0.2441406100988388
371724,0.0335693359375,-0.9873046875,0.1571044921875,0.6713866591453552,-0.1831054538488388,0.2441406100988388
371774,0.033935546875,-0.9864501953125,0.1563720703125,0.6103515625,-0.1831054538488388,0.30517578125
371790,0.033203125,-0.9864501953125,0.1568603515625,0.6713866591453552,-0.1831054538488388,0.2441406100988388
371806,0.033203125,-0.986572265625,0.1573486328125,0.6713866591453552,-0.2441406100988388,0.1831054538488388
371842,0.033447265625,-0.9866943359375,0.156494140625,0.6713866591453552,-0.2441406100988388,0.30517578125
371862,0.033203125,-0.9866943359375,0.1566162109375,0.6713866591453552,-0.2441406100988388,0.30517578125
371882,0.033935546875,-0.986083984375,0.1563720703125,0.6713866591453552,-0.2441406100988388,0.2441406100988388
371902,0.032958984375,-0.9864501953125,0.1572265625,0.6713866591453552,-0.2441406100988388,0.2441406100988388
371918,0.03369140625,-0.9871826171875,0.15625,0.6713866591453552,-0.1831054538488388,0.2441406100988388
371934,0.0341796875,-0.9866943359375,0.15576171875,0.6713866591453552,-0.1831054538488388,0.30517578125
371950,0.0335693359375,-0.984375,0.1575927734375,0.6713866591453552,-0.2441406100988388,0.1831054538488388
371967,0.0335693359375,-0.98486328125,0.157958984375,0.7324218153953552,-0.2441406100988388,0.2441406100988388
371988,0.0347900390625,-0.9869384765625,0.1572265625,0.7324218153953552,-0.2441406100988388,0.30517578125
372004,0.0328369140625,-0.9864501953125,0.1563720703125,0.6103515625,-0.1831054538488388,0.30517578125
372021,0.0341796875,-0.9864501953125,0.1561279296875,0.6103515625,-0.1831054538488388,0.30517578125
372071,0.033203125,-0.986328125,0.156982421875,0.7324218153953552,-0.1831054538488388,0.2441406100988388
372087,0.032958984375,-0.9862060546875,0.1578369140625,0.6713866591453552,-0.2441406100988388,0.2441406100988388
372103,0.0340576171875,-0.98583984375,0.157470703125,0.6103515625,-0.1831054538488388,0.1831054538488388
372132,0.0333251953125,-0.986572265625,0.1563720703125,0.6103515625,-0.2441406100988388,0.30517578125
372154,0.0343017578125,-0.9869384765625,0.1568603515625,0.6103515625,-0.1831054538488388,0.30517578125
372170,0.0335693359375,-0.9859619140625,0.156494140625,0.6713866591453552,-0.1831054538488388,0.30517578125
372187,0.0338134765625,-0.9857177734375,0.15625,0.6713866591453552,-0.2441406100988388,0.2441406100988388
372204,0.0343017578125,-0.98583984375,0.15673828125,0.6713866591453552,-0.2441406100988388,0.2441406100988388
372220,0.03369140625,-0.9874267578125,0.156005859375,0.6713866591453552,-0.1831054538488388,0.2441406100988388
372254,0.033203125,-0.986572265625,0.1566162109375,0.6713866591453552,-0.2441406100988388,0.2441406100988388
372270,0.0333251953125,-0.9864501953125,0.1575927734375,0.6713866591453552,-0.1831054538488388,0.30517578125
372286,0.0340576171875,-0.986572265625,0.1572265625,0.6713866591453552,-0.1220703050494194,0.2441406100988388
372322,0.0335693359375,-0.985107421875,0.15625,0.6713866591453552,-0.1831054538488388,0.3662109076976776
372344,0.033203125,-0.9853515625,0.156005859375,0.6713866591453552,-0.1831054538488388,0.3662109076976776
372360,0.0340576171875,-0.98681640625,0.155517578125,0.6713866591453552,-0.1831054538488388,0.30517578125
372381,0.0333251953125,-0.9871826171875,0.15625,0.6713866591453552,-0.1831054538488388,0.2441406100988388
372398,0.03369140625,-0.986083984375,0.1553955078125,0.7324218153953552,-0.2441406100988388,0.2441406100988388
372414,0.0335693359375,-0.9866943359375,0.1556396484375,0.6713866591453552,-0.1831054538488388,0.1831054538488388
372431,0.033447265625,-0.9869384765625,0.1572265625,0.6103515625,-0.2441406100988388,0.30517578125
372447,0.0340576171875,-0.987060546875,0.156494140625,0.6713866591453552,-0.2441406100988388,0.30517578125
372464,0.033935546875,-0.9864501953125,0.156005859375,0.6713866591453552,-0.1831054538488388,0.2441406100988388
372497,0.0338134765625,-0.9866943359375,0.1571044921875,0.6713866591453552,-0.2441406100988388,0.30517578125
372518,0.0338134765625,-0.9864501953125,0.1563720703125,0.6713866591453552,-0.1831054538488388,0.2441406100988388
372534,0.0333251953125,-0.986083984375,0.1551513671875,0.7324218153953552,-0.1831054538488388,0.2441406100988388
372549,0.033203125,-0.9866943359375,0.156494140625,0.6713866591453552,-0.1831054538488388,0.30517578125
372566,0.0340576171875,-0.98583984375,0.15673828125,0.6713866591453552,-0.1831054538488388,0.2441406100988388
372583,0.0352783203125,-0.9852294921875,0.1556396484375,0.6713866591453552,-0.1831054538488388,0.2441406100988388
372612,0.032958984375,-0.986083984375,0.1575927734375,0.7324218153953552,-0.1831054538488388,0.2441406100988388
372628,0.0328369140625,-0.9852294921875,0.1572265625,0.7324218153953552,-0.1831054538488388,0.30517578125
372644,0.033447265625,-0.98681640625,0.1568603515625,0.6713866591453552,-0.1831054538488388,0.2441406100988388
372672,0.0338134765625,-0.985595703125,0.15478515625,0.6103515625,-0.2441406100988388,0.2441406100988388
372694,0.03369140625,-0.986328125,0.1544189453125,0.6103515625,-0.2441406100988388,0.2441406100988388
372710,0.0340576171875,-0.9859619140625,0.1556396484375,0.6103515625,-0.2441406100988388,0.30517578125
372727,0.0335693359375,-0.9869384765625,0.1566162109375,0.6713866591453552,-0.2441406100988388,0.30517578125
372793,0.0338134765625,-0.98681640625,0.15576171875,0.6713866591453552,-0.1831054538488388,0.30517578125
372810,0.0333251953125,-0.986572265625,0.155517578125,0.6713866591453552,-0.1831054538488388,0.30517578125
372826,0.0330810546875,-0.986572265625,0.1573486328125,0.6713866591453552,-0.1831054538488388,0.2441406100988388
372861,0.0340576171875,-0.98583984375,0.1553955078125,0.6713866591453552,-0.2441406100988388,0.30517578125
372898,0.0338134765625,-0.9864501953125,0.1580810546875,0.7324218153953552,-0.1831054538488388,0.2441406100988388
372924,0.033447265625,-0.986083984375,0.15576171875,0.6713866591453552,-0.1831054538488388,0.2441406100988388
372941,0.0328369140625,-0.9866943359375,0.156005859375,0.6713866591453552,-0.2441406100988388,0.2441406100988388
372971,0.033447265625,-0.986572265625,0.1551513671875,0.6103515625,-0.1831054538488388,0.2441406100988388
372987,0.0333251953125,-0.986083984375,0.1558837890625,0.6713866591453552,-0.1831054538488388,0.30517578125
373004,0.0340576171875,-0.9866943359375,0.15673828125,0.7324218153953552,-0.1831054538488388,0.30517578125
373032,0.0341796875,-0.986328125,0.15625,0.6713866591453552,-0.1831054538488388,0.2441406100988388
373054,0.03466796875,-0.985595703125,0.156494140625,0.6103515625,-0.1831054538488388,0.2441406100988388
373070,0.033935546875,-0.98583984375,0.1558837890625,0.6713866591453552,-0.2441406100988388,0.30517578125
373087,0.0330810546875,-0.9871826171875,0.155517578125,0.6713866591453552,-0.1831054538488388,0.2441406100988388
373104,0.0335693359375,-0.9853515625,0.155517578125,0.6103515625,-0.1831054538488388,0.2441406100988388
373120,0.0340576171875,-0.9857177734375,0.155517578125,0.6713866591453552,-0.1831054538488388,0.2441406100988388
373154,0.0335693359375,-0.986083984375,0.1563720703125,0.6713866591453552,-0.1831054538488388,0.2441406100988388
373170,0.0333251953125,-0.986083984375,0.15576171875,0.6713866591453552,-0.1831054538488388,0.2441406100988388
373186,0.033935546875,-0.9871826171875,0.1558837890625,0.6713866591453552,-0.1831054538488388,0.2441406100988388
373235,0.0340576171875,-0.9864501953125,0.15576171875,0.6713866591453552,-0.2441406100988388,0.2441406100988388
373287,0.0341796875,-0.986328125,0.1568603515625,0.7324218153953552,-0.2441406100988388,0.30517578125
373304,0.0341796875,-0.9862060546875,0.15576171875,0.6713866591453552,-0.1831054538488388,0.2441406100988388
373321,0.033935546875,-0.9857177734375,0.1552734375,0.6713866591453552,-0.1831054538488388,0.1831054538488388
373341,0.0340576171875,-0.9862060546875,0.1572265625,0.6713866591453552,-0.1831054538488388,0.1831054538488388
373362,0.0345458984375,-0.9854736328125,0.1561279296875,0.6713866591453552,-0.2441406100988388,0.2441406100988388
373382,0.03369140625,-0.98681640625,0.156494140625,0.6103515625,-0.1831054538488388,0.2441406100988388
373403,0.0343017578125,-0.9853515625,0.1558837890625,0.6713866591453552,-0.1831054538488388,0.2441406100988388
373419,0.0343017578125,-0.9857177734375,0.1551513671875,0.6713866591453552,-0.1831054538488388,0.1831054538488388
373435,0.03369140625,-0.985595703125,0.1551513671875,0.7324218153953552,-0.1831054538488388,0.30517578125
373451,0.03369140625,-0.985107421875,0.15625,0.7324218153953552,-0.2441406100988388,0.30517578125
373473,0.033935546875,-0.9859619140625,0.156494140625,0.6713866591453552,-0.2441406100988388,0.1831054538488388
373489,0.032958984375,-0.9866943359375,0.1561279296875,0.6103515625,-0.2441406100988388,0.2441406100988388
373506,0.0340576171875,-0.98681640625,0.1568603515625,0.6103515625,-0.30517578125,0.2441406100988388
373523,0.034423828125,-0.9864501953125,0.1566162109375,0.6713866591453552,-0.2441406100988388,0.2441406100988388
373539,0.033935546875,-0.985595703125,0.156494140625,0.6103515625,-0.1831054538488388,0.2441406100988388
373572,0.0330810546875,-0.9853515625,0.1546630859375,0.6103515625,-0.2441406100988388,0.30517578125
373594,0.0338134765625,-0.985595703125,0.155517578125,0.6713866591453552,-0.1831054538488388,0.2441406100988388
373610,0.033935546875,-0.986083984375,0.1561279296875,0.6713866591453552,-0.2441406100988388,0.2441406100988388
373627,0.0340576171875,-0.9857177734375,0.156005859375,0.6713866591453552,-0.1831054538488388,0.2441406100988388
373644,0.0335693359375,-0.9862060546875,0.15673828125,0.6713866591453552,-0.1831054538488388,0.30517578125
373660,0.0335693359375,-0.9874267578125,0.156494140625,0.7324218153953552,-0.1831054538488388,0.2441406100988388
373693,0.033935546875,-0.9862060546875,0.1549072265625,0.6713866591453552,-0.2441406100988388,0.2441406100988388
373710,0.0333251953125,-0.98583984375,0.15576171875,0.6103515625,-0.2441406100988388,0.2441406100988388
373726,0.0335693359375,-0.9864501953125,0.1556396484375,0.6713866591453552,-0.2441406100988388,0.1220703050494194
373762,0.0340576171875,-0.9857177734375,0.1563720703125,0.6713866591453552,-0.1831054538488388,0.2441406100988388
373778,0.033447265625,-0.987060546875,0.1571044921875,0.6713866591453552,-0.1831054538488388,0.30517578125
373794,0.0323486328125,-0.98779296875,0.15576171875,0.6713866591453552,-0.1831054538488388,0.2441406100988388
373810,0.0328369140625,-0.987548828125,0.1563720703125,0.7324218153953552,-0.1831054538488388,0.1831054538488388
373827,0.033935546875,-0.9862060546875,0.156982421875,0.6713866591453552,-0.1831054538488388,0.2441406100988388
373848,0.0338134765625,-0.9864501953125,0.1572265625,0.6103515625,-0.1831054538488388,0.1831054538488388
373864,0.034912109375,-0.987060546875,0.15673828125,0.6103515625,-0.2441406100988388,0.30517578125
373882,0.033447265625,-0.9864501953125,0.1566162109375,0.6103515625,-0.1831054538488388,0.30517578125
373899,0.032958984375,-0.986083984375,0.1571044921875,0.6103515625,-0.1831054538488388,0.2441406100988388
373932,0.0333251953125,-0.9857177734375,0.156005859375,0.6713866591453552,-0.1831054538488388,0.3662109076976776
373948,0.0338134765625,-0.98583984375,0.156982421875,0.6713866591453552,-0.1831054538488388,0.2441406100988388
373964,0.0340576171875,-0.9864501953125,0.15478515625,0.6713866591453552,-0.2441406100988388,0.2441406100988388
373992,0.034912109375,-0.9862060546875,0.155517578125,0.6713866591453552,-0.1831054538488388,0.2441406100988388
374014,0.0347900390625,-0.9869384765625,0.15576171875,0.6713866591453552,-0.1831054538488388,0.2441406100988388
374030,0.0328369140625,-0.9869384765625,0.1552734375,0.6713866591453552,-0.1831054538488388,0.2441406100988388
374047,0.033203125,-0.986572265625,0.1563720703125,0.6713866591453552,-0.1831054538488388,0.2441406100988388
374113,0.0333251953125,-0.9866943359375,0.1563720703125,0.6713866591453552,-0.1831054538488388,0.2441406100988388
374130,0.0333251953125,-0.9862060546875,0.15478515625,0.7324218153953552,-0.1831054538488388,0.30517578125
374146,0.0343017578125,-0.986083984375,0.155029296875,0.6713866591453552,-0.1831054538488388,0.2441406100988388
374182,0.03271484375,-0.986328125,0.1553955078125,0.6713866591453552,-0.2441406100988388,0.2441406100988388
374198,0.0338134765625,-0.9862060546875,0.1551513671875,0.7324218153953552,-0.1831054538488388,0.30517578125
374214,0.033935546875,-0.98583984375,0.15576171875,0.6713866591453552,-0.2441406100988388,0.2441406100988388
374230,0.033447265625,-0.9853515625,0.1566162109375,0.7324218153953552,-0.1831054538488388,0.30517578125
374247,0.033203125,-0.9859619140625,0.15576171875,0.6713866591453552,-0.1831054538488388,0.30517578125
374268,0.03369140625,-0.9866943359375,0.155029296875,0.6713866591453552,-0.2441406100988388,0.30517578125
374284,0.0335693359375,-0.9849853515625,0.155517578125,0.6713866591453552,-0.2441406100988388,0.2441406100988388
374301,0.0335693359375,-0.986083984375,0.1561279296875,0.6713866591453552,-0.1831054538488388,0.2441406100988388
374318,0.0341796875,-0.9871826171875,0.1566162109375,0.6713866591453552,-0.1831054538488388,0.1831054538488388
374351,0.03369140625,-0.986328125,0.155029296875,0.6713866591453552,-0.2441406100988388,0.2441406100988388
374368,0.03466796875,-0.986083984375,0.155517578125,0.6713866591453552,-0.1831054538488388,0.2441406100988388
374384,0.0347900390625,-0.9862060546875,0.1563720703125,0.6713866591453552,-0.1831054538488388,0.2441406100988388
374416,0.0343017578125,-0.985595703125,0.156005859375,0.6713866591453552,-0.1831054538488388,0.30517578125
374432,0.03369140625,-0.986328125,0.1561279296875,0.6713866591453552,-0.2441406100988388,0.30517578125
374448,0.033447265625,-0.987060546875,0.15625,0.6713866591453552,-0.30517578125,0.30517578125
374464,0.0335693359375,-0.986083984375,0.15625,0.6713866591453552,-0.2441406100988388,0.30517578125
374484,0.0330810546875,-0.985595703125,0.1551513671875,0.7324218153953552,-0.1831054538488388,0.2441406100988388
374500,0.0333251953125,-0.9852294921875,0.1551513671875,0.6103515625,-0.1831054538488388,0.2441406100988388
374516,0.03271484375,-0.9862060546875,0.154541015625,0.6103515625,-0.1831054538488388,0.2441406100988388
374532,0.0333251953125,-0.9864501953125,0.155029296875,0.7324218153953552,-0.1831054538488388,0.2441406100988388
374548,0.0328369140625,-0.9857177734375,0.15576171875,0.6713866591453552,-0.1831054538488388,0.30517578125
374564,0.0333251953125,-0.9854736328125,0.1553955078125,0.6713866591453552,-0.1831054538488388,0.2441406100988388
374593,0.0335693359375,-0.986572265625,0.1556396484375,0.7324218153953552,-0.1831054538488388,0.30517578125
374614,0.0328369140625,-0.98583984375,0.1566162109375,0.6713866591453552,-0.1220703050494194,0.2441406100988388
374631,0.033203125,-0.9869384765625,0.1563720703125,0.6713866591453552,-0.1831054538488388,0.2441406100988388
374648,0.032470703125,-0.9869384765625,0.1549072265625,0.6713866591453552,-0.1831054538488388,0.30517578125
374664,0.032958984375,-0.9862060546875,0.155517578125,0.7324218153953552,-0.2441406100988388,0.2441406100988388
374685,0.0333251953125,-0.9871826171875,0.1561279296875,0.6713866591453552,-0.1831054538488388,0.2441406100988388
374706,0.033447265625,-0.9864501953125,0.156005859375,0.6713866591453552,-0.1831054538488388,0.2441406100988388
374722,0.03369140625,-0.986083984375,0.156494140625,0.6713866591453552,-0.2441406100988388,0.2441406100988388
374768,0.0338134765625,-0.986083984375,0.1549072265625,0.6713866591453552,-0.1831054538488388,0.3662109076976776
374790,0.034423828125,-0.986328125,0.155029296875,0.6713866591453552,-0.1831054538488388,0.30517578125
374806,0.0340576171875,-0.9859619140625,0.1558837890625,0.6103515625,-0.2441406100988388,0.2441406100988388
374823,0.033203125,-0.9866943359375,0.156494140625,0.6103515625,-0.2441406100988388,0.2441406100988388
374841,0.03369140625,-0.987060546875,0.15673828125,0.6713866591453552,-0.1220703050494194,0.2441406100988388
374857,0.03369140625,-0.9869384765625,0.156494140625,0.6713866591453552,-0.2441406100988388,0.30517578125
374891,0.033447265625,-0.9859619140625,0.154296875,0.6713866591453552,-0.1831054538488388,0.30517578125
374907,0.0335693359375,-0.9854736328125,0.1541748046875,0.6713866591453552,-0.1831054538488388,0.30517578125
374923,0.0343017578125,-0.986083984375,0.1563720703125,0.6713866591453552,-0.1831054538488388,0.2441406100988388
374955,0.033203125,-0.9862060546875,0.15625,0.6713866591453552,-0.1831054538488388,0.2441406100988388
374971,0.033447265625,-0.9869384765625,0.1561279296875,0.6713866591453552,-0.2441406100988388,0.2441406100988388
374987,0.0340576171875,-0.986572265625,0.156005859375,0.6713866591453552,-0.2441406100988388,0.2441406100988388
375003,0.0335693359375,-0.984619140625,0.154052734375,0.7324218153953552,-0.1831054538488388,0.2441406100988388
375023,0.0330810546875,-0.9859619140625,0.154052734375,0.6713866591453552,-0.2441406100988388,0.1831054538488388
375045,0.033447265625,-0.986083984375,0.156005859375,0.6713866591453552,-0.1831054538488388,0.1831054538488388
375061,0.0325927734375,-0.9854736328125,0.1549072265625,0.6713866591453552,-0.1831054538488388,0.2441406100988388
375078,0.03271484375,-0.9854736328125,0.155029296875,0.6713866591453552,-0.1831054538488388,0.2441406100988388
375095,0.0333251953125,-0.986572265625,0.1549072265625,0.6103515625,-0.1831054538488388,0.2441406100988388
375128,0.0330810546875,-0.9857177734375,0.1546630859375,0.6713866591453552,-0.1831054538488388,0.30517578125
375145,0.0340576171875,-0.9862060546875,0.1553955078125,0.6103515625,-0.1220703050494194,0.2441406100988388
375161,0.0340576171875,-0.9862060546875,0.1552734375,0.6103515625,-0.2441406100988388,0.2441406100988388
375193,0.033447265625,-0.9871826171875,0.1553955078125,0.6103515625,-0.1831054538488388,0.2441406100988388
375209,0.0323486328125,-0.9871826171875,0.1553955078125,0.6103515625,-0.1831054538488388,0.2441406100988388
375225,0.032958984375,-0.986572265625,0.1553955078125,0.6713866591453552,-0.1831054538488388,0.30517578125
375257,0.0343017578125,-0.9854736328125,0.1563720703125,0.6713866591453552,-0.1831054538488388,0.2441406100988388
375273,0.0343017578125,-0.9857177734375,0.1544189453125,0.7324218153953552,-0.2441406100988388,0.2441406100988388
375289,0.034423828125,-0.9857177734375,0.154296875,0.7324218153953552,-0.2441406100988388,0.2441406100988388
375305,0.0343017578125,-0.9853515625,0.15478515625,0.6713866591453552,-0.1831054538488388,0.2441406100988388
375329,0.033203125,-0.985595703125,0.1561279296875,0.6103515625,-0.2441406100988388,0.2441406100988388
375345,0.033935546875,-0.986328125,0.156005859375,0.6103515625,-0.1831054538488388,0.30517578125
375362,0.0330810546875,-0.986083984375,0.15576171875,0.6713866591453552,-0.1831054538488388,0.30517578125
375379,0.0328369140625,-0.9866943359375,0.1556396484375,0.6713866591453552,-0.2441406100988388,0.2441406100988388
375395,0.0333251953125,-0.98779296875,0.1556396484375,0.6103515625,-0.1831054538488388,0.30517578125
375429,0.034423828125,-0.98681640625,0.156005859375,0.6713866591453552,-0.1831054538488388,0.2441406100988388
375446,0.0333251953125,-0.9862060546875,0.1551513671875,0.6713866591453552,-0.1831054538488388,0.30517578125
375467,0.032958984375,-0.9854736328125,0.1541748046875,0.6713866591453552,-0.1831054538488388,0.30517578125
375483,0.03369140625,-0.98583984375,0.156005859375,0.6713866591453552,-0.1831054538488388,0.2441406100988388
375500,0.032958984375,-0.985595703125,0.15576171875,0.6713866591453552,-0.2441406100988388,0.1831054538488388
375517,0.033447265625,-0.9866943359375,0.156005859375,0.6713866591453552,-0.1831054538488388,0.30517578125
375550,0.0335693359375,-0.9862060546875,0.15673828125,0.6713866591453552,-0.1831054538488388,0.30517578125
375567,0.0333251953125,-0.9873046875,0.1563720703125,0.6713866591453552,-0.2441406100988388,0.2441406100988388
375583,0.0340576171875,-0.98779296875,0.1546630859375,0.6713866591453552,-0.1831054538488388,0.30517578125
375615,0.033447265625,-0.9847412109375,0.15576171875,0.7324218153953552,-0.1831054538488388,0.30517578125
375631,0.0341796875,-0.9869384765625,0.154541015625,0.6713866591453552,-0.2441406100988388,0.2441406100988388
375647,0.0343017578125,-0.98779296875,0.15576171875,0.6713866591453552,-0.2441406100988388,0.1831054538488388
375663,0.0328369140625,-0.9847412109375,0.155517578125,0.7324218153953552,-0.2441406100988388,0.30517578125
375683,0.0322265625,-0.985107421875,0.1546630859375,0.6713866591453552,-0.1831054538488388,0.2441406100988388
375704,0.0321044921875,-0.986083984375,0.155517578125,0.6103515625,-0.1831054538488388,0.30517578125
375720,0.0355224609375,-0.98876953125,0.1552734375,0.6103515625,-0.1831054538488388,0.30517578125
375741,0.0341796875,-0.98779296875,0.1553955078125,0.6713866591453552,-0.1220703050494194,0.2441406100988388
375758,0.033203125,-0.98193359375,0.1553955078125,0.6713866591453552,-0.1831054538488388,0.30517578125
375774,0.0338134765625,-0.98828125,0.1566162109375,0.6713866591453552,-0.1831054538488388,0.30517578125
375791,0.0345458984375,-0.9815673828125,0.155029296875,0.6103515625,-0.1831054538488388,0.30517578125
375807,0.0343017578125,-0.980224609375,0.15576171875,0.6713866591453552,-0.2441406100988388,0.30517578125
375856,0.033447265625,-0.98583984375,0.1553955078125,0.6713866591453552,-0.1831054538488388,0.2441406100988388
375872,0.03369140625,-0.9837646484375,0.1553955078125,0.6103515625,-0.2441406100988388,0.2441406100988388
375888,0.0340576171875,-0.9818115234375,0.154541015625,0.6103515625,-0.2441406100988388,0.2441406100988388
375904,0.03369140625,-0.9852294921875,0.1539306640625,0.6103515625,-0.2441406100988388,0.3662109076976776
375929,0.0323486328125,-0.9940185546875,0.15625,0.6103515625,-0.1831054538488388,0.2441406100988388
375945,0.0341796875,-0.9847412109375,0.1544189453125,0.6713866591453552,-0.1831054538488388,0.1831054538488388
375962,0.03466796875,-0.98095703125,0.1541748046875,0.6713866591453552,-0.1831054538488388,0.1831054538488388
375979,0.03369140625,-0.9847412109375,0.1558837890625,0.6103515625,-0.2441406100988388,0.2441406100988388
375999,0.0333251953125,-0.989501953125,0.15625,0.6103515625,-0.2441406100988388,0.30517578125
376035,0.03369140625,-0.9866943359375,0.1549072265625,0.6713866591453552,-0.1831054538488388,0.30517578125
376052,0.0352783203125,-0.98486328125,0.1544189453125,0.6713866591453552,-0.1831054538488388,0.30517578125
376068,0.03369140625,-0.98291015625,0.15478515625,0.6713866591453552,-0.1831054538488388,0.2441406100988388
376088,0.0313720703125,-0.99169921875,0.15625,0.6713866591453552,-0.1831054538488388,0.2441406100988388
376110,0.03369140625,-0.9859619140625,0.1561279296875,0.6103515625,-0.2441406100988388,0.2441406100988388
376126,0.0335693359375,-0.9786376953125,0.1536865234375,0.6103515625,-0.1831054538488388,0.2441406100988388
376143,0.033447265625,-0.9932861328125,0.1551513671875,0.6103515625,-0.2441406100988388,0.2441406100988388
376162,0.032958984375,-0.9930419921875,0.1561279296875,0.7324218153953552,-0.2441406100988388,0.2441406100988388
376178,0.0330810546875,-0.9857177734375,0.1553955078125,0.6713866591453552,-0.2441406100988388,0.2441406100988388
376211,0.034423828125,-0.988037109375,0.1566162109375,0.6713866591453552,-0.2441406100988388,0.2441406100988388
376228,0.033935546875,-0.98486328125,0.1553955078125,0.6713866591453552,-0.1831054538488388,0.2441406100988388
376244,0.032958984375,-0.98193359375,0.15576171875,0.6713866591453552,-0.1831054538488388,0.2441406100988388
376275,0.034423828125,-0.9901123046875,0.156982421875,0.6103515625,-0.1831054538488388,0.2441406100988388
376296,0.032958984375,-0.982177734375,0.15576171875,0.6103515625,-0.1220703050494194,0.2441406100988388
376313,0.0328369140625,-0.9842529296875,0.15625,0.6713866591453552,-0.1831054538488388,0.30517578125
376330,0.032958984375,-0.990234375,0.1556396484375,0.6713866591453552,-0.1831054538488388,0.3662109076976776
376346,0.0341796875,-0.98583984375,0.1556396484375,0.6713866591453552,-0.2441406100988388,0.30517578125
376363,0.03369140625,-0.98779296875,0.156005859375,0.6713866591453552,-0.2441406100988388,0.30517578125
376396,0.0338134765625,-0.9869384765625,0.153564453125,0.6713866591453552,-0.1831054538488388,0.2441406100988388
376444,0.033935546875,-0.985107421875,0.1558837890625,0.6713866591453552,-0.2441406100988388,0.30517578125
376466,0.03369140625,-0.9884033203125,0.15576171875,0.6713866591453552,-0.2441406100988388,0.2441406100988388
376483,0.033935546875,-0.9881591796875,0.1544189453125,0.6713866591453552,-0.2441406100988388,0.1831054538488388
376520,0.0330810546875,-0.986083984375,0.15478515625,0.6713866591453552,-0.1831054538488388,0.3662109076976776
376537,0.03369140625,-0.9837646484375,0.154296875,0.6713866591453552,-0.1831054538488388,0.2441406100988388
376553,0.0325927734375,-0.989013671875,0.1552734375,0.7324218153953552,-0.2441406100988388,0.2441406100988388
376570,0.0322265625,-0.9893798828125,0.155029296875,0.6713866591453552,-0.2441406100988388,0.2441406100988388
376587,0.032958984375,-0.9854736328125,0.155517578125,0.6103515625,-0.1831054538488388,0.2441406100988388
376608,0.03369140625,-0.9852294921875,0.1544189453125,0.6713866591453552,-0.2441406100988388,0.2441406100988388
376624,0.033203125,-0.9874267578125,0.155029296875,0.7324218153953552,-0.1831054538488388,0.2441406100988388
376641,0.032958984375,-0.985595703125,0.15478515625,0.7324218153953552,-0.1831054538488388,0.30517578125
376658,0.0340576171875,-0.9879150390625,0.1558837890625,0.7324218153953552,-0.2441406100988388,0.30517578125
376691,0.0341796875,-0.987060546875,0.1541748046875,0.6713866591453552,-0.1831054538488388,0.2441406100988388
376708,0.0341796875,-0.986083984375,0.154052734375,0.7324218153953552,-0.1220703050494194,0.30517578125
376724,0.032958984375,-0.9879150390625,0.153076171875,0.6713866591453552,-0.1220703050494194,0.2441406100988388
376756,0.0347900390625,-0.9818115234375,0.16748046875,1.4648436307907104,-0.2441406100988388,0.1831054538488388
376772,0.0352783203125,-0.9893798828125,0.159912109375,1.7700194120407104,-0.2441406100988388,0.1831054538488388
376788,0.0347900390625,-0.9808349609375,0.15869140625,2.197265625,-0.2441406100988388,0.1220703050494194
376804,0.0330810546875,-0.98681640625,0.1549072265625,2.3193359375,-0.2441406100988388,0.1220703050494194
376829,0.031005859375,-0.9869384765625,0.1510009765625,2.50244140625,-0.1831054538488388,0.1220703050494194
376845,0.0345458984375,-0.9873046875,0.1578369140625,2.685546636581421,-0.1220703050494194,0.1220703050494194
376862,0.03466796875,-0.9857177734375,0.15771484375,3.051757574081421,-0.1831054538488388,0.1831054538488388
376912,0.0313720703125,-0.985595703125,0.1484375,4.150390625,-0.1220703050494194,0.1220703050494194
376945,0.034423828125,-0.9854736328125,0.156005859375,4.5166015625,0.0,0.1220703050494194
376962,0.03466796875,-0.984375,0.1580810546875,5.0048828125,0.0610351525247097,0.1831054538488388
376995,0.030029296875,-0.9854736328125,0.1407470703125,5.981444835662842,-0.0610351525247097,0.0610351525247097
377012,0.031005859375,-0.9844970703125,0.141357421875,6.225585460662842,0.1220703050494194,0.2441406100988388
377028,0.033447265625,-0.9840087890625,0.14453125,6.591796398162842,0.1220703050494194,0.4882812201976776
377045,0.033935546875,-0.977783203125,0.1424560546875,6.835937023162842,0.1831054538488388,0.7324218153953552
377065,0.03271484375,-0.9815673828125,0.138671875,7.263183116912842,0.3662109076976776,1.4648436307907104
377081,0.0299072265625,-0.98974609375,0.1300048828125,7.568358898162842,0.4272460639476776,2.624511480331421
377097,0.022216796875,-1.021484375,0.11865234375,6.652831554412842,0.7324218153953552,2.44140625
377118,0.02001953125,-0.9920654296875,0.1212158203125,6.103515148162842,0.9155272841453552,2.868652105331421
377134,0.03125,-1.0523681640625,0.159912109375,6.713866710662842,1.220703125,3.784179449081421
377151,0.0201416015625,-1.3330078125,0.2142333984375,9.33837890625,0.54931640625,0.9765624403953552
377168,0.015380859375,-1.4520263671875,0.1868896484375,10.253905296325684,0.0,-1.0986328125
377185,0.016845703125,-1.462158203125,0.17529296875,12.023924827575684,0.1220703050494194,-4.0283203125
377205,0.0194091796875,-1.451416015625,0.1907958984375,12.512206077575684,0.0610351525247097,-6.286620616912842
377226,0.019775390625,-1.3681640625,0.1954345703125,11.718749046325684,0.0,-7.995604991912842
377242,0.017822265625,-1.355712890625,0.1849365234375,10.498045921325684,-0.1831054538488388,-8.7890625
377258,0.020751953125,-1.341064453125,0.1956787109375,9.3994140625,-0.30517578125,-9.27734375
377290,0.022216796875,-1.5185546875,0.23828125,9.8876953125,-0.6713866591453552,-10.559081077575684
377307,0.0087890625,-1.4786376953125,0.190673828125,10.986327171325684,-1.0986328125,-12.939452171325684
377328,0.004638671875,-1.4163818359375,0.176025390625,11.413573265075684,-1.03759765625,-12.939452171325684
377344,-0.0086669921875,-1.3519287109375,0.1500244140625,11.718749046325684,-0.8544921278953552,-12.329100608825684
377361,-0.0184326171875,-1.2835693359375,0.1414794921875,11.596678733825684,-0.7934569716453552,-11.962889671325684
377378,-0.0230712890625,-1.188232421875,0.1319580078125,10.742186546325684,-0.7324218153953552,-10.559081077575684
377411,-0.0157470703125,-1.1529541015625,0.12158203125,9.09423828125,-0.6713866591453552,-5.432128429412842
377428,-0.0145263671875,-1.1695556640625,0.1005859375,8.30078125,-0.7934569716453552,-3.112792730331421
377444,-0.0142822265625,-1.1693115234375,0.084716796875,7.812499523162842,-0.6713866591453552,-2.197265625
377477,0.0089111328125,-1.1651611328125,0.0721435546875,6.103515148162842,-0.2441406100988388,0.30517578125
377498,0.016845703125,-1.1566162109375,0.074951171875,5.0048828125,-0.2441406100988388,1.4038084745407104
377514,0.0294189453125,-1.1173095703125,0.0743408203125,3.967284917831421,-0.1831054538488388,2.38037109375
377531,0.0352783203125,-1.0980224609375,0.0714111328125,3.601073980331421,-0.1831054538488388,2.929687261581421
377548,0.0333251953125,-1.1197509765625,0.0804443359375,3.051757574081421,-0.2441406100988388,3.540038824081421
377564,0.0308837890625,-1.0926513671875,0.074951171875,2.685546636581421,-0.4882812201976776,3.112792730331421
377602,0.0286865234375,-0.982666015625,0.0570068359375,2.25830078125,-0.4882812201976776,3.112792730331421
377618,0.0302734375,-0.94287109375,0.050537109375,1.9531248807907104,-0.4882812201976776,3.051757574081421
377634,0.0313720703125,-0.9393310546875,0.0478515625,1.8920897245407104,-0.4272460639476776,2.990722417831421
377650,0.0321044921875,-0.92919921875,0.0628662109375,2.0751953125,-0.4272460639476776,2.624511480331421
377667,0.0316162109375,-0.93603515625,0.0694580078125,2.3193359375,-0.4882812201976776,2.0751953125
377688,0.0281982421875,-0.88232421875,0.0716552734375,2.807616949081421,-0.6713866591453552,0.7324218153953552
377754,0.00830078125,-0.56494140625,0.04150390625,1.2817381620407104,-0.54931640625,1.15966796875
377805,0.007568359375,-0.5218505859375,0.0538330078125,0.6713866591453552,-0.6713866591453552,1.9531248807907104
377850,0.002197265625,-0.4693603515625,0.033935546875,-0.1831054538488388,-0.4272460639476776,3.173827886581421
377867,0.0030517578125,-0.5205078125,0.0301513671875,-0.7324218153953552,-0.1831054538488388,4.21142578125
377883,0.0089111328125,-0.6209716796875,0.0428466796875,-0.7934569716453552,-0.1220703050494194,4.21142578125
377902,0.01416015625,-0.701904296875,0.048095703125,-0.4272460639476776,-0.1831054538488388,2.929687261581421
377919,0.0135498046875,-0.6885986328125,0.04931640625,-0.1220703050494194,-0.30517578125,2.3193359375
377935,0.0106201171875,-0.6949462890625,0.0372314453125,-0.1220703050494194,-0.30517578125,2.44140625
377967,0.0096435546875,-0.827880859375,0.0367431640625,-0.30517578125,-0.1220703050494194,2.0751953125
378046,0.000732421875,-0.8294677734375,0.038330078125,-0.8544921278953552,0.0610351525247097,0.8544921278953552
378091,-0.0020751953125,-0.868896484375,0.022705078125,-2.563476324081421,0.3662109076976776,2.563476324081421
378108,0.001220703125,-0.8863525390625,0.03125,-2.868652105331421,0.6103515625,3.295898199081421
378125,0.013427734375,-0.9334716796875,0.0611572265625,-2.50244140625,0.4882812201976776,3.845214605331421
378141,0.0186767578125,-0.9952392578125,0.0621337890625,-2.0751953125,0.3662109076976776,3.906249761581421
378158,0.02099609375,-1.0257568359375,0.057861328125,-1.0986328125,0.2441406100988388,3.723144292831421
378191,0.0277099609375,-1.08544921875,0.0509033203125,1.220703125,0.1220703050494194,2.13623046875
378208,0.0284423828125,-1.0751953125,0.0479736328125,1.7700194120407104,0.1220703050494194,1.8310545682907104
378229,0.0289306640625,-1.10546875,0.050048828125,2.746581792831421,-0.1831054538488388,0.9155272841453552
378245,0.023193359375,-1.0966796875,0.032958984375,3.356933355331421,-0.30517578125,-0.54931640625
378262,0.0179443359375,-1.0478515625,0.0145263671875,3.479003667831421,-0.3662109076976776,-1.220703125
378279,0.015625,-1.0260009765625,0.00830078125,3.540038824081421,-0.30517578125,-2.01416015625
378312,0.011474609375,-0.9964599609375,0.0045166015625,2.807616949081421,-0.30517578125,-3.051757574081421
378328,0.0108642578125,-0.999267578125,0.006103515625,2.563476324081421,-0.2441406100988388,-3.417968511581421
378344,0.0086669921875,-0.986572265625,0.0096435546875,2.38037109375,-0.2441406100988388,-3.967284917831421
378374,0.0113525390625,-1.00244140625,0.0152587890625,2.3193359375,-0.1831054538488388,-4.2724609375
378395,0.013916015625,-0.9993896484375,0.02587890625,2.44140625,-0.0610351525247097,-4.7607421875
378411,0.0125732421875,-0.9788818359375,0.034912109375,2.50244140625,-0.0610351525247097,-4.69970703125
378428,0.0106201171875,-0.9864501953125,0.041259765625,2.868652105331421,0.0610351525247097,-4.33349609375
378445,0.0087890625,-1.007080078125,0.0574951171875,3.112792730331421,0.1220703050494194,-4.2724609375
378461,0.01220703125,-1.0147705078125,0.07421875,3.784179449081421,0.1831054538488388,-4.2724609375
378492,0.01513671875,-1.0133056640625,0.0771484375,5.554198741912842,-0.1220703050494194,-4.33349609375
378514,0.0135498046875,-1.0096435546875,0.0738525390625,5.859374523162842,-0.1220703050494194,-4.39453125
378530,0.0087890625,-0.9862060546875,0.068115234375,6.286620616912842,-0.1831054538488388,-4.39453125
378547,0.0028076171875,-0.951904296875,0.064453125,6.469726085662842,-0.0610351525247097,-3.906249761581421
378564,-0.0006103515625,-0.970947265625,0.070068359375,6.530761241912842,-0.0610351525247097,-3.479003667831421
378585,-0.002197265625,-0.9700927734375,0.0672607421875,6.530761241912842,-0.1831054538488388,-3.234863042831421
378605,-0.0047607421875,-0.949462890625,0.0609130859375,6.408690929412842,-0.30517578125,-2.807616949081421
378622,-0.0069580078125,-0.9453125,0.0587158203125,6.103515148162842,-0.3662109076976776,-2.197265625
378638,-0.008544921875,-0.9453125,0.0572509765625,5.798339366912842,-0.4272460639476776,-1.9531248807907104
378670,-0.01318359375,-0.9276123046875,0.0516357421875,4.7607421875,-0.6103515625,-1.0986328125
378692,-0.01416015625,-0.9295654296875,0.0518798828125,3.906249761581421,-0.6713866591453552,-0.2441406100988388
378708,-0.0142822265625,-0.93896484375,0.0511474609375,3.234863042831421,-0.7324218153953552,0.6103515625
378725,-0.015380859375,-0.951171875,0.056884765625,2.868652105331421,-0.7934569716453552,0.9765624403953552
378742,-0.0147705078125,-0.94189453125,0.0499267578125,2.197265625,-0.9765624403953552,1.5258787870407104
378758,-0.0133056640625,-0.9422607421875,0.0482177734375,1.5258787870407104,-1.0986328125,2.38037109375
378792,-0.0047607421875,-0.9744873046875,0.054443359375,0.30517578125,-1.3427733182907104,3.356933355331421
378808,-0.0025634765625,-0.9703369140625,0.052734375,0.0610351525247097,-1.4038084745407104,3.540038824081421
378824,0.00146484375,-0.9774169921875,0.0548095703125,-0.30517578125,-1.5258787870407104,4.0283203125
378854,0.009033203125,-1.0003662109375,0.06103515625,-0.4272460639476776,-1.7089842557907104,4.0283203125
378875,0.0106201171875,-1.0020751953125,0.0609130859375,-0.4272460639476776,-1.7700194120407104,3.967284917831421
378891,0.014404296875,-1.007080078125,0.0572509765625,-0.2441406100988388,-1.8920897245407104,3.906249761581421
378908,0.016357421875,-1.014892578125,0.0552978515625,-0.1220703050494194,-1.8920897245407104,3.479003667831421
378925,0.018798828125,-1.0238037109375,0.0595703125,0.0,-1.8920897245407104,3.234863042831421
378941,0.022705078125,-1.033203125,0.0633544921875,0.4272460639476776,-2.01416015625,2.624511480331421
378972,0.022705078125,-1.02880859375,0.0616455078125,1.15966796875,-2.3193359375,1.220703125
378994,0.0211181640625,-1.0267333984375,0.060791015625,1.220703125,-2.38037109375,0.9765624403953552
379010,0.018310546875,-1.02197265625,0.05126953125,1.2817381620407104,-2.44140625,0.2441406100988388
379027,0.016357421875,-1.00146484375,0.0479736328125,1.2817381620407104,-2.38037109375,0.0610351525247097
379044,0.0162353515625,-0.9993896484375,0.049560546875,1.5258787870407104,-2.38037109375,-0.30517578125
379060,0.0155029296875,-0.9942626953125,0.046875,1.8310545682907104,-2.50244140625,-0.6713866591453552
379094,0.0146484375,-0.9815673828125,0.0352783203125,1.7089842557907104,-2.38037109375,-0.8544921278953552
379110,0.0142822265625,-0.9801025390625,0.034912109375,1.5869139432907104,-2.38037109375,-0.9765624403953552
379126,0.012451171875,-0.953369140625,0.03173828125,1.220703125,-2.44140625,-1.03759765625
379162,0.0086669921875,-0.93359375,0.021484375,0.6103515625,-2.3193359375,-0.30517578125
379184,0.00634765625,-0.937744140625,0.01953125,0.0,-2.197265625,-0.1831054538488388
379200,0.0042724609375,-0.919677734375,0.0174560546875,-0.4882812201976776,-2.13623046875,-0.0610351525247097
379221,0.0040283203125,-0.8883056640625,0.0174560546875,-0.9765624403953552,-2.01416015625,0.30517578125
379238,0.0035400390625,-0.887939453125,0.0146484375,-1.15966796875,-1.9531248807907104,0.7324218153953552
379254,0.0037841796875,-0.9017333984375,0.0142822265625,-1.8310545682907104,-1.7700194120407104,1.15966796875
379271,0.0052490234375,-0.9093017578125,0.0184326171875,-2.50244140625,-1.5869139432907104,1.2817381620407104
379287,0.0045166015625,-0.9078369140625,0.019775390625,-2.990722417831421,-1.5869139432907104,1.15966796875
379304,0.00439453125,-0.89453125,0.02197265625,-3.723144292831421,-1.5258787870407104,1.2817381620407104
379337,0.005126953125,-0.8670654296875,0.0177001953125,-5.493163585662842,-1.3427733182907104,1.5258787870407104
379358,0.0028076171875,-0.84716796875,0.0115966796875,-6.103515148162842,-1.2817381620407104,1.7700194120407104
379374,-0.000732421875,-0.8809814453125,0.025390625,-7.263183116912842,-0.9765624403953552,2.44140625
379391,-0.0029296875,-0.878662109375,0.028076171875,-8.4228515625,-0.9155272841453552,2.25830078125
379408,-0.0040283203125,-0.837158203125,0.0343017578125,-8.97216796875,-0.9155272841453552,2.3193359375
379424,-0.0028076171875,-0.8310546875,0.02880859375,-9.765625,-0.9155272841453552,3.112792730331421
379462,0.0040283203125,-0.880126953125,0.0413818359375,-10.803221702575684,-0.4272460639476776,4.45556640625
379478,0.0064697265625,-0.9281005859375,0.0638427734375,-10.681151390075684,-0.2441406100988388,4.45556640625
379494,0.0062255859375,-0.9298095703125,0.0693359375,-10.192870140075684,-0.3662109076976776,3.967284917831421
379510,0.0081787109375,-0.9208984375,0.0706787109375,-10.009765625,-0.3662109076976776,3.906249761581421
379527,0.0133056640625,-0.92333984375,0.06005859375,-9.70458984375,-0.30517578125,4.08935546875
379548,0.0198974609375,-0.9609375,0.06884765625,-9.521484375,-0.1831054538488388,4.0283203125
379564,0.0244140625,-0.974365234375,0.080322265625,-8.97216796875,-0.1220703050494194,3.173827886581421
379581,0.026611328125,-0.955810546875,0.0906982421875,-8.056640625,-0.2441406100988388,2.01416015625
379631,0.0234375,-0.9437255859375,0.082763671875,-6.042479991912842,-0.4882812201976776,1.7089842557907104
379647,0.01708984375,-0.993896484375,0.088134765625,-4.8828125,-0.2441406100988388,1.3427733182907104
379663,0.0157470703125,-1.0335693359375,0.093505859375,-4.0283203125,-0.1220703050494194,0.8544921278953552
379696,0.014404296875,-0.879638671875,0.09130859375,-1.2817381620407104,-0.4272460639476776,-1.5258787870407104
379712,0.0133056640625,-0.8072509765625,0.0802001953125,-1.0986328125,-0.2441406100988388,-0.7934569716453552
379728,0.0133056640625,-0.8011474609375,0.0693359375,-1.3427733182907104,0.0610351525247097,0.9765624403953552
379744,0.0157470703125,-0.9053955078125,0.077392578125,-1.5869139432907104,0.1831054538488388,1.4038084745407104
379764,0.0216064453125,-0.9605712890625,0.0867919921875,-1.7089842557907104,0.30517578125,1.03759765625
379786,0.0264892578125,-0.97021484375,0.096923828125,-1.4038084745407104,0.4882812201976776,0.3662109076976776
379802,0.03173828125,-0.9534912109375,0.103759765625,-0.7934569716453552,0.3662109076976776,0.0610351525247097
379819,0.0321044921875,-0.9627685546875,0.107666015625,-0.54931640625,0.3662109076976776,0.2441406100988388
379836,0.0303955078125,-1.0006103515625,0.1031494140625,-0.30517578125,0.4272460639476776,0.3662109076976776
379869,0.0216064453125,-0.9691162109375,0.0966796875,0.30517578125,0.6103515625,-0.4882812201976776
379886,0.0147705078125,-0.92919921875,0.103271484375,0.6103515625,0.6713866591453552,-0.0610351525247097
379902,0.0111083984375,-0.9207763671875,0.0972900390625,0.4882812201976776,0.7324218153953552,0.1831054538488388
379934,0.0107421875,-0.9166259765625,0.0968017578125,0.0,1.03759765625,0.9155272841453552
379998,0.023193359375,-1.0115966796875,0.11474609375,0.3662109076976776,1.2817381620407104,1.6479490995407104
380014,0.0262451171875,-1.0194091796875,0.1170654296875,0.7934569716453552,1.4038084745407104,1.5258787870407104
380030,0.0343017578125,-1.044677734375,0.1397705078125,1.8310545682907104,1.4038084745407104,0.9155272841453552
380050,0.03369140625,-1.0048828125,0.1307373046875,2.929687261581421,1.2817381620407104,0.6713866591453552
380072,0.031982421875,-1.028564453125,0.123779296875,3.784179449081421,1.3427733182907104,1.0986328125
380088,0.0291748046875,-1.07568359375,0.1170654296875,4.2724609375,1.5258787870407104,1.0986328125
380109,0.0281982421875,-1.099609375,0.120849609375,5.371093273162842,1.7700194120407104,0.8544921278953552
380126,0.029541015625,-1.1129150390625,0.1317138671875,6.530761241912842,1.8310545682907104,0.0
380142,0.0338134765625,-1.0523681640625,0.120849609375,7.385253429412842,1.8310545682907104,-0.2441406100988388
380192,0.0411376953125,-1.047607421875,0.1114501953125,7.568358898162842,2.13623046875,0.3662109076976776
380244,0.02734375,-1.0462646484375,0.11572265625,7.019042491912842,2.0751953125,2.25830078125
380261,0.029296875,-1.12841796875,0.106689453125,6.896972179412842,2.01416015625,2.197265625
380294,0.02734375,-1.0732421875,0.0926513671875,6.652831554412842,2.01416015625,0.9155272841453552
380327,0.031982421875,-1.076416015625,0.082763671875,5.493163585662842,2.0751953125,3.051757574081421
380369,0.0263671875,-1.134765625,0.088623046875,5.126952648162842,1.9531248807907104,1.9531248807907104
380386,0.0218505859375,-1.0784912109375,0.083251953125,4.45556640625,1.7700194120407104,1.4648436307907104
380419,0.0174560546875,-1.12353515625,0.0694580078125,2.746581792831421,1.8310545682907104,3.417968511581421
380483,0.031982421875,-1.060791015625,0.085205078125,0.30517578125,1.5258787870407104,2.3193359375
380500,0.0316162109375,-1.09619140625,0.085693359375,0.0,1.5869139432907104,2.624511480331421
380531,0.0296630859375,-1.1341552734375,0.0885009765625,-0.8544921278953552,1.4648436307907104,1.3427733182907104
380547,0.0299072265625,-1.078125,0.085205078125,-1.03759765625,1.3427733182907104,0.9765624403953552
380564,0.0322265625,-1.0537109375,0.084716796875,-1.0986328125,1.220703125,1.220703125
380594,0.040283203125,-1.1341552734375,0.0863037109375,-1.3427733182907104,1.3427733182907104,0.9155272841453552
380616,0.036376953125,-1.1251220703125,0.0914306640625,-0.9765624403953552,1.15966796875,-0.1831054538488388
380632,0.0318603515625,-1.0804443359375,0.091796875,-0.8544921278953552,1.0986328125,-0.4882812201976776
380649,0.02880859375,-1.04638671875,0.0875244140625,-0.6713866591453552,0.9765624403953552,-0.6713866591453552
380666,0.0283203125,-1.042724609375,0.0885009765625,-0.7934569716453552,0.9155272841453552,-0.54931640625
380682,0.0252685546875,-1.037841796875,0.0816650390625,-1.03759765625,0.8544921278953552,-0.6713866591453552
380712,0.0223388671875,-1.0225830078125,0.0933837890625,-1.6479490995407104,0.7324218153953552,-0.7324218153953552
380729,0.0223388671875,-1.0074462890625,0.091552734375,-2.01416015625,0.4272460639476776,-0.6103515625
380745,0.023193359375,-1.0037841796875,0.091796875,-2.197265625,0.3662109076976776,-0.54931640625
380777,0.0240478515625,-1.04248046875,0.09423828125,-2.685546636581421,0.2441406100988388,0.1831054538488388
380793,0.0244140625,-1.06298828125,0.0950927734375,-2.807616949081421,0.0,-0.3662109076976776
380809,0.0255126953125,-1.0291748046875,0.091064453125,-2.807616949081421,-0.2441406100988388,-0.7934569716453552
380825,0.0267333984375,-1.0048828125,0.0904541015625,-2.807616949081421,-0.2441406100988388,-0.7324218153953552
380849,0.027587890625,-0.9677734375,0.0894775390625,-2.929687261581421,-0.30517578125,-0.0610351525247097
380865,0.0303955078125,-1.0152587890625,0.098388671875,-2.807616949081421,-0.4272460639476776,0.3662109076976776
380882,0.0286865234375,-1.0177001953125,0.09375,-2.807616949081421,-0.54931640625,0.0610351525247097
380903,0.0283203125,-0.999755859375,0.093994140625,-2.563476324081421,-0.6713866591453552,-0.30517578125
380919,0.0303955078125,-0.9837646484375,0.09765625,-2.3193359375,-0.6713866591453552,0.0
380952,0.0308837890625,-1.000732421875,0.099853515625,-1.8920897245407104,-1.03759765625,0.2441406100988388
380969,0.0340576171875,-1.0152587890625,0.1055908203125,-1.5869139432907104,-1.0986328125,0.1831054538488388
380985,0.035888671875,-1.0257568359375,0.1075439453125,-0.6713866591453552,-1.15966796875,0.2441406100988388
381016,0.0423583984375,-1.0279541015625,0.1048583984375,0.6103515625,-1.4648436307907104,-0.1220703050494194
381038,0.0394287109375,-1.0145263671875,0.1041259765625,1.03759765625,-1.5869139432907104,-0.1220703050494194
381054,0.0506591796875,-0.9365234375,0.0926513671875,-0.0610351525247097,-1.5258787870407104,1.4038084745407104
381071,0.0467529296875,-0.90087890625,0.0902099609375,-1.5869139432907104,-1.3427733182907104,3.601073980331421
381088,0.0389404296875,-0.9697265625,0.0980224609375,-3.417968511581421,-1.2817381620407104,5.981444835662842
381104,0.0428466796875,-1.0224609375,0.102294921875,-1.220703125,-1.5869139432907104,4.69970703125
381141,0.0780029296875,-1.258544921875,0.0704345703125,8.4228515625,-1.220703125,-2.0751953125
381158,0.0560302734375,-1.0030517578125,0.0780029296875,7.446288585662842,-1.0986328125,-2.44140625
381174,0.03515625,-0.8543701171875,0.107421875,5.920409679412842,-1.0986328125,-1.4648436307907104
381190,0.0299072265625,-0.913818359375,0.0677490234375,7.812499523162842,-1.3427733182907104,-1.7089842557907104
381212,0.0321044921875,-0.91552734375,0.0762939453125,7.690429210662842,-1.15966796875,-1.6479490995407104
381228,0.0177001953125,-0.9117431640625,0.056396484375,4.69970703125,-0.9155272841453552,-0.2441406100988388
381245,0.0179443359375,-1.099609375,0.06787109375,-0.4272460639476776,-0.3662109076976776,1.9531248807907104
381311,0.0191650390625,-1.018798828125,0.0946044921875,-1.03759765625,-0.3662109076976776,0.4882812201976776
381328,0.020751953125,-1.1268310546875,0.092041015625,-0.3662109076976776,-0.4272460639476776,0.0610351525247097
381344,0.03955078125,-0.978515625,0.0794677734375,-0.6713866591453552,-0.6713866591453552,-0.7934569716453552
381373,0.032958984375,-1.0413818359375,0.089111328125,-1.15966796875,-0.4272460639476776,0.2441406100988388
381395,0.0281982421875,-0.990966796875,0.08349609375,-1.2817381620407104,-0.3662109076976776,-0.2441406100988388
381411,0.0311279296875,-0.97216796875,0.08349609375,-1.2817381620407104,-0.3662109076976776,-0.0610351525247097
381428,0.0308837890625,-1.0108642578125,0.082763671875,-1.2817381620407104,-0.2441406100988388,0.1220703050494194
381449,0.034912109375,-0.994140625,0.0867919921875,-1.5258787870407104,-0.4882812201976776,0.0
381465,0.0338134765625,-0.9896240234375,0.0845947265625,-1.7089842557907104,-0.3662109076976776,0.1220703050494194
381486,0.029052734375,-1.0010986328125,0.080810546875,-2.197265625,-0.3662109076976776,0.0
381503,0.0325927734375,-0.9892578125,0.0982666015625,-2.38037109375,-0.3662109076976776,0.2441406100988388
381523,0.03076171875,-0.98974609375,0.0911865234375,-2.3193359375,-0.2441406100988388,0.30517578125
381553,0.029541015625,-0.9912109375,0.0897216796875,-1.8920897245407104,-0.2441406100988388,0.1220703050494194
381574,0.031005859375,-0.989501953125,0.098388671875,-1.8310545682907104,-0.2441406100988388,0.1220703050494194
381590,0.0322265625,-0.99609375,0.0943603515625,-1.5258787870407104,-0.2441406100988388,0.1220703050494194
381607,0.0335693359375,-0.989501953125,0.1038818359375,-1.2817381620407104,-0.30517578125,0.1220703050494194
381624,0.0318603515625,-0.9862060546875,0.097412109375,-1.15966796875,-0.30517578125,0.1220703050494194
381641,0.0328369140625,-0.9910888671875,0.100830078125,-0.8544921278953552,-0.30517578125,0.1220703050494194
381673,0.033203125,-0.9945068359375,0.1002197265625,-0.30517578125,-0.2441406100988388,0.3662109076976776
381695,0.031982421875,-0.993896484375,0.0970458984375,-0.1831054538488388,-0.2441406100988388,0.30517578125
381711,0.031982421875,-0.988525390625,0.1026611328125,0.0,-0.2441406100988388,0.30517578125
381728,0.0321044921875,-0.9920654296875,0.0980224609375,0.3662109076976776,-0.2441406100988388,0.2441406100988388
381745,0.033447265625,-0.9932861328125,0.1021728515625,0.4272460639476776,-0.2441406100988388,0.30517578125
381761,0.032470703125,-0.9927978515625,0.099609375,0.54931640625,-0.1831054538488388,0.30517578125
381792,0.0316162109375,-0.9892578125,0.099609375,0.9765624403953552,-0.1220703050494194,0.2441406100988388
381814,0.032958984375,-0.9923095703125,0.103759765625,1.15966796875,-0.1831054538488388,0.2441406100988388
381830,0.0322265625,-0.989990234375,0.1002197265625,1.5869139432907104,-0.1831054538488388,0.1831054538488388
381847,0.032470703125,-0.9910888671875,0.1009521484375,2.01416015625,-0.1831054538488388,0.1831054538488388
381864,0.0321044921875,-0.9921875,0.1011962890625,2.197265625,-0.1831054538488388,0.1831054538488388
381881,0.0333251953125,-0.990234375,0.1009521484375,2.50244140625,-0.1220703050494194,0.1831054538488388
381913,0.03125,-0.9925537109375,0.0968017578125,3.051757574081421,-0.1220703050494194,0.1831054538488388
381930,0.0308837890625,-0.993408203125,0.0955810546875,3.173827886581421,-0.1220703050494194,0.1831054538488388
381946,0.03076171875,-0.990234375,0.0938720703125,3.295898199081421,-0.1220703050494194,0.1831054538488388
381982,0.0313720703125,-0.99072265625,0.0938720703125,3.540038824081421,-0.1220703050494194,0.1831054538488388
381998,0.0328369140625,-0.990478515625,0.09619140625,3.784179449081421,-0.0610351525247097,0.30517578125
382014,0.0335693359375,-0.99072265625,0.09375,4.0283203125,-0.0610351525247097,0.4882812201976776
382030,0.032470703125,-0.9847412109375,0.090576171875,4.08935546875,0.0,0.6103515625
382047,0.0321044921875,-0.979248046875,0.0885009765625,4.2724609375,0.0,1.4038084745407104
382068,0.03662109375,-0.99755859375,0.0841064453125,4.5166015625,0.1220703050494194,2.685546636581421
382084,0.031982421875,-1.030029296875,0.088623046875,4.45556640625,0.4272460639476776,2.807616949081421
382101,0.0325927734375,-1.0462646484375,0.093505859375,4.638671875,0.3662109076976776,3.112792730331421
382118,0.0570068359375,-1.15869140625,0.0889892578125,4.45556640625,0.4882812201976776,2.746581792831421
382151,0.0709228515625,-1.428466796875,0.1339111328125,4.39453125,0.0,-1.8920897245407104
382168,0.062744140625,-1.3953857421875,0.1488037109375,4.150390625,-0.30517578125,-3.479003667831421
382184,0.05029296875,-1.337890625,0.1343994140625,2.563476324081421,-0.54931640625,-4.150390625
382213,0.0323486328125,-1.255615234375,0.1038818359375,-0.7934569716453552,-0.6103515625,-3.234863042831421
382235,0.0313720703125,-1.2679443359375,0.1102294921875,-1.8920897245407104,-0.54931640625,-2.746581792831421
382251,0.0340576171875,-1.3262939453125,0.128173828125,-3.540038824081421,-0.4272460639476776,-2.13623046875
382268,0.0419921875,-1.4432373046875,0.1785888671875,-3.784179449081421,-0.54931640625,-2.01416015625
382285,0.033203125,-1.4161376953125,0.157470703125,-3.662109136581421,-1.2817381620407104,-3.417968511581421
382301,0.0281982421875,-1.38134765625,0.150146484375,-3.540038824081421,-1.4648436307907104,-3.479003667831421
382332,0.01904296875,-1.388671875,0.1158447265625,-3.540038824081421,-1.3427733182907104,-2.807616949081421
382354,0.0225830078125,-1.403076171875,0.123779296875,-2.807616949081421,-1.03759765625,-2.624511480331421
382370,0.03369140625,-1.44970703125,0.1578369140625,-1.2817381620407104,-1.15966796875,-3.417968511581421
382387,0.03271484375,-1.45166015625,0.1568603515625,-0.4272460639476776,-1.2817381620407104,-3.784179449081421
382404,0.02685546875,-1.436767578125,0.1490478515625,1.2817381620407104,-1.4038084745407104,-4.5166015625
382425,0.0028076171875,-1.3804931640625,0.1295166015625,2.50244140625,-1.2817381620407104,-5.187987804412842
382462,-0.009521484375,-1.2191162109375,0.105712890625,3.295898199081421,-1.2817381620407104,-4.7607421875
382482,-0.010986328125,-1.1666259765625,0.1005859375,2.929687261581421,-1.220703125,-3.540038824081421
382498,-0.0113525390625,-1.1156005859375,0.106201171875,2.50244140625,-1.2817381620407104,-2.25830078125
382515,-0.0169677734375,-1.0716552734375,0.092529296875,2.0751953125,-1.3427733182907104,-0.8544921278953552
382537,-0.0177001953125,-1.0418701171875,0.08837890625,1.8310545682907104,-1.4038084745407104,-0.1831054538488388
382553,-0.015625,-1.0,0.0726318359375,0.9765624403953552,-1.220703125,0.8544921278953552
382570,-0.007080078125,-0.9124755859375,0.0703125,-0.2441406100988388,-1.3427733182907104,1.6479490995407104
382635,0.0255126953125,-0.7305908203125,0.0745849609375,-4.57763671875,-1.2817381620407104,4.94384765625
382652,0.0296630859375,-0.72509765625,0.0826416015625,-4.69970703125,-1.2817381620407104,5.065917491912842
382668,0.0367431640625,-0.75048828125,0.1060791015625,-4.69970703125,-1.7089842557907104,4.39453125
382684,0.0352783203125,-0.7156982421875,0.095703125,-4.69970703125,-1.8920897245407104,3.662109136581421
382704,0.0306396484375,-0.6116943359375,0.0728759765625,-4.638671875,-2.3193359375,2.25830078125
382726,0.0294189453125,-0.5699462890625,0.0654296875,-4.638671875,-2.3193359375,2.01416015625
382742,0.0316162109375,-0.5316162109375,0.062744140625,-4.7607421875,-2.197265625,1.8920897245407104
382759,0.03662109375,-0.5186767578125,0.071533203125,-4.7607421875,-2.13623046875,1.7700194120407104
382776,0.0355224609375,-0.5400390625,0.076171875,-4.57763671875,-2.25830078125,1.220703125
382809,0.0284423828125,-0.4886474609375,0.0723876953125,-3.662109136581421,-2.624511480331421,-0.3662109076976776
382826,0.028564453125,-0.47705078125,0.0618896484375,-3.356933355331421,-2.685546636581421,0.1831054538488388
382842,0.0284423828125,-0.5191650390625,0.056640625,-3.112792730331421,-2.746581792831421,0.4272460639476776
382873,0.017333984375,-0.6728515625,0.0562744140625,-2.13623046875,-2.38037109375,-0.1831054538488388
382894,0.0172119140625,-0.7315673828125,0.0833740234375,-1.0986328125,-2.44140625,-1.03759765625
382910,0.0238037109375,-0.7332763671875,0.0955810546875,-0.54931640625,-2.50244140625,-1.15966796875
382927,0.0247802734375,-0.72900390625,0.080810546875,0.2441406100988388,-2.685546636581421,-1.0986328125
382944,0.0208740234375,-0.7396240234375,0.06640625,0.9155272841453552,-2.563476324081421,-0.54931640625
382960,0.0120849609375,-0.785400390625,0.0587158203125,1.220703125,-2.50244140625,-0.2441406100988388
382993,0.002197265625,-0.8497314453125,0.0765380859375,2.807616949081421,-1.7089842557907104,0.4882812201976776
383014,0.0079345703125,-0.8961181640625,0.1024169921875,4.08935546875,-1.5258787870407104,0.6713866591453552
383030,0.0103759765625,-0.8931884765625,0.106689453125,4.7607421875,-1.6479490995407104,0.54931640625
383047,0.009765625,-0.9366455078125,0.0902099609375,6.103515148162842,-1.6479490995407104,1.2817381620407104
383064,0.0098876953125,-0.970703125,0.091064453125,7.263183116912842,-1.4038084745407104,1.5258787870407104
383080,0.0068359375,-1.00146484375,0.0933837890625,7.873534679412842,-1.220703125,1.4648436307907104
383114,0.002685546875,-0.9871826171875,0.0997314453125,9.3994140625,-1.220703125,1.220703125
383130,-0.00146484375,-0.9742431640625,0.08544921875,9.3994140625,-1.2817381620407104,1.6479490995407104
383146,-0.005126953125,-0.985107421875,0.0682373046875,9.27734375,-1.220703125,1.8920897245407104
383182,-0.0052490234375,-0.99609375,0.058837890625,7.507323741912842,-0.9765624403953552,2.50244140625
383198,0.0006103515625,-1.021728515625,0.06787109375,6.225585460662842,-1.15966796875,2.50244140625
383214,0.0037841796875,-1.0185546875,0.06787109375,5.432128429412842,-1.220703125,2.44140625
383230,0.013427734375,-1.0184326171875,0.065185546875,3.784179449081421,-1.5258787870407104,2.44140625
383252,0.025146484375,-1.025146484375,0.0509033203125,2.25830078125,-1.5258787870407104,2.25830078125
383268,0.0347900390625,-1.0087890625,0.0482177734375,1.4648436307907104,-1.6479490995407104,1.8920897245407104
383285,0.03515625,-0.9993896484375,0.0447998046875,0.1831054538488388,-1.7700194120407104,1.7089842557907104
383302,0.03076171875,-0.99853515625,0.0478515625,-1.220703125,-1.8920897245407104,1.4038084745407104
383318,0.027099609375,-0.9808349609375,0.0435791015625,-1.9531248807907104,-1.9531248807907104,1.220703125
383352,0.0306396484375,-0.9649658203125,0.0482177734375,-4.638671875,-1.7700194120407104,1.3427733182907104
383368,0.03662109375,-1.0096435546875,0.0650634765625,-5.310058116912842,-1.7700194120407104,1.15966796875
383413,0.0389404296875,-1.0372314453125,0.09326171875,-5.737304210662842,-1.8920897245407104,-0.4272460639476776
383435,0.03857421875,-1.0455322265625,0.0972900390625,-5.554198741912842,-1.9531248807907104,-0.6103515625
383451,0.0391845703125,-1.0677490234375,0.0982666015625,-5.310058116912842,-1.9531248807907104,-0.9765624403953552
383468,0.0382080078125,-1.0361328125,0.0941162109375,-4.82177734375,-2.01416015625,-1.9531248807907104
383485,0.0379638671875,-1.021240234375,0.0911865234375,-4.2724609375,-1.9531248807907104,-2.25830078125
383501,0.0382080078125,-1.0223388671875,0.095947265625,-4.08935546875,-1.9531248807907104,-2.38037109375
383532,0.029296875,-0.9815673828125,0.09716796875,-3.234863042831421,-1.8310545682907104,-3.234863042831421
383548,0.021240234375,-0.9541015625,0.092041015625,-3.173827886581421,-1.8310545682907104,-3.051757574081421
383564,0.018310546875,-0.943115234375,0.091064453125,-3.051757574081421,-1.7089842557907104,-2.807616949081421
383593,0.0135498046875,-0.964599609375,0.09716796875,-2.50244140625,-1.5258787870407104,-2.50244140625
383615,0.0096435546875,-0.955322265625,0.09814453125,-2.01416015625,-1.4038084745407104,-2.197265625
383631,0.005859375,-0.9598388671875,0.1011962890625,-1.7089842557907104,-1.2817381620407104,-2.01416015625
383648,0.005859375,-0.9652099609375,0.1041259765625,-1.0986328125,-1.220703125,-1.5869139432907104
383665,0.0081787109375,-0.9632568359375,0.1107177734375,-0.30517578125,-1.220703125,-1.3427733182907104
383681,0.0096435546875,-0.9691162109375,0.1092529296875,0.0610351525247097,-1.15966796875,-1.0986328125
383715,0.0145263671875,-1.002685546875,0.115478515625,1.5869139432907104,-1.03759765625,-0.7324218153953552
383763,0.013671875,-0.9888916015625,0.11279296875,4.0283203125,-1.15966796875,-0.8544921278953552
383785,0.015869140625,-1.0003662109375,0.1119384765625,4.638671875,-1.2817381620407104,-0.9155272841453552
383802,0.013427734375,-0.9921875,0.1026611328125,4.8828125,-1.2817381620407104,-1.15966796875
383835,0.012939453125,-0.9620361328125,0.0966796875,5.676269054412842,-1.2817381620407104,-1.03759765625
383852,0.01708984375,-0.981201171875,0.10107421875,6.103515148162842,-1.2817381620407104,-1.0986328125
383869,0.0169677734375,-0.9801025390625,0.0977783203125,6.286620616912842,-1.2817381620407104,-1.3427733182907104
383885,0.01611328125,-0.9749755859375,0.09765625,6.347655773162842,-1.2817381620407104,-1.2817381620407104
383905,0.0167236328125,-0.9810791015625,0.0933837890625,6.347655773162842,-1.2817381620407104,-1.15966796875
383921,0.0194091796875,-0.989501953125,0.0947265625,6.347655773162842,-1.2817381620407104,-1.220703125
383937,0.02001953125,-0.9932861328125,0.0943603515625,6.347655773162842,-1.2817381620407104,-1.220703125
383953,0.0211181640625,-0.9991455078125,0.095458984375,6.347655773162842,-1.2817381620407104,-1.2817381620407104
384001,0.017333984375,-1.0140380859375,0.0869140625,5.981444835662842,-1.15966796875,-1.15966796875
384031,0.017822265625,-1.00341796875,0.08544921875,6.042479991912842,-1.0986328125,-1.4038084745407104
384048,0.016845703125,-0.9920654296875,0.083984375,6.042479991912842,-1.03759765625,-1.2817381620407104
384065,0.0159912109375,-0.9996337890625,0.0792236328125,5.981444835662842,-1.03759765625,-0.9155272841453552
384082,0.0137939453125,-1.0306396484375,0.0716552734375,5.920409679412842,-1.03759765625,-0.7934569716453552
384098,0.01171875,-1.04443359375,0.0687255859375,5.798339366912842,-0.8544921278953552,-1.0986328125
384131,0.0084228515625,-1.0001220703125,0.0606689453125,5.249022960662842,-0.6103515625,-1.6479490995407104
384147,0.0084228515625,-0.9781494140625,0.053466796875,5.0048828125,-0.54931640625,-1.5258787870407104
384195,0.0062255859375,-0.87255859375,0.0413818359375,2.746581792831421,-0.0610351525247097,-0.4272460639476776
384211,0.0030517578125,-0.876953125,0.0413818359375,1.8310545682907104,0.1220703050494194,0.3662109076976776
384227,0.0029296875,-0.8914794921875,0.0450439453125,1.4648436307907104,0.1220703050494194,0.54931640625
384243,0.0010986328125,-0.9122314453125,0.049560546875,0.9765624403953552,0.1831054538488388,0.7324218153953552
384317,0.011962890625,-0.992431640625,0.059814453125,1.15966796875,0.2441406100988388,0.6103515625
384392,0.0126953125,-0.9605712890625,0.05078125,2.197265625,0.3662109076976776,-0.2441406100988388
384409,0.0118408203125,-0.94775390625,0.053955078125,2.44140625,0.2441406100988388,-0.7324218153953552
384426,0.01171875,-0.928466796875,0.05224609375,2.624511480331421,0.2441406100988388,-0.6103515625
384477,0.0054931640625,-0.9637451171875,0.04833984375,2.807616949081421,0.30517578125,-0.8544921278953552
384509,0.008544921875,-0.9970703125,0.046875,3.601073980331421,0.4272460639476776,-1.15966796875
384526,0.010986328125,-1.00537109375,0.045654296875,4.2724609375,0.6103515625,-1.5869139432907104
384543,0.01123046875,-0.9854736328125,0.0472412109375,4.57763671875,0.6103515625,-1.7700194120407104
384563,0.0030517578125,-0.9620361328125,0.040283203125,5.0048828125,0.6103515625,-2.01416015625
384580,-0.000732421875,-0.953369140625,0.0372314453125,5.126952648162842,0.6713866591453552,-2.01416015625
384596,-0.0074462890625,-0.9127197265625,0.0257568359375,4.8828125,0.8544921278953552,-2.01416015625
384613,-0.009033203125,-0.8759765625,0.021484375,4.33349609375,0.9765624403953552,-1.5258787870407104
384629,-0.0086669921875,-0.86328125,0.01806640625,3.906249761581421,1.0986328125,-1.4038084745407104
384645,-0.007568359375,-0.84130859375,0.0155029296875,2.746581792831421,1.15966796875,-1.03759765625
384678,-0.01171875,-0.8428955078125,0.0152587890625,0.6103515625,1.2817381620407104,-0.1831054538488388
384699,-0.011962890625,-0.8612060546875,0.01904296875,-0.54931640625,1.4648436307907104,0.3662109076976776
384715,-0.01123046875,-0.90380859375,0.027587890625,-0.9765624403953552,1.4038084745407104,0.4882812201976776
384731,-0.0126953125,-0.9168701171875,0.0299072265625,-1.5869139432907104,1.3427733182907104,0.4882812201976776
384748,-0.0140380859375,-0.917236328125,0.029296875,-2.0751953125,1.3427733182907104,0.3662109076976776
384765,-0.0172119140625,-0.8804931640625,0.0283203125,-2.746581792831421,1.3427733182907104,0.4272460639476776
384801,-0.0181884765625,-0.8302001953125,0.0294189453125,-4.0283203125,1.4038084745407104,1.8920897245407104
384850,-0.0113525390625,-1.0235595703125,0.04931640625,-3.906249761581421,1.5869139432907104,2.990722417831421
384872,-0.009521484375,-0.9622802734375,0.0562744140625,-2.929687261581421,1.4648436307907104,1.4038084745407104
384889,-0.01123046875,-0.8831787109375,0.049072265625,-2.3193359375,1.5258787870407104,1.15966796875
384906,-0.0147705078125,-0.7994384765625,0.0379638671875,-2.25830078125,1.6479490995407104,1.9531248807907104
384923,-0.017822265625,-0.8387451171875,0.0372314453125,-2.25830078125,1.8920897245407104,3.417968511581421
384944,-0.00927734375,-0.9442138671875,0.05712890625,-1.3427733182907104,2.44140625,4.150390625
384977,0.009033203125,-1.032470703125,0.08642578125,1.220703125,2.25830078125,1.8920897245407104
384993,0.01123046875,-0.9588623046875,0.0772705078125,2.50244140625,2.25830078125,1.0986328125
385009,0.0118408203125,-0.920166015625,0.0810546875,2.929687261581421,2.3193359375,1.0986328125
385029,0.009765625,-0.8817138671875,0.0882568359375,3.601073980331421,2.3193359375,1.9531248807907104
385046,0.013427734375,-0.9510498046875,0.0994873046875,4.45556640625,2.3193359375,2.25830078125
385071,0.0137939453125,-0.98486328125,0.09521484375,5.737304210662842,2.13623046875,1.3427733182907104
385090,0.010498046875,-0.9395751953125,0.08837890625,6.958007335662842,2.197265625,1.03759765625
385106,0.0057373046875,-0.91552734375,0.0909423828125,7.507323741912842,2.25830078125,1.2817381620407104
385123,0.0059814453125,-0.918212890625,0.0882568359375,8.4228515625,2.25830078125,1.8310545682907104
385156,0.01708984375,-0.954833984375,0.0848388671875,10.009765625,2.197265625,2.13623046875
385173,0.0245361328125,-0.9986572265625,0.0831298828125,10.437010765075684,2.197265625,2.25830078125
385189,0.0257568359375,-1.0213623046875,0.081787109375,11.291502952575684,2.197265625,1.8920897245407104
385205,0.0233154296875,-1.0325927734375,0.076904296875,12.145995140075684,2.0751953125,1.3427733182907104
385230,0.019287109375,-1.0079345703125,0.0673828125,12.756346702575684,2.0751953125,1.4038084745407104
385246,0.0159912109375,-1.0382080078125,0.0633544921875,13.000487327575684,2.0751953125,1.6479490995407104
385263,0.013916015625,-1.056396484375,0.0562744140625,13.366698265075684,2.01416015625,1.4038084745407104
385280,0.0120849609375,-1.0460205078125,0.056640625,13.793944358825684,2.01416015625,1.220703125
385296,0.0155029296875,-1.053466796875,0.0516357421875,13.977049827575684,2.01416015625,1.3427733182907104
385330,0.0128173828125,-1.046142578125,0.0262451171875,14.343260765075684,1.9531248807907104,1.220703125
385394,0.009765625,-1.02880859375,0.025390625,13.000487327575684,1.7700194120407104,1.4038084745407104
385466,0.00634765625,-1.0882568359375,0.00048828125,8.72802734375,1.5869139432907104,2.563476324081421
385483,0.0069580078125,-1.0804443359375,-0.00439453125,6.713866710662842,1.4038084745407104,2.25830078125
385519,0.021240234375,-1.038818359375,-0.0084228515625,3.417968511581421,1.15966796875,3.051757574081421
385551,0.0428466796875,-1.1600341796875,-0.0035400390625,-0.6713866591453552,0.54931640625,2.25830078125
385584,0.0361328125,-1.046875,0.0064697265625,-3.540038824081421,-0.1220703050494194,1.4038084745407104
385601,0.0225830078125,-1.0101318359375,-0.009033203125,-5.859374523162842,-0.4882812201976776,2.13623046875
385632,0.0380859375,-1.1474609375,-0.00537109375,-8.85009765625,-0.6713866591453552,2.25830078125
385648,0.03955078125,-1.154052734375,0.0040283203125,-9.765625,-0.9765624403953552,1.2817381620407104
385665,0.0379638671875,-1.1502685546875,0.0172119140625,-9.8876953125,-1.15966796875,0.6713866591453552
385697,0.023681640625,-1.0462646484375,0.0081787109375,-10.986327171325684,-1.7089842557907104,0.2441406100988388
385713,0.0205078125,-1.05126953125,0.0135498046875,-11.413573265075684,-1.8310545682907104,0.30517578125
385729,0.016845703125,-1.0374755859375,0.0186767578125,-12.023924827575684,-2.01416015625,0.30517578125
385745,0.0213623046875,-1.044677734375,0.0369873046875,-12.084959983825684,-2.13623046875,0.30517578125
385770,0.0250244140625,-1.0362548828125,0.043212890625,-11.901854515075684,-2.44140625,0.0610351525247097
385786,0.0267333984375,-1.0228271484375,0.04296875,-11.779784202575684,-2.624511480331421,0.1220703050494194
385803,0.0283203125,-1.0238037109375,0.041748046875,-11.413573265075684,-2.685546636581421,0.6103515625
385820,0.03125,-1.0762939453125,0.0474853515625,-11.169432640075684,-2.685546636581421,0.9765624403953552
385836,0.0335693359375,-1.1251220703125,0.056884765625,-10.253905296325684,-2.685546636581421,0.6103515625
385870,0.03271484375,-1.1005859375,0.0662841796875,-7.385253429412842,-2.746581792831421,-0.8544921278953552
385887,0.0306396484375,-1.065185546875,0.072265625,-5.981444835662842,-2.685546636581421,-0.9765624403953552
385908,0.03125,-1.061767578125,0.0767822265625,-5.249022960662842,-2.746581792831421,-0.8544921278953552
385924,0.0321044921875,-1.099609375,0.0758056640625,-3.662109136581421,-2.929687261581421,-1.220703125
385942,0.028076171875,-1.1072998046875,0.069580078125,-2.0751953125,-2.929687261581421,-1.8310545682907104
385959,0.0216064453125,-1.08544921875,0.0611572265625,-1.3427733182907104,-2.929687261581421,-2.13623046875
385992,0.0157470703125,-1.037109375,0.059814453125,1.3427733182907104,-2.868652105331421,-2.685546636581421
386008,0.0140380859375,-1.009033203125,0.05517578125,2.3193359375,-2.868652105331421,-2.38037109375
386024,0.011962890625,-1.017578125,0.051513671875,2.746581792831421,-2.807616949081421,-2.13623046875
386054,-0.0230712890625,-0.9635009765625,0.029052734375,3.723144292831421,-2.746581792831421,-2.3193359375
386075,-0.0565185546875,-0.843994140625,0.0238037109375,3.295898199081421,-2.3193359375,2.01416015625
386096,-0.0269775390625,-0.7642822265625,0.0234375,1.5258787870407104,-1.9531248807907104,9.94873046875
386115,0.0281982421875,-0.9417724609375,0.0284423828125,1.9531248807907104,-1.7700194120407104,10.803221702575684
386131,0.032470703125,-0.978515625,0.0274658203125,2.13623046875,-1.7089842557907104,9.82666015625
386148,0.043212890625,-1.011962890625,0.0447998046875,2.3193359375,-1.5869139432907104,9.27734375
386165,0.0484619140625,-1.0445556640625,0.05126953125,3.112792730331421,-1.6479490995407104,8.85009765625
386190,0.0521240234375,-1.04638671875,0.0443115234375,3.845214605331421,-1.7700194120407104,7.446288585662842
386206,0.050048828125,-1.0087890625,0.027587890625,4.94384765625,-1.6479490995407104,6.835937023162842
386223,0.07666015625,-1.8358154296875,-0.05224609375,10.742186546325684,-0.9765624403953552,1.5258787870407104
386240,0.0748291015625,-1.375732421875,0.0045166015625,13.061522483825684,-0.9155272841453552,-4.39453125
386256,0.015625,-0.6478271484375,0.0185546875,10.925292015075684,-0.54931640625,-5.859374523162842
386290,0.0267333984375,-0.984130859375,0.01611328125,9.3994140625,-0.3662109076976776,-5.737304210662842
386307,-0.0081787109375,-0.725830078125,0.014892578125,9.27734375,-0.4272460639476776,-4.39453125
386328,-0.01220703125,-0.7015380859375,0.0142822265625,4.8828125,-0.2441406100988388,3.723144292831421
386344,0.0311279296875,-1.07763671875,-0.0108642578125,3.356933355331421,0.0,4.33349609375
386361,0.0728759765625,-1.51806640625,-0.0020751953125,4.2724609375,0.0610351525247097,0.1831054538488388
386378,0.0335693359375,-0.62255859375,-0.004638671875,2.685546636581421,-0.1831054538488388,-4.638671875
386411,0.01708984375,-1.2803955078125,0.000244140625,0.4272460639476776,-0.30517578125,0.7934569716453552
386428,0.0478515625,-0.9212646484375,0.0059814453125,-1.6479490995407104,-0.3662109076976776,-1.0986328125
386444,0.04296875,-0.80126953125,-0.00048828125,-1.8920897245407104,-0.4272460639476776,0.0610351525247097
386473,0.0206298828125,-1.0916748046875,0.0081787109375,-3.967284917831421,-0.4882812201976776,-0.30517578125
386495,0.0257568359375,-0.9129638671875,0.0072021484375,-4.94384765625,-0.3662109076976776,0.1831054538488388
386511,0.03173828125,-1.0494384765625,0.0167236328125,-5.371093273162842,-0.4272460639476776,0.54931640625
386528,0.0357666015625,-0.9747314453125,0.009765625,-6.530761241912842,-0.6713866591453552,0.2441406100988388
386545,0.0338134765625,-0.9619140625,0.015380859375,-7.507323741912842,-0.4882812201976776,0.6103515625
386561,0.025634765625,-1.0284423828125,0.0172119140625,-8.11767578125,-0.4882812201976776,0.7934569716453552
386593,0.0279541015625,-0.978271484375,0.02734375,-10.009765625,-0.4272460639476776,0.7324218153953552
386610,0.033203125,-1.00244140625,0.04296875,-10.192870140075684,-0.54931640625,0.6103515625
386626,0.0347900390625,-1.0069580078125,0.046142578125,-10.192870140075684,-0.6103515625,0.4882812201976776
386662,0.0255126953125,-0.995361328125,0.046875,-9.8876953125,-0.4882812201976776,0.6713866591453552
386684,0.030517578125,-0.9974365234375,0.0526123046875,-9.82666015625,-0.4882812201976776,0.6713866591453552
386700,0.0333251953125,-0.99267578125,0.0604248046875,-9.765625,-0.4272460639476776,0.6713866591453552
386721,0.0333251953125,-0.9957275390625,0.0650634765625,-9.521484375,-0.54931640625,0.7324218153953552
386738,0.0311279296875,-0.9937744140625,0.0660400390625,-9.27734375,-0.6103515625,0.54931640625
386754,0.02880859375,-0.9925537109375,0.067626953125,-9.09423828125,-0.54931640625,0.4882812201976776
386771,0.0299072265625,-0.994140625,0.0694580078125,-8.7890625,-0.4882812201976776,0.4882812201976776
386787,0.0322265625,-0.992431640625,0.072509765625,-8.60595703125,-0.4882812201976776,0.6103515625
386804,0.0343017578125,-0.9949951171875,0.078125,-8.30078125,-0.4882812201976776,0.7934569716453552
386834,0.0301513671875,-0.9879150390625,0.0819091796875,-7.873534679412842,-0.54931640625,0.6103515625
386855,0.0296630859375,-0.996826171875,0.082763671875,-7.629394054412842,-0.4882812201976776,0.54931640625
386872,0.03125,-0.9920654296875,0.084228515625,-7.507323741912842,-0.4882812201976776,0.4882812201976776
386889,0.032470703125,-0.9862060546875,0.0855712890625,-7.324218273162842,-0.4882812201976776,0.7324218153953552
386905,0.0333251953125,-0.99658203125,0.087890625,-7.263183116912842,-0.54931640625,0.6713866591453552
386922,0.0313720703125,-0.9903564453125,0.093017578125,-7.141112804412842,-0.4882812201976776,0.6713866591453552
386955,0.0313720703125,-0.9940185546875,0.099609375,-6.591796398162842,-0.4882812201976776,0.6713866591453552
386971,0.03466796875,-0.9893798828125,0.098876953125,-6.103515148162842,-0.4882812201976776,0.4882812201976776
386987,0.0343017578125,-0.989990234375,0.0994873046875,-5.798339366912842,-0.4272460639476776,0.4882812201976776
387023,0.0301513671875,-0.9881591796875,0.1048583984375,-5.249022960662842,-0.4272460639476776,0.6103515625
387039,0.0338134765625,-0.9921875,0.106201171875,-5.126952648162842,-0.3662109076976776,0.6713866591453552
387055,0.0343017578125,-0.994873046875,0.1080322265625,-4.82177734375,-0.3662109076976776,0.6713866591453552
387071,0.03125,-0.9898681640625,0.10888671875,-4.5166015625,-0.4272460639476776,0.4882812201976776
387088,0.0302734375,-0.9886474609375,0.1087646484375,-4.33349609375,-0.4272460639476776,0.4272460639476776
387109,0.0316162109375,-0.9903564453125,0.1104736328125,-3.967284917831421,-0.30517578125,0.4882812201976776
387125,0.0343017578125,-0.9937744140625,0.112548828125,-3.662109136581421,-0.3662109076976776,0.4272460639476776
387142,0.0347900390625,-0.9871826171875,0.113525390625,-3.479003667831421,-0.3662109076976776,0.4272460639476776
387196,0.032958984375,-0.9898681640625,0.1162109375,-2.624511480331421,-0.3662109076976776,0.3662109076976776
387216,0.034423828125,-0.988037109375,0.116455078125,-2.44140625,-0.30517578125,0.30517578125
387232,0.03271484375,-0.989990234375,0.1192626953125,-2.13623046875,-0.30517578125,0.4272460639476776
387249,0.0321044921875,-0.992431640625,0.1207275390625,-2.01416015625,-0.30517578125,0.4272460639476776
387266,0.03271484375,-0.98681640625,0.1192626953125,-1.7089842557907104,-0.2441406100988388,0.3662109076976776
387291,0.035400390625,-0.990234375,0.12060546875,-1.3427733182907104,-0.1831054538488388,0.30517578125
387307,0.0341796875,-0.9921875,0.12451171875,-0.8544921278953552,-0.2441406100988388,0.30517578125
387324,0.0316162109375,-0.9862060546875,0.126220703125,-0.54931640625,-0.2441406100988388,0.2441406100988388
387345,0.0330810546875,-0.98974609375,0.1231689453125,-0.0610351525247097,-0.30517578125,0.3662109076976776
387382,0.033935546875,-0.9932861328125,0.1209716796875,0.6103515625,-0.1831054538488388,0.30517578125
387398,0.0333251953125,-0.9906005859375,0.1209716796875,0.7324218153953552,-0.1831054538488388,0.2441406100988388
387415,0.032958984375,-0.9866943359375,0.1221923828125,1.03759765625,-0.1831054538488388,0.2441406100988388
387431,0.0350341796875,-0.9925537109375,0.1221923828125,1.220703125,-0.2441406100988388,0.2441406100988388
387448,0.0352783203125,-0.992431640625,0.1209716796875,1.3427733182907104,-0.2441406100988388,0.1831054538488388
387469,0.031005859375,-0.9876708984375,0.118408203125,1.5258787870407104,-0.1220703050494194,0.1831054538488388
387485,0.0316162109375,-0.992919921875,0.118896484375,1.5258787870407104,-0.1220703050494194,0.2441406100988388
387502,0.0340576171875,-0.987060546875,0.11767578125,1.5869139432907104,-0.1831054538488388,0.2441406100988388
387519,0.034912109375,-0.9896240234375,0.118896484375,1.5869139432907104,-0.2441406100988388,0.2441406100988388
387552,0.031982421875,-0.9892578125,0.11279296875,1.220703125,-0.1831054538488388,0.3662109076976776
387568,0.031494140625,-0.99267578125,0.112060546875,1.15966796875,-0.1831054538488388,0.3662109076976776
387584,0.0333251953125,-0.9927978515625,0.11474609375,0.9765624403953552,-0.1831054538488388,0.3662109076976776
387614,0.03173828125,-0.9913330078125,0.1156005859375,0.8544921278953552,-0.2441406100988388,0.2441406100988388
387635,0.0308837890625,-0.9906005859375,0.114990234375,0.7324218153953552,-0.2441406100988388,0.2441406100988388
387651,0.03271484375,-0.9893798828125,0.111083984375,0.4272460639476776,-0.30517578125,0.2441406100988388
387668,0.033935546875,-0.992431640625,0.1087646484375,-0.1220703050494194,-0.2441406100988388,0.30517578125
387685,0.0350341796875,-0.982177734375,0.109130859375,-0.3662109076976776,-0.1831054538488388,0.4272460639476776
387701,0.0330810546875,-0.986083984375,0.1165771484375,-0.7934569716453552,-0.0610351525247097,1.0986328125
387733,0.0357666015625,-0.9952392578125,0.1240234375,-0.1831054538488388,0.3662109076976776,2.50244140625
387755,0.0406494140625,-1.01171875,0.1304931640625,0.30517578125,0.6103515625,2.807616949081421
387771,0.0577392578125,-1.0447998046875,0.1539306640625,2.01416015625,0.2441406100988388,2.868652105331421
387788,0.081298828125,-1.146728515625,0.1376953125,3.662109136581421,0.30517578125,1.8920897245407104
387805,0.0885009765625,-1.343505859375,0.1654052734375,4.150390625,0.4882812201976776,0.9155272841453552
387821,0.095458984375,-1.4761962890625,0.2032470703125,5.065917491912842,0.6103515625,-1.5258787870407104
387854,0.074951171875,-1.323486328125,0.196533203125,6.225585460662842,0.0610351525247097,-5.676269054412842
387876,0.0657958984375,-1.2791748046875,0.1842041015625,6.042479991912842,0.0,-5.187987804412842
387892,0.0467529296875,-1.2698974609375,0.16162109375,4.45556640625,0.1220703050494194,-4.39453125
387909,0.03173828125,-1.28759765625,0.162841796875,2.929687261581421,0.3662109076976776,-3.723144292831421
387926,0.02880859375,-1.320556640625,0.1671142578125,2.44140625,0.4272460639476776,-3.173827886581421
387942,0.03466796875,-1.3837890625,0.1827392578125,2.01416015625,0.4882812201976776,-2.685546636581421
387973,0.02197265625,-1.2891845703125,0.1466064453125,0.9155272841453552,0.4272460639476776,-1.5258787870407104
387989,0.0169677734375,-1.2918701171875,0.126708984375,0.4882812201976776,0.6713866591453552,-0.30517578125
388005,0.0211181640625,-1.4052734375,0.1463623046875,0.1220703050494194,1.03759765625,1.0986328125
388037,0.025390625,-1.486572265625,0.1768798828125,1.2817381620407104,0.8544921278953552,-0.4272460639476776
388053,0.0157470703125,-1.367919921875,0.1593017578125,2.25830078125,0.7324218153953552,-0.2441406100988388
388069,0.0113525390625,-1.33251953125,0.152587890625,2.38037109375,0.6713866591453552,0.30517578125
388085,0.0052490234375,-1.3197021484375,0.1141357421875,1.7089842557907104,0.7324218153953552,1.03759765625
388105,0.006591796875,-1.2845458984375,0.099609375,0.8544921278953552,0.9765624403953552,1.15966796875
388121,0.00927734375,-1.2640380859375,0.0986328125,0.54931640625,1.220703125,1.5258787870407104
388137,0.025634765625,-1.29150390625,0.1353759765625,0.4272460639476776,1.220703125,1.7089842557907104
388153,0.0369873046875,-1.2947998046875,0.1544189453125,0.6103515625,0.9765624403953552,1.2817381620407104
388174,0.0394287109375,-1.2716064453125,0.15673828125,0.9765624403953552,0.54931640625,0.0610351525247097
388190,0.03466796875,-1.1826171875,0.1240234375,1.03759765625,0.0,-0.9155272841453552
388207,0.0196533203125,-1.0777587890625,0.08251953125,0.7934569716453552,-0.0610351525247097,-0.9765624403953552
388224,0.0098876953125,-0.9840087890625,0.05712890625,-0.3662109076976776,0.0,-1.3427733182907104
388240,0.0091552734375,-0.9295654296875,0.0579833984375,-1.9531248807907104,0.1831054538488388,-1.7089842557907104
388274,0.0216064453125,-0.8306884765625,0.0975341796875,-4.0283203125,0.2441406100988388,-0.9765624403953552
388290,0.0240478515625,-0.837158203125,0.10400390625,-4.150390625,0.0,-1.2817381620407104
388306,0.02783203125,-0.8226318359375,0.1080322265625,-4.2724609375,-0.30517578125,-2.50244140625
388338,0.02294921875,-0.709716796875,0.08154296875,-4.69970703125,-0.7324218153953552,-3.906249761581421
388354,0.0186767578125,-0.625732421875,0.0648193359375,-5.187987804412842,-0.8544921278953552,-4.2724609375
388370,0.0166015625,-0.5885009765625,0.06103515625,-5.493163585662842,-0.7934569716453552,-4.39453125
388386,0.0130615234375,-0.5152587890625,0.0631103515625,-6.042479991912842,-0.9155272841453552,-4.33349609375
388405,0.009033203125,-0.4599609375,0.0592041015625,-6.469726085662842,-0.7324218153953552,-4.2724609375
388426,0.007568359375,-0.4346923828125,0.06396484375,-6.652831554412842,-0.8544921278953552,-3.906249761581421
388442,0.0020751953125,-0.4276123046875,0.0528564453125,-7.080077648162842,-0.9155272841453552,-3.784179449081421
388459,-0.001220703125,-0.39306640625,0.051025390625,-7.202147960662842,-0.8544921278953552,-3.601073980331421
388476,-0.0042724609375,-0.3836669921875,0.0447998046875,-7.690429210662842,-0.7934569716453552,-2.868652105331421
388509,-0.015625,-0.4449462890625,0.0302734375,-8.23974609375,-0.4272460639476776,-0.4882812201976776
388574,0.002197265625,-0.789794921875,0.1307373046875,-6.347655773162842,0.4272460639476776,0.54931640625
388590,0.0030517578125,-0.821533203125,0.1397705078125,-4.94384765625,0.2441406100988388,0.9155272841453552
388606,-0.00390625,-0.8382568359375,0.112060546875,-3.601073980331421,0.4882812201976776,1.220703125
388638,-0.0035400390625,-0.8778076171875,0.1148681640625,-2.0751953125,1.03759765625,1.6479490995407104
388654,0.0059814453125,-0.900390625,0.1363525390625,-1.4038084745407104,1.2817381620407104,1.8920897245407104
388670,0.0103759765625,-0.905517578125,0.1343994140625,-0.0610351525247097,1.15966796875,1.6479490995407104
388686,0.0152587890625,-0.8734130859375,0.1319580078125,1.2817381620407104,1.220703125,1.7700194120407104
388707,0.017333984375,-0.9102783203125,0.1177978515625,2.50244140625,1.7089842557907104,2.44140625
388728,0.0208740234375,-0.957763671875,0.133056640625,3.173827886581421,1.8310545682907104,2.3193359375
388744,0.0267333984375,-1.038818359375,0.1492919921875,4.69970703125,1.8310545682907104,0.8544921278953552
388761,0.033447265625,-1.0284423828125,0.1658935546875,6.347655773162842,1.5869139432907104,-0.4882812201976776
388778,0.0352783203125,-1.026123046875,0.1649169921875,7.141112804412842,1.5258787870407104,-0.9155272841453552
388811,0.02197265625,-1.02392578125,0.142822265625,9.09423828125,1.4038084745407104,-2.25830078125
388828,0.0086669921875,-1.0118408203125,0.1317138671875,9.521484375,1.220703125,-2.929687261581421
388844,0.002685546875,-0.9954833984375,0.1199951171875,9.58251953125,1.2817381620407104,-3.112792730331421
388876,0.0057373046875,-0.986328125,0.1180419921875,9.21630859375,1.4038084745407104,-2.624511480331421
388892,0.00634765625,-0.9920654296875,0.118896484375,8.97216796875,1.220703125,-2.685546636581421
388908,0.0018310546875,-0.983642578125,0.0970458984375,8.544921875,1.2817381620407104,-2.38037109375
388924,-0.0001220703125,-0.9873046875,0.0985107421875,8.1787109375,1.2817381620407104,-2.25830078125
388944,-0.0069580078125,-0.98193359375,0.086181640625,7.568358898162842,1.4648436307907104,-1.9531248807907104
388966,-0.005126953125,-0.9781494140625,0.09912109375,6.896972179412842,1.4038084745407104,-1.5869139432907104
388982,-0.00341796875,-0.9525146484375,0.0953369140625,6.408690929412842,1.4038084745407104,-0.9155272841453552
388999,0.0001220703125,-0.9688720703125,0.096435546875,6.164550304412842,1.3427733182907104,-0.54931640625
389016,0.0009765625,-0.9759521484375,0.0947265625,5.554198741912842,1.4038084745407104,-0.1220703050494194
389049,0.003173828125,-0.9310302734375,0.0970458984375,4.21142578125,1.2817381620407104,0.6103515625
389066,0.005859375,-0.948486328125,0.1025390625,3.967284917831421,1.220703125,1.15966796875
389082,0.0091552734375,-0.9617919921875,0.107666015625,3.540038824081421,1.0986328125,1.4038084745407104
389114,0.0137939453125,-0.9586181640625,0.10546875,3.173827886581421,0.8544921278953552,1.6479490995407104
389130,0.017578125,-0.9617919921875,0.1114501953125,3.356933355331421,0.8544921278953552,2.01416015625
389146,0.023681640625,-0.9986572265625,0.127685546875,3.540038824081421,0.9155272841453552,2.13623046875
389178,0.02587890625,-1.0147705078125,0.1357421875,4.33349609375,0.3662109076976776,1.4038084745407104
389194,0.02587890625,-1.0140380859375,0.135498046875,4.5166015625,0.2441406100988388,1.220703125
389210,0.0245361328125,-1.01806640625,0.125244140625,5.065917491912842,0.2441406100988388,0.9765624403953552
389226,0.0250244140625,-1.017333984375,0.1279296875,5.310058116912842,0.1831054538488388,0.8544921278953552
389247,0.026123046875,-1.033447265625,0.1337890625,5.859374523162842,0.1220703050494194,0.4882812201976776
389268,0.025146484375,-1.0264892578125,0.12890625,6.347655773162842,-0.1831054538488388,-0.30517578125
389284,0.0201416015625,-0.988037109375,0.1129150390625,6.469726085662842,-0.3662109076976776,-0.4882812201976776
389301,0.0152587890625,-0.9766845703125,0.102294921875,6.469726085662842,-0.3662109076976776,-0.3662109076976776
389318,0.0133056640625,-0.994384765625,0.1005859375,6.286620616912842,-0.30517578125,-0.30517578125
389351,0.0135498046875,-1.017822265625,0.103271484375,5.371093273162842,-0.3662109076976776,-0.7934569716453552
389368,0.0108642578125,-1.0091552734375,0.1004638671875,4.45556640625,-0.6103515625,-0.9765624403953552
389384,0.0081787109375,-0.9996337890625,0.099365234375,3.906249761581421,-0.6103515625,-1.03759765625
389416,-0.0020751953125,-0.9576416015625,0.083984375,1.8310545682907104,-0.6103515625,-0.9155272841453552
389432,-0.005126953125,-0.961181640625,0.07861328125,0.4882812201976776,-0.54931640625,-0.1831054538488388
389448,-0.001708984375,-0.9970703125,0.0859375,-0.4882812201976776,-0.4272460639476776,0.0610351525247097
389464,0.0015869140625,-1.017333984375,0.0948486328125,-0.7934569716453552,-0.4882812201976776,-0.1220703050494194
389489,0.0035400390625,-1.002197265625,0.093994140625,-1.5869139432907104,-0.7324218153953552,-0.6103515625
389505,0.0042724609375,-0.9888916015625,0.09033203125,-2.44140625,-0.6713866591453552,-0.4882812201976776
389522,0.003662109375,-0.98388671875,0.0894775390625,-2.868652105331421,-0.6103515625,-0.4882812201976776
389543,0.0015869140625,-0.9683837890625,0.0899658203125,-3.601073980331421,-0.54931640625,-0.30517578125
389559,0.0025634765625,-1.001220703125,0.0980224609375,-4.150390625,-0.54931640625,0.1831054538488388
389592,0.0029296875,-0.99609375,0.09912109375,-4.638671875,-0.4882812201976776,0.0
389614,0.0037841796875,-0.994873046875,0.1019287109375,-4.5166015625,-0.4272460639476776,0.30517578125
389630,0.0072021484375,-1.0057373046875,0.1092529296875,-4.39453125,-0.3662109076976776,0.3662109076976776
389647,0.0081787109375,-1.009765625,0.1070556640625,-4.0283203125,-0.3662109076976776,0.3662109076976776
389664,0.009521484375,-1.00537109375,0.10888671875,-3.784179449081421,-0.4272460639476776,0.3662109076976776
389680,0.0108642578125,-0.9912109375,0.107177734375,-3.601073980331421,-0.3662109076976776,0.3662109076976776
389712,0.007568359375,-0.9656982421875,0.1005859375,-2.929687261581421,-0.2441406100988388,0.7934569716453552
389734,0.008056640625,-0.9627685546875,0.101318359375,-2.624511480331421,-0.2441406100988388,0.9765624403953552
389750,0.011962890625,-0.9661865234375,0.1005859375,-2.563476324081421,-0.1831054538488388,1.03759765625
389770,0.01416015625,-0.9705810546875,0.1019287109375,-2.3193359375,-0.0610351525247097,1.15966796875
389787,0.0167236328125,-0.97802734375,0.1043701171875,-2.197265625,-0.0610351525247097,1.220703125
389804,0.0164794921875,-0.9658203125,0.105224609375,-2.0751953125,-0.1831054538488388,1.03759765625
389836,0.0157470703125,-0.9776611328125,0.1114501953125,-1.4038084745407104,0.0,1.4038084745407104
389853,0.0174560546875,-1.004150390625,0.1168212890625,-0.7934569716453552,-0.1220703050494194,0.9765624403953552
389869,0.0172119140625,-1.006591796875,0.114501953125,-0.4272460639476776,-0.2441406100988388,0.8544921278953552
389885,0.0164794921875,-1.0054931640625,0.1121826171875,0.1831054538488388,-0.2441406100988388,0.6103515625
389910,0.011962890625,-1.001220703125,0.106689453125,0.7934569716453552,-0.1831054538488388,0.6103515625
389926,0.008056640625,-1.0059814453125,0.106201171875,1.5258787870407104,-0.1220703050494194,0.7324218153953552
389943,0.007080078125,-1.0128173828125,0.106689453125,1.7700194120407104,-0.1220703050494194,0.6713866591453552
389960,0.00732421875,-1.0025634765625,0.0966796875,1.9531248807907104,-0.1831054538488388,0.54931640625
389976,0.0081787109375,-1.0,0.095947265625,2.0751953125,0.0,0.7324218153953552
390010,0.0133056640625,-0.998291015625,0.1051025390625,2.563476324081421,-0.0610351525247097,0.54931640625
390027,0.0135498046875,-0.9962158203125,0.105224609375,2.624511480331421,-0.0610351525247097,0.6103515625
390048,0.013671875,-0.9937744140625,0.10205078125,2.624511480331421,-0.1220703050494194,0.54931640625
390064,0.0115966796875,-0.9822998046875,0.097412109375,2.563476324081421,-0.1220703050494194,0.4272460639476776
390081,0.0111083984375,-0.9805908203125,0.0999755859375,2.44140625,-0.0610351525247097,0.3662109076976776
390098,0.0125732421875,-0.983642578125,0.1029052734375,2.624511480331421,-0.1220703050494194,0.30517578125
390131,0.014404296875,-0.9522705078125,0.0919189453125,2.807616949081421,-0.30517578125,0.0610351525247097
390148,0.012939453125,-0.9478759765625,0.08935546875,2.868652105331421,-0.30517578125,0.0610351525247097
390164,0.010009765625,-0.9332275390625,0.0870361328125,3.051757574081421,-0.30517578125,-0.0610351525247097
390196,0.01318359375,-0.9268798828125,0.0892333984375,3.417968511581421,-0.3662109076976776,0.1220703050494194
390212,0.013427734375,-0.9244384765625,0.0858154296875,3.723144292831421,-0.4882812201976776,-0.1220703050494194
390228,0.0118408203125,-0.91552734375,0.0838623046875,3.906249761581421,-0.4882812201976776,-0.1220703050494194
390244,0.0106201171875,-0.913818359375,0.08203125,4.21142578125,-0.3662109076976776,0.2441406100988388
390269,0.0096435546875,-0.9345703125,0.0845947265625,4.5166015625,-0.30517578125,0.54931640625
390285,0.0072021484375,-0.9669189453125,0.0909423828125,4.7607421875,-0.30517578125,0.4882812201976776
390302,0.0064697265625,-0.968505859375,0.09228515625,5.249022960662842,-0.3662109076976776,0.2441406100988388
390323,0.00634765625,-0.977294921875,0.0947265625,5.737304210662842,-0.4272460639476776,0.2441406100988388
390339,0.001220703125,-0.9678955078125,0.085205078125,5.981444835662842,-0.54931640625,0.2441406100988388
390372,0.0069580078125,-0.9420166015625,0.072509765625,5.981444835662842,-0.4882812201976776,0.3662109076976776
390394,0.0091552734375,-0.94091796875,0.07421875,5.981444835662842,-0.4272460639476776,0.4272460639476776
390410,0.01123046875,-0.930908203125,0.0753173828125,6.225585460662842,-0.4272460639476776,0.4882812201976776
390427,0.0079345703125,-0.9288330078125,0.0770263671875,6.530761241912842,-0.6103515625,0.3662109076976776
390493,0.007568359375,-0.8497314453125,0.0450439453125,5.310058116912842,-0.6103515625,0.4272460639476776
390510,0.0079345703125,-0.83642578125,0.044921875,4.8828125,-0.54931640625,0.4272460639476776
390526,0.0050048828125,-0.7967529296875,0.044921875,3.906249761581421,-0.54931640625,0.6713866591453552
390558,0.0009765625,-0.805419921875,0.044189453125,2.50244140625,-0.4882812201976776,1.7089842557907104
390574,0.0050048828125,-0.8499755859375,0.0517578125,1.6479490995407104,-0.4272460639476776,1.8920897245407104
390590,0.008056640625,-0.8665771484375,0.056396484375,1.3427733182907104,-0.3662109076976776,1.8310545682907104
390606,0.01416015625,-0.899169921875,0.065185546875,0.9765624403953552,-0.3662109076976776,1.5869139432907104
390626,0.01611328125,-0.90087890625,0.0665283203125,0.7934569716453552,-0.54931640625,1.4648436307907104
390647,0.0174560546875,-0.9107666015625,0.0667724609375,0.4272460639476776,-0.4882812201976776,1.03759765625
390663,0.0152587890625,-0.866943359375,0.0660400390625,0.1220703050494194,-0.54931640625,0.9155272841453552
390680,0.0128173828125,-0.8515625,0.068603515625,-0.4272460639476776,-0.6713866591453552,1.5869139432907104
390697,0.00634765625,-0.8907470703125,0.0694580078125,-0.6103515625,-0.7324218153953552,2.01416015625
390730,-0.003662109375,-0.9500732421875,0.0809326171875,-1.03759765625,-0.9765624403953552,1.6479490995407104
390747,0.00048828125,-0.9495849609375,0.0888671875,-1.03759765625,-1.3427733182907104,0.9155272841453552
390763,0.00634765625,-0.8907470703125,0.07958984375,-0.9765624403953552,-1.5869139432907104,0.54931640625
390795,0.0108642578125,-0.8553466796875,0.0660400390625,-1.0986328125,-1.5869139432907104,1.220703125
390811,0.0106201171875,-0.85888671875,0.0631103515625,-1.03759765625,-1.6479490995407104,1.2817381620407104
390827,0.0107421875,-0.857421875,0.06201171875,-0.8544921278953552,-1.4648436307907104,1.7700194120407104
390863,0.0174560546875,-0.985107421875,0.0882568359375,0.3662109076976776,-1.0986328125,2.13623046875
390879,0.0205078125,-0.999755859375,0.095703125,0.7934569716453552,-1.03759765625,1.8920897245407104
390895,0.0252685546875,-1.0015869140625,0.1129150390625,1.9531248807907104,-1.03759765625,1.3427733182907104
390911,0.0260009765625,-0.9881591796875,0.1175537109375,2.624511480331421,-1.0986328125,1.220703125
390927,0.025634765625,-0.9813232421875,0.107666015625,3.479003667831421,-1.0986328125,1.5258787870407104
390979,0.0299072265625,-1.0740966796875,0.1068115234375,5.615233898162842,-0.8544921278953552,1.5258787870407104
390995,0.032470703125,-1.0770263671875,0.1163330078125,6.225585460662842,-0.9155272841453552,1.0986328125
391012,0.029052734375,-1.0408935546875,0.107666015625,7.324218273162842,-1.15966796875,0.4272460639476776
391029,0.0242919921875,-0.971923828125,0.1029052734375,7.995604991912842,-1.0986328125,1.0986328125
391046,0.02099609375,-0.9747314453125,0.0941162109375,8.30078125,-1.03759765625,1.6479490995407104
391066,0.0230712890625,-1.035888671875,0.0989990234375,9.1552734375,-0.9765624403953552,2.624511480331421
391087,0.0242919921875,-1.051513671875,0.089599609375,9.70458984375,-0.9155272841453552,2.25830078125
391104,0.0213623046875,-1.034912109375,0.0821533203125,10.253905296325684,-0.7934569716453552,2.44140625
391129,0.01953125,-1.0103759765625,0.073974609375,10.620116233825684,-0.7934569716453552,2.746581792831421
391145,0.017578125,-0.9759521484375,0.0550537109375,10.681151390075684,-0.7934569716453552,2.929687261581421
391162,0.01708984375,-0.9617919921875,0.046875,10.559081077575684,-0.4882812201976776,3.784179449081421
391179,0.020751953125,-0.968994140625,0.0452880859375,10.192870140075684,-0.1831054538488388,4.82177734375
391212,0.03125,-1.052734375,0.0601806640625,9.82666015625,-0.1220703050494194,5.981444835662842
391229,0.0406494140625,-1.138671875,0.0733642578125,9.521484375,-0.2441406100988388,4.82177734375
391245,0.040771484375,-1.080322265625,0.060302734375,8.97216796875,-0.54931640625,3.662109136581421
391277,0.039794921875,-0.992919921875,0.030029296875,7.324218273162842,-0.4272460639476776,4.7607421875
391298,0.0484619140625,-1.0703125,0.0225830078125,6.774901866912842,-0.3662109076976776,5.065917491912842
391315,0.0631103515625,-1.1419677734375,0.0343017578125,6.042479991912842,-0.30517578125,4.638671875
391332,0.0672607421875,-1.159423828125,0.034912109375,5.554198741912842,-0.3662109076976776,3.479003667831421
391348,0.063232421875,-1.14453125,0.0194091796875,5.432128429412842,-0.3662109076976776,2.746581792831421
391365,0.0601806640625,-1.106201171875,0.01904296875,5.0048828125,-0.1831054538488388,1.9531248807907104
391398,0.074951171875,-1.23046875,0.032958984375,5.065917491912842,-0.0610351525247097,1.15966796875
391414,0.07763671875,-1.2523193359375,0.040283203125,5.126952648162842,-0.0610351525247097,0.0610351525247097
391430,0.069580078125,-1.194580078125,0.03466796875,5.310058116912842,-0.1220703050494194,-2.0751953125
391446,0.0499267578125,-1.0692138671875,0.0279541015625,5.187987804412842,-0.1220703050494194,-2.197265625
391466,0.0364990234375,-1.0467529296875,0.020751953125,4.57763671875,-0.1220703050494194,-1.5869139432907104
391482,0.0325927734375,-1.0577392578125,0.018310546875,4.08935546875,-0.0610351525247097,-1.5258787870407104
391498,0.027099609375,-1.0709228515625,0.0135498046875,3.051757574081421,0.0,-1.7089842557907104
391515,0.027587890625,-1.0751953125,0.0159912109375,2.685546636581421,0.0610351525247097,-1.7700194120407104
391536,0.0281982421875,-1.0771484375,0.01513671875,2.13623046875,0.1220703050494194,-1.7700194120407104
391552,0.0308837890625,-1.099853515625,0.0185546875,1.6479490995407104,0.1831054538488388,-1.7700194120407104
391569,0.0302734375,-1.1107177734375,0.0169677734375,1.4038084745407104,0.1831054538488388,-2.01416015625
391586,0.0260009765625,-1.08203125,0.0284423828125,0.7324218153953552,0.30517578125,-2.44140625
391602,0.021240234375,-1.0478515625,0.0238037109375,0.3662109076976776,0.2441406100988388,-2.624511480331421
391636,0.0074462890625,-1.0164794921875,0.0008544921875,-0.7934569716453552,0.3662109076976776,-1.8310545682907104
391684,0.0181884765625,-1.0439453125,0.0174560546875,-1.5869139432907104,0.6103515625,-1.0986328125
391769,0.0269775390625,-1.056884765625,0.011962890625,-1.4038084745407104,0.9765624403953552,-0.54931640625
391786,0.0294189453125,-1.0225830078125,0.02099609375,-1.3427733182907104,1.15966796875,-0.54931640625
391803,0.0283203125,-0.994140625,0.019287109375,-1.220703125,1.03759765625,-0.1220703050494194
391823,0.0294189453125,-0.998046875,0.0140380859375,-1.03759765625,0.9765624403953552,0.54931640625
391839,0.0340576171875,-1.006591796875,0.0076904296875,-1.0986328125,1.0986328125,0.6103515625
391856,0.041259765625,-0.9974365234375,0.01220703125,-1.15966796875,1.0986328125,0.7934569716453552
391872,0.0438232421875,-0.9920654296875,0.0106201171875,-1.2817381620407104,1.03759765625,0.7324218153953552
391889,0.0438232421875,-0.9720458984375,0.00634765625,-1.2817381620407104,1.03759765625,1.220703125
391910,0.0452880859375,-1.0269775390625,0.0103759765625,-1.2817381620407104,1.15966796875,1.3427733182907104
391926,0.04931640625,-1.0408935546875,0.021240234375,-1.3427733182907104,1.220703125,0.8544921278953552
391943,0.0494384765625,-1.042724609375,0.02685546875,-1.15966796875,1.03759765625,0.3662109076976776
391960,0.042724609375,-1.0123291015625,0.016845703125,-1.15966796875,0.9155272841453552,0.1220703050494194
392026,0.0350341796875,-1.0146484375,0.025146484375,-1.8310545682907104,1.15966796875,-0.0610351525247097
392068,0.033203125,-1.05126953125,0.011474609375,-1.5258787870407104,0.9155272841453552,-0.0610351525247097
392085,0.023681640625,-1.0445556640625,0.0069580078125,-1.4038084745407104,1.03759765625,-0.54931640625
392102,-0.0335693359375,-0.9044189453125,0.0228271484375,1.8920897245407104,1.03759765625,2.13623046875
392122,-0.004638671875,-0.881591796875,0.0228271484375,7.873534679412842,0.6713866591453552,5.615233898162842
392139,0.0523681640625,-1.4935302734375,0.0655517578125,1.8310545682907104,0.3662109076976776,3.967284917831421
392155,0.06884765625,-1.668212890625,0.06982421875,-4.21142578125,0.0610351525247097,0.7324218153953552
