tMillis,ax,ay,az,gx,gy,gz
643548,-0.0433349609375,-0.0380859375,-0.9801025390625,0.6103515625,-0.2441406100988388,0.2441406100988388
643564,-0.0421142578125,-0.0386962890625,-0.979736328125,0.6103515625,-0.2441406100988388,0.2441406100988388
643580,-0.0433349609375,-0.0394287109375,-0.9791259765625,0.7324218153953552,-0.2441406100988388,0.30517578125
643597,-0.04345703125,-0.039794921875,-0.9805908203125,0.7324218153953552,-0.2441406100988388,0.30517578125
643618,-0.042724609375,-0.03857421875,-0.981689453125,0.6103515625,-0.2441406100988388,0.30517578125
643634,-0.0430908203125,-0.0380859375,-0.980712890625,0.6103515625,-0.2441406100988388,0.2441406100988388
643655,-0.044189453125,-0.0384521484375,-0.97998046875,0.6713866591453552,-0.2441406100988388,0.2441406100988388
643672,-0.0430908203125,-0.0390625,-0.9803466796875,0.6713866591453552,-0.2441406100988388,0.2441406100988388
643705,-0.0423583984375,-0.0394287109375,-0.980224609375,0.6713866591453552,-0.1831054538488388,0.2441406100988388
643770,-0.0428466796875,-0.0382080078125,-0.9798583984375,0.6713866591453552,-0.2441406100988388,0.30517578125
643786,-0.042724609375,-0.0379638671875,-0.98046875,0.6713866591453552,-0.2441406100988388,0.2441406100988388
643802,-0.043212890625,-0.0391845703125,-0.98046875,0.7324218153953552,-0.2441406100988388,0.2441406100988388
643818,-0.0433349609375,-0.0390625,-0.9798583984375,0.7324218153953552,-0.2441406100988388,0.2441406100988388
643838,-0.0439453125,-0.03955078125,-0.979248046875,0.6713866591453552,-0.2441406100988388,0.30517578125
643854,-0.043212890625,-0.038330078125,-0.9803466796875,0.6103515625,-0.2441406100988388,0.30517578125
643886,-0.0433349609375,-0.0391845703125,-0.978759765625,0.6103515625,-0.1831054538488388,0.30517578125
643902,-0.043212890625,-0.0384521484375,-0.980224609375,0.54931640625,-0.2441406100988388,0.2441406100988388
643918,-0.0433349609375,-0.037841796875,-0.9805908203125,0.54931640625,-0.2441406100988388,0.2441406100988388
643954,-0.04296875,-0.03857421875,-0.980712890625,0.6103515625,-0.1831054538488388,0.2441406100988388
643970,-0.044189453125,-0.0394287109375,-0.9801025390625,0.54931640625,-0.1831054538488388,0.30517578125
643986,-0.0440673828125,-0.0394287109375,-0.98046875,0.6103515625,-0.2441406100988388,0.2441406100988388
644002,-0.04345703125,-0.037841796875,-0.9798583984375,0.6103515625,-0.1831054538488388,0.1831054538488388
644019,-0.0430908203125,-0.0377197265625,-0.97900390625,0.6713866591453552,-0.1831054538488388,0.1831054538488388
644044,-0.04345703125,-0.039306640625,-0.9810791015625,0.6713866591453552,-0.1831054538488388,0.2441406100988388
644059,-0.04296875,-0.038818359375,-0.980224609375,0.6103515625,-0.2441406100988388,0.30517578125
644125,-0.0421142578125,-0.0389404296875,-0.98095703125,0.6103515625,-0.1831054538488388,0.30517578125
644141,-0.04345703125,-0.03955078125,-0.97900390625,0.54931640625,-0.2441406100988388,0.2441406100988388
644158,-0.0440673828125,-0.0391845703125,-0.979248046875,0.54931640625,-0.2441406100988388,0.2441406100988388
644194,-0.043212890625,-0.0400390625,-0.97900390625,0.6103515625,-0.1831054538488388,0.2441406100988388
644210,-0.0439453125,-0.0396728515625,-0.9796142578125,0.6103515625,-0.2441406100988388,0.2441406100988388
644226,-0.04345703125,-0.039306640625,-0.978271484375,0.6103515625,-0.1831054538488388,0.1220703050494194
644242,-0.0426025390625,-0.039306640625,-0.9803466796875,0.6103515625,-0.1831054538488388,0.2441406100988388
644265,-0.0423583984375,-0.039306640625,-0.9788818359375,0.6103515625,-0.2441406100988388,0.30517578125
644281,-0.0433349609375,-0.0391845703125,-0.9798583984375,0.6713866591453552,-0.1831054538488388,0.2441406100988388
644298,-0.0440673828125,-0.0389404296875,-0.98095703125,0.54931640625,-0.1831054538488388,0.1831054538488388
644315,-0.0426025390625,-0.03955078125,-0.9798583984375,0.54931640625,-0.1831054538488388,0.2441406100988388
644331,-0.04345703125,-0.0394287109375,-0.981201171875,0.6713866591453552,-0.2441406100988388,0.2441406100988388
644365,-0.043212890625,-0.0399169921875,-0.9801025390625,0.6103515625,-0.1220703050494194,0.2441406100988388
644381,-0.0430908203125,-0.039794921875,-0.9794921875,0.54931640625,-0.1831054538488388,0.1831054538488388
644397,-0.04296875,-0.0389404296875,-0.9798583984375,0.54931640625,-0.30517578125,0.1831054538488388
644429,-0.042236328125,-0.0390625,-0.97998046875,0.7324218153953552,-0.1220703050494194,0.1831054538488388
644445,-0.04345703125,-0.03857421875,-0.98095703125,0.6103515625,-0.1831054538488388,0.2441406100988388
644461,-0.0421142578125,-0.039306640625,-0.9818115234375,0.54931640625,-0.1831054538488388,0.2441406100988388
644477,-0.0426025390625,-0.038818359375,-0.98193359375,0.6103515625,-0.2441406100988388,0.2441406100988388
644497,-0.042724609375,-0.039306640625,-0.9793701171875,0.6103515625,-0.1220703050494194,0.2441406100988388
644513,-0.043212890625,-0.0401611328125,-0.9793701171875,0.6103515625,-0.1220703050494194,0.2441406100988388
644529,-0.0433349609375,-0.039306640625,-0.9794921875,0.6103515625,-0.1831054538488388,0.2441406100988388
644542,-0.0428466796875,-0.037841796875,-0.9786376953125,0.6713866591453552,-0.2441406100988388,0.2441406100988388
644596,-0.0435791015625,-0.038818359375,-0.979736328125,0.6713866591453552,-0.2441406100988388,0.2441406100988388
644613,-0.0433349609375,-0.0389404296875,-0.9805908203125,0.6713866591453552,-0.2441406100988388,0.30517578125
644663,-0.044189453125,-0.039794921875,-0.9788818359375,0.6103515625,-0.2441406100988388,0.2441406100988388
644679,-0.0438232421875,-0.0394287109375,-0.9788818359375,0.6103515625,-0.2441406100988388,0.2441406100988388
644696,-0.04296875,-0.039306640625,-0.9788818359375,0.6103515625,-0.1831054538488388,0.1831054538488388
644728,-0.0430908203125,-0.038330078125,-0.97998046875,0.6713866591453552,-0.2441406100988388,0.2441406100988388
644744,-0.043212890625,-0.03955078125,-0.97900390625,0.6713866591453552,-0.2441406100988388,0.2441406100988388
644776,-0.0423583984375,-0.037841796875,-0.9814453125,0.54931640625,-0.1831054538488388,0.1831054538488388
644798,-0.0423583984375,-0.0386962890625,-0.9803466796875,0.6103515625,-0.2441406100988388,0.2441406100988388
644815,-0.043701171875,-0.038818359375,-0.9808349609375,0.6103515625,-0.1831054538488388,0.2441406100988388
644852,-0.0438232421875,-0.0389404296875,-0.9796142578125,0.6713866591453552,-0.2441406100988388,0.1831054538488388
644869,-0.0430908203125,-0.03857421875,-0.9805908203125,0.6713866591453552,-0.2441406100988388,0.2441406100988388
644885,-0.042724609375,-0.0389404296875,-0.98046875,0.6713866591453552,-0.2441406100988388,0.30517578125
644902,-0.0426025390625,-0.0394287109375,-0.9796142578125,0.6103515625,-0.30517578125,0.2441406100988388
644919,-0.0433349609375,-0.0400390625,-0.9803466796875,0.6103515625,-0.1831054538488388,0.2441406100988388
644940,-0.044189453125,-0.0379638671875,-0.9805908203125,0.6103515625,-0.2441406100988388,0.2441406100988388
644956,-0.0423583984375,-0.0390625,-0.978759765625,0.6103515625,-0.2441406100988388,0.2441406100988388
644973,-0.0430908203125,-0.0394287109375,-0.9796142578125,0.6713866591453552,-0.2441406100988388,0.2441406100988388
644990,-0.0428466796875,-0.038330078125,-0.9813232421875,0.6713866591453552,-0.1220703050494194,0.30517578125
645021,-0.043212890625,-0.0396728515625,-0.9783935546875,0.6103515625,-0.2441406100988388,0.30517578125
645086,-0.0435791015625,-0.0380859375,-0.979736328125,0.6103515625,-0.1831054538488388,0.30517578125
645106,-0.04296875,-0.0380859375,-0.9791259765625,0.6103515625,-0.2441406100988388,0.30517578125
645138,-0.04296875,-0.0386962890625,-0.98046875,0.6713866591453552,-0.1220703050494194,0.2441406100988388
645158,-0.0430908203125,-0.0379638671875,-0.97998046875,0.6713866591453552,-0.1831054538488388,0.2441406100988388
645174,-0.0430908203125,-0.0379638671875,-0.9798583984375,0.6103515625,-0.1831054538488388,0.2441406100988388
645190,-0.0433349609375,-0.037109375,-0.9814453125,0.54931640625,-0.1831054538488388,0.2441406100988388
645206,-0.042724609375,-0.038330078125,-0.9796142578125,0.6103515625,-0.1831054538488388,0.2441406100988388
645222,-0.04296875,-0.0390625,-0.978515625,0.6103515625,-0.1220703050494194,0.2441406100988388
645238,-0.04345703125,-0.0390625,-0.9786376953125,0.6103515625,-0.2441406100988388,0.2441406100988388
645274,-0.0426025390625,-0.0384521484375,-0.980224609375,0.6103515625,-0.2441406100988388,0.30517578125
645296,-0.0433349609375,-0.037841796875,-0.9794921875,0.7324218153953552,-0.2441406100988388,0.30517578125
645312,-0.0430908203125,-0.039306640625,-0.980224609375,0.6713866591453552,-0.1831054538488388,0.2441406100988388
645329,-0.043212890625,-0.03955078125,-0.981201171875,0.6103515625,-0.1220703050494194,0.2441406100988388
645379,-0.0426025390625,-0.0396728515625,-0.981689453125,0.6103515625,-0.2441406100988388,0.30517578125
645395,-0.0430908203125,-0.0377197265625,-0.9775390625,0.6713866591453552,-0.2441406100988388,0.2441406100988388
645412,-0.0433349609375,-0.0384521484375,-0.9810791015625,0.6713866591453552,-0.1831054538488388,0.1831054538488388
645457,-0.0440673828125,-0.0379638671875,-0.9801025390625,0.6713866591453552,-0.1831054538488388,0.30517578125
645519,-0.0433349609375,-0.038818359375,-0.9808349609375,0.6103515625,-0.1831054538488388,0.2441406100988388
645536,-0.04248046875,-0.037841796875,-0.9813232421875,0.54931640625,-0.1831054538488388,0.2441406100988388
645573,-0.042724609375,-0.0379638671875,-0.9798583984375,0.6713866591453552,-0.1831054538488388,0.30517578125
645590,-0.042724609375,-0.0394287109375,-0.977783203125,0.6103515625,-0.2441406100988388,0.2441406100988388
645606,-0.04443359375,-0.0404052734375,-0.983154296875,0.6103515625,-0.1831054538488388,0.30517578125
645623,-0.0439453125,-0.03955078125,-0.980712890625,0.6713866591453552,-0.1831054538488388,0.30517578125
645640,-0.04296875,-0.037841796875,-0.9791259765625,0.6103515625,-0.1831054538488388,0.30517578125
645661,-0.0418701171875,-0.03857421875,-0.9765625,0.6103515625,-0.1831054538488388,0.2441406100988388
645677,-0.04345703125,-0.038330078125,-0.9822998046875,0.6103515625,-0.1831054538488388,0.30517578125
645744,-0.0426025390625,-0.038330078125,-0.979248046875,0.6103515625,-0.1831054538488388,0.2441406100988388
645760,-0.04345703125,-0.0386962890625,-0.9791259765625,0.6103515625,-0.1831054538488388,0.30517578125
645777,-0.044189453125,-0.03857421875,-0.9736328125,0.6713866591453552,-0.1831054538488388,0.2441406100988388
645815,-0.0423583984375,-0.038818359375,-0.98583984375,0.6713866591453552,-0.1831054538488388,0.2441406100988388
645831,-0.042236328125,-0.03857421875,-0.9837646484375,0.6713866591453552,-0.2441406100988388,0.30517578125
645848,-0.04296875,-0.0389404296875,-0.9747314453125,0.6713866591453552,-0.1831054538488388,0.30517578125
645862,-0.0428466796875,-0.0384521484375,-0.9766845703125,0.6103515625,-0.2441406100988388,0.2441406100988388
645879,-0.0421142578125,-0.0396728515625,-0.9814453125,0.6103515625,-0.1831054538488388,0.1831054538488388
645896,-0.0421142578125,-0.0399169921875,-0.976318359375,0.6713866591453552,-0.1831054538488388,0.2441406100988388
645944,-0.0416259765625,-0.0386962890625,-0.9842529296875,0.6713866591453552,-0.1831054538488388,0.30517578125
646013,-0.04296875,-0.0389404296875,-0.98388671875,0.6103515625,-0.1220703050494194,0.30517578125
646058,-0.043701171875,-0.0379638671875,-0.981689453125,0.6713866591453552,-0.1831054538488388,0.1831054538488388
646075,-0.0423583984375,-0.0379638671875,-0.98046875,0.6713866591453552,-0.1831054538488388,0.30517578125
646108,-0.044189453125,-0.0391845703125,-0.9791259765625,0.6713866591453552,-0.2441406100988388,0.2441406100988388
646125,-0.0433349609375,-0.039794921875,-0.9827880859375,0.6103515625,-0.1831054538488388,0.1831054538488388
646141,-0.0426025390625,-0.040283203125,-0.97998046875,0.6103515625,-0.2441406100988388,0.1831054538488388
646157,-0.043701171875,-0.037841796875,-0.9805908203125,0.6103515625,-0.1831054538488388,0.1831054538488388
646177,-0.0430908203125,-0.038330078125,-0.97998046875,0.6713866591453552,-0.1831054538488388,0.1831054538488388
646193,-0.0428466796875,-0.03857421875,-0.978271484375,0.7324218153953552,-0.1831054538488388,0.2441406100988388
646209,-0.0428466796875,-0.039794921875,-0.979248046875,0.6713866591453552,-0.2441406100988388,0.1831054538488388
646225,-0.042724609375,-0.039306640625,-0.9793701171875,0.6103515625,-0.2441406100988388,0.1831054538488388
646241,-0.0433349609375,-0.03857421875,-0.98095703125,0.6713866591453552,-0.1831054538488388,0.30517578125
646257,-0.0440673828125,-0.03857421875,-0.9820556640625,0.6713866591453552,-0.1831054538488388,0.30517578125
646290,-0.042724609375,-0.0386962890625,-0.980712890625,0.6103515625,-0.1831054538488388,0.2441406100988388
646311,-0.0430908203125,-0.0391845703125,-0.9801025390625,0.6713866591453552,-0.1831054538488388,0.2441406100988388
646327,-0.0439453125,-0.0391845703125,-0.9794921875,0.7324218153953552,-0.1831054538488388,0.2441406100988388
646342,-0.043212890625,-0.0389404296875,-0.9798583984375,0.6103515625,-0.1831054538488388,0.30517578125
646358,-0.0433349609375,-0.038330078125,-0.9796142578125,0.6103515625,-0.1831054538488388,0.2441406100988388
646375,-0.0438232421875,-0.038818359375,-0.9793701171875,0.6713866591453552,-0.2441406100988388,0.2441406100988388
646408,-0.0435791015625,-0.038330078125,-0.9793701171875,0.6713866591453552,-0.1831054538488388,0.2441406100988388
646428,-0.0419921875,-0.039306640625,-0.9796142578125,0.54931640625,-0.1831054538488388,0.2441406100988388
646444,-0.0426025390625,-0.0394287109375,-0.982177734375,0.6103515625,-0.1831054538488388,0.30517578125
646460,-0.0439453125,-0.03955078125,-0.98095703125,0.6103515625,-0.1831054538488388,0.2441406100988388
646482,-0.04345703125,-0.0400390625,-0.97900390625,0.6103515625,-0.2441406100988388,0.2441406100988388
646498,-0.0426025390625,-0.03955078125,-0.980224609375,0.6713866591453552,-0.30517578125,0.30517578125
646519,-0.0418701171875,-0.0384521484375,-0.9781494140625,0.6713866591453552,-0.1831054538488388,0.2441406100988388
646591,-0.041015625,-0.0391845703125,-0.9801025390625,0.6103515625,-0.1831054538488388,0.30517578125
646607,-0.041748046875,-0.038818359375,-0.9783935546875,0.6103515625,-0.1220703050494194,0.1831054538488388
646624,-0.0438232421875,-0.03759765625,-0.979248046875,0.6713866591453552,-0.1831054538488388,0.1831054538488388
646640,-0.041748046875,-0.0382080078125,-0.97998046875,0.6103515625,-0.2441406100988388,0.30517578125
646663,-0.0418701171875,-0.0384521484375,-0.97998046875,0.6103515625,-0.1831054538488388,0.2441406100988388
646679,-0.04443359375,-0.03857421875,-0.9820556640625,0.6103515625,-0.1831054538488388,0.2441406100988388
646696,-0.0435791015625,-0.0389404296875,-0.9798583984375,0.6713866591453552,-0.2441406100988388,0.2441406100988388
646713,-0.043212890625,-0.03955078125,-0.9774169921875,0.6103515625,-0.2441406100988388,0.2441406100988388
646729,-0.044189453125,-0.040283203125,-0.980224609375,0.6103515625,-0.1831054538488388,0.1831054538488388
646762,-0.0439453125,-0.0390625,-0.9805908203125,0.6103515625,-0.30517578125,0.30517578125
646779,-0.0438232421875,-0.0384521484375,-0.980224609375,0.6103515625,-0.2441406100988388,0.30517578125
646795,-0.0421142578125,-0.039306640625,-0.978515625,0.6103515625,-0.1831054538488388,0.2441406100988388
646826,-0.0433349609375,-0.039794921875,-0.980712890625,0.7934569716453552,-0.2441406100988388,0.1831054538488388
646848,-0.04345703125,-0.039794921875,-0.97998046875,0.8544921278953552,-0.1831054538488388,0.2441406100988388
646864,-0.0430908203125,-0.038818359375,-0.9813232421875,0.9155272841453552,-0.1831054538488388,0.2441406100988388
646911,-0.0430908203125,-0.0391845703125,-0.9808349609375,1.15966796875,-0.2441406100988388,0.1220703050494194
646955,-0.0428466796875,-0.037841796875,-0.9786376953125,1.0986328125,-0.1831054538488388,0.2441406100988388
646972,-0.0433349609375,-0.038818359375,-0.9794921875,1.15966796875,-0.1831054538488388,0.2441406100988388
647003,-0.0447998046875,-0.0423583984375,-0.979736328125,1.220703125,-0.1831054538488388,0.2441406100988388
647019,-0.043212890625,-0.04443359375,-0.9796142578125,1.6479490995407104,-0.1831054538488388,0.1220703050494194
647036,-0.04150390625,-0.0390625,-0.9781494140625,2.0751953125,-0.1831054538488388,0.1220703050494194
647068,-0.0440673828125,-0.0382080078125,-0.981201171875,2.38037109375,-0.30517578125,0.1831054538488388
647100,-0.0423583984375,-0.03759765625,-0.97998046875,2.746581792831421,-0.1831054538488388,0.1831054538488388
647142,-0.042724609375,-0.0335693359375,-0.9801025390625,3.112792730331421,-0.2441406100988388,0.1220703050494194
647159,-0.04248046875,-0.033203125,-0.9791259765625,3.234863042831421,-0.2441406100988388,0.1220703050494194
647176,-0.0428466796875,-0.03369140625,-0.979248046875,3.295898199081421,-0.2441406100988388,0.1220703050494194
647196,-0.043701171875,-0.030517578125,-0.9798583984375,3.479003667831421,-0.30517578125,0.1220703050494194
647213,-0.0430908203125,-0.0296630859375,-0.9796142578125,3.356933355331421,-0.2441406100988388,0.1220703050494194
647244,-0.0423583984375,-0.0294189453125,-0.980224609375,3.051757574081421,-0.30517578125,0.1220703050494194
647260,-0.0416259765625,-0.02734375,-0.9814453125,2.990722417831421,-0.3662109076976776,0.1220703050494194
647276,-0.0411376953125,-0.0250244140625,-0.9818115234375,2.868652105331421,-0.30517578125,0.1220703050494194
647305,-0.0450439453125,-0.0264892578125,-0.979736328125,2.685546636581421,-0.2441406100988388,0.2441406100988388
647327,-0.043212890625,-0.027099609375,-0.978515625,2.563476324081421,-0.2441406100988388,0.1220703050494194
647343,-0.040283203125,-0.0233154296875,-0.980712890625,2.50244140625,-0.2441406100988388,0.1220703050494194
647360,-0.0382080078125,-0.0208740234375,-0.9833984375,2.3193359375,-0.2441406100988388,0.1220703050494194
647426,-0.042236328125,-0.0244140625,-0.97802734375,2.3193359375,-0.2441406100988388,0.0610351525247097
647443,-0.042236328125,-0.0194091796875,-0.980712890625,2.13623046875,-0.1831054538488388,0.1220703050494194
647459,-0.043212890625,-0.0166015625,-0.9794921875,1.9531248807907104,-0.1220703050494194,0.1831054538488388
647475,-0.0430908203125,-0.0172119140625,-0.9810791015625,1.7089842557907104,-0.1220703050494194,0.2441406100988388
647495,-0.040771484375,-0.021240234375,-0.98046875,1.5258787870407104,-0.1831054538488388,0.2441406100988388
647517,-0.0433349609375,-0.023681640625,-0.980712890625,1.4648436307907104,-0.1831054538488388,0.2441406100988388
647533,-0.044189453125,-0.0179443359375,-0.979248046875,1.4648436307907104,-0.2441406100988388,0.1831054538488388
647552,-0.043212890625,-0.017333984375,-0.9788818359375,1.4038084745407104,-0.1831054538488388,0.2441406100988388
647569,-0.04150390625,-0.0147705078125,-0.98046875,1.15966796875,-0.1831054538488388,0.2441406100988388
647602,-0.04443359375,-0.021240234375,-0.978515625,0.6713866591453552,-0.1831054538488388,0.30517578125
647623,-0.04345703125,-0.0213623046875,-0.9808349609375,0.6103515625,-0.1831054538488388,0.1831054538488388
647639,-0.04248046875,-0.019775390625,-0.981689453125,0.6713866591453552,-0.1831054538488388,0.1831054538488388
647675,-0.0435791015625,-0.018798828125,-0.9788818359375,0.3662109076976776,-0.1220703050494194,0.3662109076976776
647696,-0.0435791015625,-0.02392578125,-0.978515625,0.4882812201976776,-0.30517578125,0.4272460639476776
647717,-0.0421142578125,-0.03125,-0.9814453125,0.6713866591453552,-0.3662109076976776,0.3662109076976776
647734,-0.042236328125,-0.017822265625,-0.9774169921875,1.0986328125,-0.2441406100988388,0.0610351525247097
647750,-0.0433349609375,-0.0186767578125,-0.97900390625,1.220703125,-0.30517578125,0.30517578125
647783,-0.04248046875,-0.01708984375,-0.9791259765625,1.220703125,-0.2441406100988388,0.1831054538488388
647799,-0.0419921875,-0.0203857421875,-0.9779052734375,0.9765624403953552,-0.3662109076976776,0.2441406100988388
647816,-0.041259765625,-0.017822265625,-0.97998046875,0.7934569716453552,-0.4882812201976776,0.30517578125
647848,-0.044189453125,-0.0135498046875,-0.9776611328125,0.4272460639476776,-0.7324218153953552,0.2441406100988388
647896,-0.0401611328125,-0.0205078125,-0.9844970703125,-0.4882812201976776,-0.9765624403953552,0.1831054538488388
647923,-0.0421142578125,-0.012939453125,-0.9852294921875,-0.6713866591453552,-0.9765624403953552,0.3662109076976776
647940,-0.0450439453125,-0.017578125,-0.97607421875,-0.9155272841453552,-0.9155272841453552,0.3662109076976776
647957,-0.037353515625,-0.0078125,-0.984619140625,-0.9155272841453552,-0.9155272841453552,0.3662109076976776
647974,-0.033447265625,-0.031494140625,-0.9698486328125,-1.0986328125,-1.15966796875,0.8544921278953552
647990,-0.03857421875,-0.0384521484375,-0.9759521484375,-0.9155272841453552,-2.38037109375,0.7934569716453552
648023,-0.0821533203125,-0.0567626953125,-1.0653076171875,1.15966796875,-3.540038824081421,0.30517578125
648040,-0.083984375,-0.07373046875,-1.1510009765625,3.173827886581421,-2.807616949081421,0.1831054538488388
648061,-0.07958984375,-0.093994140625,-1.290771484375,4.150390625,-1.7089842557907104,0.0
648077,-0.078857421875,-0.0892333984375,-1.355712890625,4.7607421875,-1.15966796875,-0.0610351525247097
648094,-0.07666015625,-0.073486328125,-1.371826171875,6.347655773162842,-0.6713866591453552,-0.30517578125
648111,-0.0615234375,-0.041015625,-1.4085693359375,6.774901866912842,0.0,0.0
648144,-0.039794921875,-0.05322265625,-1.4295654296875,6.713866710662842,2.746581792831421,0.6103515625
648160,-0.0421142578125,-0.05810546875,-1.4129638671875,7.385253429412842,3.662109136581421,0.6103515625
648176,-0.0589599609375,-0.05908203125,-1.429931640625,7.568358898162842,5.0048828125,0.3662109076976776
648208,-0.0699462890625,-0.0068359375,-1.31103515625,6.896972179412842,6.225585460662842,0.54931640625
648256,-0.0877685546875,-0.0123291015625,-1.300048828125,4.638671875,5.981444835662842,1.220703125
648283,-0.086181640625,-0.0184326171875,-1.2724609375,4.21142578125,5.981444835662842,0.9765624403953552
648300,-0.090087890625,-0.00830078125,-1.2091064453125,3.417968511581421,5.249022960662842,0.8544921278953552
648333,-0.097412109375,0.0093994140625,-1.127685546875,1.7700194120407104,3.173827886581421,1.0986328125
648397,-0.07421875,0.0032958984375,-0.99755859375,-3.356933355331421,-1.03759765625,1.0986328125
648414,-0.0665283203125,0.005126953125,-0.9571533203125,-5.981444835662842,-3.051757574081421,1.0986328125
648444,-0.0672607421875,0.001220703125,-1.0426025390625,-9.1552734375,-6.347655773162842,0.9155272841453552
648461,-0.06396484375,-0.0015869140625,-1.048095703125,-9.82666015625,-6.286620616912842,1.03759765625
648477,-0.0498046875,-0.000732421875,-0.9864501953125,-10.803221702575684,-6.408690929412842,0.9765624403953552
648509,-0.0338134765625,-0.01171875,-0.894775390625,-12.451170921325684,-7.690429210662842,1.0986328125
648525,-0.0279541015625,-0.02783203125,-0.8974609375,-12.695311546325684,-8.056640625,1.03759765625
648557,-0.0220947265625,-0.0250244140625,-0.8955078125,-12.145995140075684,-7.385253429412842,0.7934569716453552
648578,-0.02099609375,-0.032958984375,-0.8778076171875,-12.023924827575684,-7.141112804412842,0.7934569716453552
648598,-0.019287109375,-0.03662109375,-0.859130859375,-11.352538108825684,-6.164550304412842,0.6713866591453552
648619,-0.016357421875,-0.041748046875,-0.81396484375,-10.070799827575684,-5.432128429412842,0.6713866591453552
648635,-0.0181884765625,-0.060302734375,-0.8314208984375,-8.85009765625,-4.8828125,0.4882812201976776
648656,-0.01904296875,-0.0745849609375,-0.8583984375,-7.324218273162842,-3.662109136581421,0.30517578125
648688,-0.015380859375,-0.062255859375,-0.8082275390625,-2.746581792831421,-0.1220703050494194,-0.4272460639476776
648704,-0.01171875,-0.0648193359375,-0.7562255859375,-1.8310545682907104,0.4882812201976776,-0.4882812201976776
648720,-0.00634765625,-0.0606689453125,-0.6668701171875,-0.30517578125,0.8544921278953552,-0.6103515625
648736,-0.0072021484375,-0.0672607421875,-0.6270751953125,0.54931640625,0.8544921278953552,-0.6103515625
648761,-0.0137939453125,-0.062255859375,-0.629638671875,2.01416015625,0.9155272841453552,-0.7934569716453552
648777,-0.0198974609375,-0.0596923828125,-0.5946044921875,3.295898199081421,1.5258787870407104,-0.9765624403953552
648794,-0.0201416015625,-0.047607421875,-0.5675048828125,4.45556640625,1.8310545682907104,-1.15966796875
648815,-0.017578125,-0.0465087890625,-0.5159912109375,5.065917491912842,1.5258787870407104,-1.0986328125
648831,-0.0147705078125,-0.044921875,-0.5252685546875,5.0048828125,1.3427733182907104,-1.15966796875
648864,-0.0120849609375,-0.0382080078125,-0.61083984375,5.065917491912842,0.9765624403953552,-1.220703125
648886,-0.0140380859375,-0.0413818359375,-0.664306640625,5.187987804412842,0.8544921278953552,-1.03759765625
648902,-0.02294921875,-0.0528564453125,-0.7415771484375,5.493163585662842,0.6713866591453552,-1.220703125
648919,-0.0264892578125,-0.047607421875,-0.7947998046875,5.920409679412842,0.6103515625,-1.2817381620407104
648936,-0.02685546875,-0.042724609375,-0.8154296875,6.347655773162842,0.2441406100988388,-1.220703125
648952,-0.0281982421875,-0.033447265625,-0.857177734375,6.042479991912842,-0.30517578125,-1.0986328125
649018,-0.0294189453125,-0.0355224609375,-0.926513671875,5.554198741912842,-2.807616949081421,-0.9155272841453552
649060,-0.02587890625,-0.0185546875,-0.942138671875,4.150390625,-3.845214605331421,-0.8544921278953552
649077,-0.0223388671875,-0.01416015625,-0.9466552734375,3.051757574081421,-4.150390625,-0.9155272841453552
649114,-0.0142822265625,-0.0196533203125,-1.0185546875,0.6713866591453552,-3.967284917831421,-0.9765624403953552
649130,-0.016357421875,-0.0096435546875,-1.0306396484375,-0.2441406100988388,-2.990722417831421,-1.220703125
649146,-0.016357421875,-0.002197265625,-1.0245361328125,-0.8544921278953552,-2.685546636581421,-1.2817381620407104
649163,-0.0155029296875,0.0091552734375,-1.0225830078125,-2.13623046875,-2.0751953125,-1.2817381620407104
649180,-0.01318359375,0.004150390625,-1.031005859375,-3.540038824081421,-1.3427733182907104,-1.220703125
649201,-0.0137939453125,-0.0003662109375,-1.0377197265625,-4.08935546875,-0.8544921278953552,-1.220703125
649267,-0.0167236328125,-0.0006103515625,-1.0107421875,-7.934569835662842,1.15966796875,-1.03759765625
649301,-0.0172119140625,-0.0142822265625,-0.99365234375,-9.1552734375,1.4648436307907104,-0.9155272841453552
649318,-0.019775390625,-0.0225830078125,-1.0115966796875,-9.33837890625,1.7089842557907104,-0.9155272841453552
649334,-0.0211181640625,-0.025634765625,-0.998046875,-9.21630859375,2.197265625,-0.8544921278953552
649355,-0.022705078125,-0.038330078125,-0.9876708984375,-8.85009765625,1.9531248807907104,-0.9155272841453552
649371,-0.0257568359375,-0.0447998046875,-1.01513671875,-8.23974609375,2.25830078125,-0.9155272841453552
649387,-0.0262451171875,-0.0496826171875,-1.0179443359375,-7.995604991912842,2.624511480331421,-1.03759765625
649403,-0.0224609375,-0.044921875,-0.98193359375,-7.324218273162842,2.746581792831421,-0.9765624403953552
649420,-0.0208740234375,-0.0478515625,-0.9700927734375,-6.591796398162842,2.50244140625,-1.03759765625
649441,-0.020263671875,-0.0465087890625,-0.976806640625,-6.164550304412842,2.50244140625,-0.9765624403953552
649457,-0.01953125,-0.056884765625,-0.9853515625,-5.493163585662842,2.807616949081421,-0.9765624403953552
649474,-0.0186767578125,-0.0562744140625,-0.9693603515625,-4.7607421875,2.868652105331421,-0.9765624403953552
649491,-0.0208740234375,-0.0625,-0.9791259765625,-4.33349609375,2.807616949081421,-1.03759765625
649524,-0.0257568359375,-0.06787109375,-0.9849853515625,-2.25830078125,3.417968511581421,-1.15966796875
649540,-0.0262451171875,-0.0631103515625,-0.9676513671875,-1.220703125,3.295898199081421,-1.220703125
649556,-0.0277099609375,-0.06494140625,-0.9666748046875,-0.7324218153953552,3.234863042831421,-1.220703125
649585,-0.0306396484375,-0.0589599609375,-0.9656982421875,0.4882812201976776,2.990722417831421,-1.220703125
649606,-0.0355224609375,-0.065185546875,-0.968017578125,1.15966796875,2.868652105331421,-1.220703125
649622,-0.03759765625,-0.06494140625,-0.9605712890625,1.4648436307907104,2.746581792831421,-1.220703125
649639,-0.03857421875,-0.0657958984375,-0.9586181640625,2.01416015625,2.44140625,-1.3427733182907104
649656,-0.0404052734375,-0.06103515625,-0.953857421875,2.563476324081421,2.01416015625,-1.3427733182907104
649672,-0.0411376953125,-0.0599365234375,-0.949951171875,2.807616949081421,1.8310545682907104,-1.4038084745407104
649705,-0.0457763671875,-0.0609130859375,-0.946533203125,3.234863042831421,1.220703125,-1.4038084745407104
649727,-0.0462646484375,-0.0567626953125,-0.9378662109375,3.662109136581421,0.6103515625,-1.4038084745407104
649743,-0.0504150390625,-0.0596923828125,-0.956787109375,3.784179449081421,0.3662109076976776,-1.3427733182907104
649760,-0.0517578125,-0.0570068359375,-0.9593505859375,4.0283203125,0.1220703050494194,-1.220703125
649777,-0.0516357421875,-0.0545654296875,-0.9508056640625,4.08935546875,-0.1831054538488388,-1.220703125
649793,-0.0489501953125,-0.053955078125,-0.9483642578125,4.08935546875,-0.4882812201976776,-1.15966796875
649825,-0.04931640625,-0.061767578125,-0.9776611328125,4.0283203125,-1.15966796875,-1.03759765625
649847,-0.0452880859375,-0.0595703125,-0.970947265625,3.967284917831421,-1.15966796875,-1.0986328125
649867,-0.0440673828125,-0.058837890625,-0.978271484375,3.906249761581421,-1.3427733182907104,-0.9765624403953552
649882,-0.0416259765625,-0.057861328125,-0.9912109375,3.784179449081421,-1.3427733182907104,-0.9155272841453552
649899,-0.0390625,-0.0584716796875,-0.9923095703125,3.479003667831421,-1.0986328125,-0.9155272841453552
649915,-0.034423828125,-0.0557861328125,-0.98876953125,3.234863042831421,-0.9765624403953552,-0.8544921278953552
649947,-0.0333251953125,-0.0574951171875,-1.0020751953125,1.8310545682907104,-0.3662109076976776,-0.6713866591453552
649964,-0.0325927734375,-0.05078125,-0.98828125,1.0986328125,-0.0610351525247097,-0.6103515625
649980,-0.0361328125,-0.0509033203125,-0.9892578125,0.8544921278953552,0.0,-0.4882812201976776
649996,-0.036865234375,-0.052734375,-0.9893798828125,0.2441406100988388,0.2441406100988388,-0.3662109076976776
650021,-0.038330078125,-0.054443359375,-0.9888916015625,-0.1831054538488388,0.54931640625,-0.2441406100988388
650037,-0.0400390625,-0.0513916015625,-0.989013671875,-0.4272460639476776,0.7934569716453552,-0.1831054538488388
650054,-0.0413818359375,-0.051513671875,-0.97998046875,-0.6713866591453552,1.03759765625,-0.1831054538488388
650072,-0.0413818359375,-0.0491943359375,-0.9698486328125,-1.220703125,1.220703125,0.0
650088,-0.0423583984375,-0.0477294921875,-0.9561767578125,-1.3427733182907104,1.0986328125,0.1831054538488388
650122,-0.0462646484375,-0.052978515625,-0.9761962890625,-1.220703125,1.0986328125,0.54931640625
650139,-0.0479736328125,-0.0518798828125,-0.97998046875,-0.9765624403953552,1.15966796875,0.54931640625
650160,-0.048828125,-0.052734375,-0.98046875,-0.4272460639476776,1.15966796875,0.6713866591453552
650176,-0.0491943359375,-0.056640625,-0.98193359375,0.2441406100988388,1.220703125,0.8544921278953552
650243,-0.046630859375,-0.055908203125,-0.9864501953125,2.563476324081421,1.5258787870407104,1.220703125
650260,-0.046630859375,-0.0567626953125,-0.9876708984375,2.807616949081421,1.5869139432907104,1.3427733182907104
650277,-0.0479736328125,-0.0545654296875,-0.987548828125,3.051757574081421,1.8310545682907104,1.4648436307907104
650309,-0.0484619140625,-0.046142578125,-0.9554443359375,3.051757574081421,1.8310545682907104,1.7700194120407104
650325,-0.0487060546875,-0.0391845703125,-0.9449462890625,2.624511480331421,1.7700194120407104,1.9531248807907104
650341,-0.05322265625,-0.0390625,-0.94580078125,2.38037109375,1.7089842557907104,2.0751953125
650357,-0.05615234375,-0.0372314453125,-0.9404296875,1.8310545682907104,1.7089842557907104,2.197265625
650382,-0.060791015625,-0.0389404296875,-0.94189453125,1.220703125,1.5258787870407104,2.38037109375
650398,-0.0623779296875,-0.036376953125,-0.9354248046875,0.54931640625,1.6479490995407104,2.44140625
650415,-0.066162109375,-0.036376953125,-0.93310546875,0.30517578125,1.4648436307907104,2.563476324081421
650432,-0.06689453125,-0.034912109375,-0.9354248046875,-0.1831054538488388,1.2817381620407104,2.563476324081421
650448,-0.066650390625,-0.029541015625,-0.930419921875,-0.6713866591453552,1.03759765625,2.685546636581421
650482,-0.06689453125,-0.0279541015625,-0.9039306640625,-1.4648436307907104,0.7934569716453552,2.746581792831421
650499,-0.06396484375,-0.0267333984375,-0.8797607421875,-2.44140625,0.3662109076976776,2.807616949081421
650520,-0.058837890625,-0.025390625,-0.85693359375,-3.662109136581421,-0.4882812201976776,2.990722417831421
650536,-0.057861328125,-0.0250244140625,-0.867431640625,-4.150390625,-0.9155272841453552,2.990722417831421
650553,-0.0528564453125,-0.0272216796875,-0.864990234375,-5.065917491912842,-1.3427733182907104,2.990722417831421
650570,-0.05029296875,-0.0291748046875,-0.8663330078125,-5.798339366912842,-1.7700194120407104,3.051757574081421
650603,-0.0372314453125,-0.033447265625,-0.8765869140625,-6.652831554412842,-2.44140625,3.051757574081421
650620,-0.035400390625,-0.0343017578125,-0.885009765625,-6.774901866912842,-2.563476324081421,3.051757574081421
650636,-0.03515625,-0.0401611328125,-0.9212646484375,-6.774901866912842,-2.44140625,3.112792730331421
650668,-0.0382080078125,-0.050537109375,-0.94091796875,-6.164550304412842,-1.4038084745407104,2.990722417831421
650684,-0.03955078125,-0.0521240234375,-0.906005859375,-5.920409679412842,-0.7324218153953552,2.746581792831421
650700,-0.0389404296875,-0.0496826171875,-0.8773193359375,-5.859374523162842,-0.6713866591453552,2.624511480331421
650716,-0.03564453125,-0.0452880859375,-0.8377685546875,-6.103515148162842,-1.03759765625,2.624511480331421
650741,-0.0380859375,-0.0491943359375,-0.878662109375,-6.347655773162842,-1.0986328125,2.563476324081421
650757,-0.04052734375,-0.055419921875,-0.9234619140625,-6.408690929412842,-0.8544921278953552,2.563476324081421
650774,-0.044921875,-0.0662841796875,-0.9447021484375,-6.286620616912842,-0.1220703050494194,2.38037109375
650795,-0.0418701171875,-0.063232421875,-0.89990234375,-6.103515148162842,1.15966796875,2.13623046875
650811,-0.0369873046875,-0.052490234375,-0.7991943359375,-6.652831554412842,0.6713866591453552,2.13623046875
650843,-0.0506591796875,-0.0458984375,-0.8809814453125,-7.507323741912842,-0.4272460639476776,2.3193359375
650911,-0.059814453125,-0.099853515625,-0.91259765625,-1.5258787870407104,1.9531248807907104,2.01416015625
650927,-0.0531005859375,-0.0955810546875,-0.858154296875,-0.7934569716453552,1.2817381620407104,2.01416015625
650944,-0.0543212890625,-0.09033203125,-0.87109375,-0.1831054538488388,0.6103515625,1.9531248807907104
650965,-0.0560302734375,-0.0859375,-0.8916015625,0.2441406100988388,0.7934569716453552,1.9531248807907104
650981,-0.05419921875,-0.089111328125,-0.8814697265625,0.3662109076976776,1.0986328125,1.9531248807907104
650998,-0.054931640625,-0.101318359375,-0.859619140625,0.0610351525247097,1.4038084745407104,1.9531248807907104
651040,-0.0599365234375,-0.1014404296875,-0.8372802734375,-1.2817381620407104,0.3662109076976776,2.13623046875
651056,-0.0592041015625,-0.109375,-0.898681640625,-1.4038084745407104,0.3662109076976776,2.13623046875
651073,-0.0562744140625,-0.1141357421875,-0.910888671875,-1.8310545682907104,0.9155272841453552,2.01416015625
651094,-0.0496826171875,-0.1177978515625,-0.8978271484375,-2.624511480331421,0.7934569716453552,2.13623046875
651110,-0.0546875,-0.13037109375,-0.8955078125,-2.624511480331421,0.3662109076976776,2.01416015625
651127,-0.0601806640625,-0.121337890625,-0.890380859375,-2.38037109375,-0.54931640625,2.0751953125
651144,-0.0623779296875,-0.1201171875,-0.917724609375,-2.3193359375,-0.9155272841453552,2.0751953125
651160,-0.0634765625,-0.1287841796875,-0.9534912109375,-2.13623046875,-1.5258787870407104,2.3193359375
651176,-0.060546875,-0.1505126953125,-0.9932861328125,-1.6479490995407104,-1.6479490995407104,2.197265625
651208,-0.0501708984375,-0.1669921875,-1.00341796875,-0.1220703050494194,-1.6479490995407104,1.7700194120407104
651224,-0.0491943359375,-0.1700439453125,-0.9951171875,0.4882812201976776,-1.7089842557907104,1.5869139432907104
651240,-0.048583984375,-0.1680908203125,-0.9693603515625,1.4648436307907104,-1.7089842557907104,1.15966796875
651256,-0.0465087890625,-0.1473388671875,-0.94384765625,2.44140625,-2.807616949081421,0.9765624403953552
651281,-0.050048828125,-0.1446533203125,-1.011962890625,3.356933355331421,-3.173827886581421,0.9155272841453552
651297,-0.0472412109375,-0.1444091796875,-1.04736328125,3.845214605331421,-2.929687261581421,0.8544921278953552
651314,-0.0438232421875,-0.14990234375,-1.04833984375,4.94384765625,-2.13623046875,0.6713866591453552
651335,-0.0318603515625,-0.154541015625,-1.0035400390625,6.164550304412842,-2.0751953125,0.3662109076976776
651351,-0.031005859375,-0.1611328125,-1.0078125,7.202147960662842,-2.197265625,0.1831054538488388
651384,-0.0465087890625,-0.141845703125,-1.0167236328125,8.4228515625,-1.5258787870407104,-0.4272460639476776
651406,-0.0494384765625,-0.1365966796875,-1.00341796875,8.60595703125,-1.220703125,-0.6103515625
651422,-0.051025390625,-0.12255859375,-0.985595703125,8.30078125,-1.2817381620407104,-0.6713866591453552
651439,-0.0472412109375,-0.12060546875,-0.998046875,7.873534679412842,-1.4038084745407104,-0.6103515625
651456,-0.0457763671875,-0.119873046875,-1.01025390625,6.958007335662842,-1.5258787870407104,-0.7324218153953552
651473,-0.0489501953125,-0.1280517578125,-1.0626220703125,6.469726085662842,-1.4648436307907104,-0.7934569716453552
651504,-0.05029296875,-0.1395263671875,-1.0626220703125,5.737304210662842,-0.6713866591453552,-1.2817381620407104
651526,-0.048828125,-0.13623046875,-1.0450439453125,4.69970703125,-0.7324218153953552,-1.5258787870407104
651542,-0.0499267578125,-0.1214599609375,-1.0419921875,3.173827886581421,-1.0986328125,-1.6479490995407104
651559,-0.051025390625,-0.1156005859375,-1.0501708984375,2.38037109375,-1.15966796875,-1.7089842557907104
651625,-0.03857421875,-0.1226806640625,-1.098388671875,-0.8544921278953552,-1.03759765625,-2.25830078125
651642,-0.038818359375,-0.1038818359375,-1.084716796875,-1.7089842557907104,-1.03759765625,-2.25830078125
651658,-0.04150390625,-0.1025390625,-1.0828857421875,-2.50244140625,-0.54931640625,-2.25830078125
651690,-0.039794921875,-0.0919189453125,-1.031494140625,-3.967284917831421,-0.7934569716453552,-2.25830078125
651706,-0.0445556640625,-0.0736083984375,-1.0550537109375,-4.33349609375,-0.9155272841453552,-2.13623046875
651722,-0.0487060546875,-0.0750732421875,-1.0699462890625,-4.94384765625,-0.6713866591453552,-1.7700194120407104
651738,-0.0513916015625,-0.0712890625,-1.06298828125,-5.126952648162842,-0.3662109076976776,-1.4648436307907104
651758,-0.052490234375,-0.0948486328125,-1.06005859375,-5.187987804412842,-0.1831054538488388,-1.3427733182907104
651774,-0.0511474609375,-0.0919189453125,-1.0540771484375,-5.187987804412842,-0.1831054538488388,-1.2817381620407104
651790,-0.0506591796875,-0.0955810546875,-1.0548095703125,-5.065917491912842,-0.1831054538488388,-1.220703125
651810,-0.048828125,-0.07470703125,-1.04345703125,-5.065917491912842,-0.1831054538488388,-1.2817381620407104
651826,-0.050048828125,-0.06982421875,-1.0439453125,-5.065917491912842,-0.30517578125,-0.9765624403953552
651843,-0.0494384765625,-0.074951171875,-1.029296875,-5.249022960662842,-0.0610351525247097,-0.7934569716453552
651860,-0.0458984375,-0.0867919921875,-0.9832763671875,-5.371093273162842,-0.2441406100988388,-0.54931640625
651876,-0.0494384765625,-0.09521484375,-1.0242919921875,-5.493163585662842,-1.2817381620407104,-0.3662109076976776
651893,-0.050048828125,-0.09912109375,-1.0572509765625,-5.0048828125,-1.5258787870407104,-0.2441406100988388
651925,-0.044189453125,-0.1124267578125,-1.071533203125,-3.845214605331421,-0.6103515625,-0.30517578125
651947,-0.0360107421875,-0.10595703125,-0.9986572265625,-3.540038824081421,-0.6103515625,-0.3662109076976776
651967,-0.0311279296875,-0.1014404296875,-0.9583740234375,-3.723144292831421,-1.5258787870407104,-0.1831054538488388
651983,-0.03173828125,-0.101806640625,-1.0194091796875,-3.845214605331421,-2.01416015625,-0.1220703050494194
652049,-0.0496826171875,-0.12158203125,-1.063232421875,0.30517578125,-0.6103515625,-0.4272460639476776
652065,-0.0552978515625,-0.119873046875,-1.099365234375,1.03759765625,-0.1220703050494194,-0.3662109076976776
652081,-0.0555419921875,-0.123046875,-1.0889892578125,2.44140625,0.9765624403953552,-0.3662109076976776
652098,-0.052001953125,-0.1297607421875,-1.0400390625,3.051757574081421,1.2817381620407104,-0.4272460639476776
652118,-0.0489501953125,-0.1231689453125,-0.99755859375,4.0283203125,1.5258787870407104,-0.6713866591453552
652134,-0.0511474609375,-0.121826171875,-0.991943359375,4.33349609375,1.3427733182907104,-0.6103515625
652150,-0.0609130859375,-0.119384765625,-1.01123046875,5.0048828125,1.4648436307907104,-0.6713866591453552
652165,-0.0635986328125,-0.1190185546875,-1.0155029296875,5.493163585662842,1.5258787870407104,-0.6103515625
652186,-0.0703125,-0.134521484375,-1.018310546875,6.347655773162842,1.7700194120407104,-0.7934569716453552
652202,-0.0706787109375,-0.119873046875,-0.9708251953125,6.774901866912842,1.7700194120407104,-0.8544921278953552
652219,-0.0740966796875,-0.11279296875,-0.9637451171875,7.507323741912842,1.2817381620407104,-0.8544921278953552
652236,-0.0728759765625,-0.1011962890625,-0.9559326171875,8.056640625,0.8544921278953552,-0.8544921278953552
652253,-0.070068359375,-0.0982666015625,-0.969970703125,8.60595703125,0.30517578125,-0.7934569716453552
652286,-0.0360107421875,-0.0916748046875,-0.92333984375,7.812499523162842,-0.7324218153953552,-0.3662109076976776
652302,-0.0103759765625,-0.078125,-0.807861328125,1.5869139432907104,-4.7607421875,0.9155272841453552
652351,-0.0465087890625,-0.10791015625,-1.0206298828125,-1.2817381620407104,-5.371093273162842,1.220703125
652372,-0.0457763671875,-0.1591796875,-1.305419921875,-0.9155272841453552,-4.0283203125,0.9155272841453552
652388,-0.002197265625,-0.171142578125,-1.53955078125,-4.150390625,2.990722417831421,0.30517578125
652405,-0.013916015625,-0.05859375,-0.670654296875,-4.2724609375,2.197265625,0.4272460639476776
652422,-0.0509033203125,-0.0706787109375,-0.8651123046875,-2.990722417831421,0.54931640625,0.6103515625
652438,-0.0394287109375,-0.1011962890625,-0.9664306640625,-0.7324218153953552,1.3427733182907104,0.4272460639476776
652455,-0.0174560546875,-0.1234130859375,-0.984619140625,-1.8920897245407104,1.4648436307907104,0.6103515625
652476,-0.0006103515625,-0.135009765625,-1.0654296875,-4.5166015625,-0.4272460639476776,0.7934569716453552
652492,-0.024658203125,-0.1220703125,-0.9923095703125,-2.50244140625,0.4882812201976776,0.0610351525247097
652508,-0.057373046875,-0.10302734375,-0.8980712890625,-2.197265625,0.9155272841453552,-0.1220703050494194
652524,-0.076171875,-0.104248046875,-0.9439697265625,-2.807616949081421,0.54931640625,0.0610351525247097
652546,-0.0687255859375,-0.0953369140625,-1.028076171875,-3.173827886581421,0.30517578125,0.2441406100988388
652562,-0.0166015625,-0.104248046875,-0.946044921875,-3.417968511581421,0.4272460639476776,0.4272460639476776
652579,-0.0084228515625,-0.1097412109375,-0.949462890625,-3.479003667831421,0.3662109076976776,0.4272460639476776
652596,-0.0386962890625,-0.1300048828125,-1.0001220703125,-3.234863042831421,0.4882812201976776,0.3662109076976776
652612,-0.062255859375,-0.1253662109375,-0.9571533203125,-2.868652105331421,0.6713866591453552,0.30517578125
652678,-0.031982421875,-0.119873046875,-0.96142578125,-0.3662109076976776,0.30517578125,0.1831054538488388
652720,-0.0445556640625,-0.1279296875,-0.968017578125,0.8544921278953552,-0.0610351525247097,0.2441406100988388
652737,-0.038818359375,-0.1307373046875,-0.9708251953125,1.7089842557907104,-0.0610351525247097,0.2441406100988388
652754,-0.0379638671875,-0.130859375,-0.9747314453125,2.197265625,-0.0610351525247097,0.1831054538488388
652774,-0.0455322265625,-0.1280517578125,-0.9693603515625,3.173827886581421,0.0,0.0610351525247097
652791,-0.0494384765625,-0.1195068359375,-0.9697265625,4.39453125,-0.0610351525247097,-0.0610351525247097
652824,-0.0406494140625,-0.11279296875,-0.980224609375,4.82177734375,-0.2441406100988388,0.0
652841,-0.04248046875,-0.1151123046875,-0.974853515625,4.94384765625,-0.30517578125,0.1220703050494194
652862,-0.04541015625,-0.1134033203125,-0.9708251953125,4.94384765625,-0.3662109076976776,0.1220703050494194
652911,-0.04345703125,-0.104736328125,-0.9764404296875,5.065917491912842,-0.30517578125,0.0
652956,-0.0455322265625,-0.1029052734375,-0.9744873046875,4.69970703125,-0.30517578125,0.1220703050494194
652973,-0.0452880859375,-0.1026611328125,-0.9771728515625,4.57763671875,-0.30517578125,0.1220703050494194
653006,-0.0433349609375,-0.100830078125,-0.9761962890625,4.5166015625,-0.1831054538488388,0.0
653023,-0.0428466796875,-0.09716796875,-0.977294921875,4.150390625,-0.30517578125,0.0
653039,-0.0443115234375,-0.09375,-0.9755859375,3.906249761581421,-0.3662109076976776,0.0610351525247097
653055,-0.0455322265625,-0.0877685546875,-0.9747314453125,3.173827886581421,-0.2441406100988388,0.1220703050494194
653076,-0.043212890625,-0.087890625,-0.980224609375,2.3193359375,-0.1831054538488388,0.1831054538488388
653092,-0.0416259765625,-0.09033203125,-0.9764404296875,1.4648436307907104,-0.1831054538488388,0.2441406100988388
653108,-0.0426025390625,-0.0906982421875,-0.974365234375,1.03759765625,-0.1831054538488388,0.2441406100988388
653124,-0.04541015625,-0.092041015625,-0.980224609375,0.2441406100988388,-0.2441406100988388,0.2441406100988388
653140,-0.0462646484375,-0.0909423828125,-0.9793701171875,-0.0610351525247097,-0.2441406100988388,0.2441406100988388
653156,-0.0457763671875,-0.0904541015625,-0.975341796875,-0.7324218153953552,-0.2441406100988388,0.2441406100988388
653188,-0.040771484375,-0.09423828125,-0.976318359375,-1.5869139432907104,-0.1220703050494194,0.30517578125
653204,-0.0447998046875,-0.0977783203125,-0.975830078125,-1.9531248807907104,-0.1831054538488388,0.4882812201976776
653220,-0.046875,-0.0980224609375,-0.977783203125,-2.0751953125,-0.1831054538488388,0.4882812201976776
653236,-0.0445556640625,-0.10009765625,-0.973876953125,-2.13623046875,-0.1831054538488388,0.4272460639476776
653256,-0.04345703125,-0.1031494140625,-0.9776611328125,-2.01416015625,-0.1220703050494194,0.3662109076976776
653278,-0.0428466796875,-0.106201171875,-0.97509765625,-1.7700194120407104,-0.1220703050494194,0.30517578125
653294,-0.043701171875,-0.1075439453125,-0.9736328125,-1.5258787870407104,-0.1220703050494194,0.30517578125
653311,-0.0447998046875,-0.1085205078125,-0.975341796875,-1.15966796875,-0.2441406100988388,0.3662109076976776
653328,-0.0455322265625,-0.1058349609375,-0.974853515625,-0.9765624403953552,-0.1831054538488388,0.2441406100988388
653361,-0.0443115234375,-0.1011962890625,-0.978271484375,-1.0986328125,-0.0610351525247097,0.30517578125
653426,-0.0445556640625,-0.1094970703125,-0.9735107421875,-1.220703125,-0.1831054538488388,0.2441406100988388
653442,-0.044189453125,-0.1075439453125,-0.975830078125,-1.220703125,-0.1831054538488388,0.1831054538488388
653458,-0.0435791015625,-0.10693359375,-0.975830078125,-1.220703125,-0.1831054538488388,0.30517578125
653490,-0.0455322265625,-0.1070556640625,-0.9747314453125,-1.4038084745407104,-0.1831054538488388,0.3662109076976776
653522,-0.04345703125,-0.11376953125,-0.9742431640625,-1.2817381620407104,-0.1220703050494194,0.4272460639476776
653563,-0.0450439453125,-0.11376953125,-0.973388671875,-0.7934569716453552,-0.1220703050494194,0.2441406100988388
653580,-0.04541015625,-0.11181640625,-0.97216796875,-0.4882812201976776,-0.1220703050494194,0.2441406100988388
653597,-0.043701171875,-0.1099853515625,-0.97412109375,-0.4272460639476776,-0.1220703050494194,0.2441406100988388
653613,-0.0438232421875,-0.111328125,-0.975341796875,-0.4272460639476776,-0.1831054538488388,0.30517578125
653630,-0.0455322265625,-0.1121826171875,-0.9744873046875,-0.30517578125,-0.2441406100988388,0.30517578125
653663,-0.0438232421875,-0.1138916015625,-0.9737548828125,-0.30517578125,-0.2441406100988388,0.2441406100988388
653680,-0.04296875,-0.112548828125,-0.9739990234375,-0.3662109076976776,-0.30517578125,0.2441406100988388
653701,-0.0440673828125,-0.112548828125,-0.9737548828125,-0.30517578125,-0.3662109076976776,0.30517578125
653717,-0.044921875,-0.1134033203125,-0.9775390625,-0.2441406100988388,-0.30517578125,0.3662109076976776
653784,-0.044921875,-0.11572265625,-0.9737548828125,0.7324218153953552,-0.0610351525247097,0.1831054538488388
653800,-0.045654296875,-0.114501953125,-0.9730224609375,0.7324218153953552,-0.1220703050494194,0.1831054538488388
653817,-0.0460205078125,-0.114501953125,-0.971435546875,0.9765624403953552,-0.1220703050494194,0.2441406100988388
653850,-0.043212890625,-0.1162109375,-0.97509765625,1.0986328125,-0.2441406100988388,0.1831054538488388
653871,-0.0450439453125,-0.1129150390625,-0.97265625,1.0986328125,-0.2441406100988388,0.2441406100988388
653887,-0.04541015625,-0.11181640625,-0.9775390625,1.03759765625,-0.2441406100988388,0.1831054538488388
653904,-0.0440673828125,-0.1112060546875,-0.9766845703125,0.9155272841453552,-0.1831054538488388,0.2441406100988388
653970,-0.04443359375,-0.11376953125,-0.970947265625,1.03759765625,-0.30517578125,0.2441406100988388
653987,-0.0426025390625,-0.110107421875,-0.967041015625,0.9155272841453552,-0.6713866591453552,0.2441406100988388
654003,-0.04248046875,-0.109619140625,-0.96240234375,0.8544921278953552,-0.8544921278953552,0.30517578125
654019,-0.0411376953125,-0.109130859375,-0.9569091796875,0.7324218153953552,-1.8920897245407104,0.4882812201976776
654041,-0.0484619140625,-0.1087646484375,-1.0078125,0.8544921278953552,-2.746581792831421,1.0986328125
654057,-0.0487060546875,-0.1402587890625,-0.987548828125,1.220703125,-2.929687261581421,1.2817381620407104
654074,-0.0465087890625,-0.147705078125,-1.00439453125,2.868652105331421,-3.784179449081421,0.9155272841453552
654095,-0.062744140625,-0.169189453125,-1.126708984375,5.432128429412842,-3.784179449081421,0.7324218153953552
654111,-0.070068359375,-0.180419921875,-1.283935546875,7.873534679412842,-1.8310545682907104,0.3662109076976776
654128,-0.0615234375,-0.1710205078125,-1.3216552734375,10.681151390075684,-2.3193359375,0.4272460639476776
654149,-0.0653076171875,-0.1708984375,-1.4046630859375,14.038084983825684,-2.807616949081421,0.54931640625
654169,-0.074462890625,-0.169189453125,-1.4381103515625,17.333984375,-1.5258787870407104,0.3662109076976776
654185,-0.0684814453125,-0.1380615234375,-1.3555908203125,19.8974609375,-1.5869139432907104,0.4272460639476776
654201,-0.0634765625,-0.128662109375,-1.3367919921875,20.812986373901367,-2.13623046875,0.6713866591453552
654218,-0.057373046875,-0.12353515625,-1.375244140625,22.827146530151367,-2.685546636581421,0.7934569716453552
654243,-0.0526123046875,-0.1357421875,-1.4327392578125,24.902341842651367,-2.38037109375,0.6713866591453552
654259,-0.0391845703125,-0.12890625,-1.4366455078125,25.634763717651367,-2.01416015625,0.54931640625
654276,-0.0325927734375,-0.10498046875,-1.4117431640625,27.099607467651367,-1.7089842557907104,0.3662109076976776
654293,-0.0325927734375,-0.0927734375,-1.4278564453125,29.052732467651367,-1.6479490995407104,0.2441406100988388
654359,-0.0185546875,-0.03662109375,-1.3731689453125,28.869626998901367,2.50244140625,0.6103515625
654400,-0.042236328125,-0.0089111328125,-1.310302734375,27.343748092651367,3.845214605331421,0.7934569716453552
654417,-0.05126953125,-0.0064697265625,-1.2479248046875,25.634763717651367,4.69970703125,1.03759765625
654454,-0.048828125,-0.0074462890625,-1.13916015625,20.324705123901367,5.187987804412842,1.2817381620407104
654470,-0.0384521484375,-0.001220703125,-1.0330810546875,17.02880859375,4.39453125,1.2817381620407104
654486,-0.039306640625,0.005859375,-0.9754638671875,13.732909202575684,2.990722417831421,1.2817381620407104
654503,-0.043212890625,0.00927734375,-0.965576171875,12.084959983825684,2.38037109375,1.2817381620407104
654520,-0.04931640625,0.0145263671875,-0.9613037109375,8.72802734375,1.8920897245407104,1.4648436307907104
654541,-0.0460205078125,0.0115966796875,-0.9324951171875,5.249022960662842,1.7700194120407104,1.4038084745407104
654557,-0.0364990234375,0.021728515625,-0.88671875,3.662109136581421,1.7700194120407104,1.3427733182907104
654574,-0.0318603515625,0.0244140625,-0.849853515625,0.7324218153953552,1.9531248807907104,1.3427733182907104
654591,-0.0294189453125,0.0299072265625,-0.779541015625,-0.6713866591453552,1.8920897245407104,1.4038084745407104
654624,-0.0322265625,0.0263671875,-0.70751953125,-5.676269054412842,1.220703125,1.5258787870407104
654641,-0.03369140625,0.0203857421875,-0.707275390625,-7.141112804412842,1.4038084745407104,1.5258787870407104
654657,-0.0325927734375,0.0142822265625,-0.6727294921875,-8.72802734375,2.13623046875,1.3427733182907104
654689,-0.026123046875,0.012939453125,-0.57177734375,-10.803221702575684,2.563476324081421,1.4038084745407104
654705,-0.0250244140625,0.012451171875,-0.5458984375,-11.230467796325684,2.624511480331421,1.4038084745407104
654721,-0.0252685546875,0.0087890625,-0.505615234375,-12.084959983825684,3.173827886581421,1.2817381620407104
654737,-0.0208740234375,0.015869140625,-0.42626953125,-13.549803733825684,2.868652105331421,1.2817381620407104
654762,-0.0244140625,0.0218505859375,-0.39990234375,-14.892577171325684,2.563476324081421,1.5258787870407104
654778,-0.0318603515625,0.010009765625,-0.4320068359375,-15.319823265075684,2.25830078125,1.6479490995407104
654795,-0.037841796875,0.0087890625,-0.46337890625,-15.869139671325684,2.197265625,1.7089842557907104
654812,-0.042724609375,0.0103759765625,-0.4852294921875,-15.991209983825684,2.25830078125,1.6479490995407104
654828,-0.0421142578125,0.022216796875,-0.5018310546875,-16.357421875,2.01416015625,1.5258787870407104
654861,-0.046630859375,0.01171875,-0.5955810546875,-16.66259765625,0.30517578125,1.9531248807907104
654878,-0.0516357421875,-0.0084228515625,-0.68505859375,-15.991209983825684,-0.4272460639476776,2.01416015625
654894,-0.0528564453125,-0.018310546875,-0.7384033203125,-15.258788108825684,-0.7324218153953552,1.8920897245407104
654926,-0.04443359375,-0.017822265625,-0.869384765625,-12.268065452575684,-0.6713866591453552,1.2817381620407104
654942,-0.035888671875,-0.010986328125,-0.87841796875,-10.925292015075684,-0.9155272841453552,1.4038084745407104
654958,-0.0391845703125,-0.0164794921875,-0.91162109375,-9.765625,-1.4038084745407104,1.4038084745407104
654990,-0.0447998046875,-0.0274658203125,-0.9638671875,-7.263183116912842,-1.220703125,1.0986328125
655006,-0.045166015625,-0.0281982421875,-0.980224609375,-6.713866710662842,-1.0986328125,0.9765624403953552
655022,-0.044921875,-0.0228271484375,-0.996826171875,-5.798339366912842,-0.3662109076976776,0.9765624403953552
655038,-0.0467529296875,-0.0272216796875,-0.9661865234375,-4.69970703125,-0.1220703050494194,0.6713866591453552
655055,-0.052734375,-0.018310546875,-0.9583740234375,-4.21142578125,-0.0610351525247097,0.6103515625
655092,-0.070556640625,-0.01318359375,-0.97802734375,-2.685546636581421,-0.54931640625,0.8544921278953552
655112,-0.0657958984375,-0.0318603515625,-0.9627685546875,-1.3427733182907104,0.0,0.7934569716453552
655128,-0.06298828125,-0.02734375,-0.9498291015625,0.0,-0.0610351525247097,0.6103515625
655145,-0.0660400390625,-0.026123046875,-0.9677734375,1.5258787870407104,-0.54931640625,0.4882812201976776
655162,-0.0726318359375,-0.025390625,-0.99755859375,2.197265625,-0.54931640625,0.4882812201976776
655178,-0.0750732421875,-0.0302734375,-0.99169921875,3.540038824081421,-0.4882812201976776,0.4882812201976776
655195,-0.075927734375,-0.036376953125,-0.9940185546875,4.94384765625,-0.7934569716453552,0.3662109076976776
655228,-0.070556640625,-0.03369140625,-0.981689453125,6.835937023162842,-1.0986328125,0.1220703050494194
655244,-0.0709228515625,-0.03662109375,-0.9827880859375,7.934569835662842,-1.4038084745407104,0.0
655260,-0.0728759765625,-0.04296875,-0.9913330078125,9.033203125,-1.6479490995407104,-0.1831054538488388
655276,-0.0732421875,-0.0460205078125,-0.99462890625,9.46044921875,-1.6479490995407104,-0.3662109076976776
655296,-0.0689697265625,-0.039306640625,-0.9832763671875,9.8876953125,-1.5869139432907104,-0.6103515625
655318,-0.0640869140625,-0.040283203125,-0.9969482421875,10.009765625,-1.5258787870407104,-0.7324218153953552
655334,-0.0606689453125,-0.036865234375,-0.9925537109375,9.94873046875,-1.03759765625,-0.9155272841453552
655351,-0.0594482421875,-0.0372314453125,-0.9940185546875,9.94873046875,-0.7934569716453552,-1.0986328125
655368,-0.05712890625,-0.0244140625,-0.9786376953125,9.521484375,-0.0610351525247097,-1.4038084745407104
655401,-0.048583984375,-0.0078125,-0.9375,7.995604991912842,0.0610351525247097,-1.15966796875
655418,-0.048583984375,-0.0140380859375,-0.9512939453125,7.751464366912842,0.2441406100988388,-1.220703125
655434,-0.0440673828125,-0.01513671875,-0.9583740234375,7.202147960662842,0.54931640625,-1.4038084745407104
655466,-0.0457763671875,-0.0137939453125,-1.0135498046875,6.958007335662842,1.15966796875,-1.4648436307907104
655482,-0.0474853515625,-0.0142822265625,-1.009521484375,6.896972179412842,1.8310545682907104,-1.5258787870407104
655502,-0.0465087890625,-0.012939453125,-0.994384765625,6.469726085662842,1.7700194120407104,-1.4648436307907104
655518,-0.048828125,-0.01318359375,-1.0068359375,6.286620616912842,1.7700194120407104,-1.4648436307907104
655538,-0.052978515625,-0.01318359375,-1.018310546875,5.859374523162842,2.3193359375,-1.4648436307907104
655554,-0.05419921875,-0.0084228515625,-0.9810791015625,5.065917491912842,2.38037109375,-1.4038084745407104
655570,-0.0577392578125,-0.0106201171875,-0.9808349609375,4.57763671875,1.8920897245407104,-1.4038084745407104
655591,-0.062255859375,-0.0145263671875,-1.001220703125,4.33349609375,1.8920897245407104,-1.4038084745407104
655607,-0.064453125,-0.0125732421875,-1.0037841796875,3.540038824081421,2.3193359375,-1.4648436307907104
655624,-0.06201171875,-0.0125732421875,-0.96044921875,3.051757574081421,2.3193359375,-1.4038084745407104
655641,-0.0640869140625,-0.0078125,-0.9349365234375,2.197265625,1.8310545682907104,-1.4038084745407104
655658,-0.06591796875,-0.0072021484375,-0.9232177734375,1.0986328125,1.3427733182907104,-1.4038084745407104
655674,-0.066162109375,-0.0028076171875,-0.9072265625,-0.2441406100988388,0.7934569716453552,-1.2817381620407104
655711,-0.061279296875,-0.0067138671875,-0.8941650390625,-1.7089842557907104,-0.3662109076976776,-1.2817381620407104
655727,-0.0621337890625,-0.017578125,-0.917724609375,-2.44140625,-0.9765624403953552,-1.220703125
655744,-0.0601806640625,-0.015380859375,-0.9346923828125,-2.624511480331421,-1.03759765625,-1.2817381620407104
655761,-0.0596923828125,-0.0242919921875,-0.9512939453125,-2.685546636581421,-1.4038084745407104,-1.3427733182907104
655777,-0.058349609375,-0.0235595703125,-0.959716796875,-2.624511480331421,-1.7700194120407104,-1.4648436307907104
655794,-0.0543212890625,-0.022705078125,-0.971923828125,-2.50244140625,-1.7700194120407104,-1.4648436307907104
655826,-0.051025390625,-0.0186767578125,-0.97607421875,-2.3193359375,-1.7089842557907104,-1.5869139432907104
655848,-0.0499267578125,-0.012451171875,-0.979736328125,-2.197265625,-1.7700194120407104,-1.5869139432907104
655864,-0.0494384765625,-0.01416015625,-0.9859619140625,-2.01416015625,-1.6479490995407104,-1.5869139432907104
655881,-0.047607421875,-0.014892578125,-0.9906005859375,-1.6479490995407104,-1.4038084745407104,-1.5258787870407104
655898,-0.0465087890625,-0.0147705078125,-0.987548828125,-1.3427733182907104,-1.0986328125,-1.6479490995407104
655914,-0.0462646484375,-0.0111083984375,-0.9847412109375,-1.03759765625,-0.9765624403953552,-1.5869139432907104
655948,-0.048828125,-0.0079345703125,-0.978759765625,0.3662109076976776,-0.30517578125,-1.6479490995407104
655964,-0.0477294921875,-0.003662109375,-0.9483642578125,0.7934569716453552,-0.1831054538488388,-1.5869139432907104
655980,-0.0443115234375,0.0020751953125,-0.933349609375,0.9765624403953552,-0.2441406100988388,-1.5258787870407104
655996,-0.044921875,-0.001220703125,-0.9501953125,1.4038084745407104,-0.3662109076976776,-1.4648436307907104
656066,-0.0469970703125,0.0103759765625,-0.9239501953125,1.8920897245407104,0.6713866591453552,-1.5258787870407104
656142,-0.0552978515625,0.0198974609375,-0.8953857421875,1.5258787870407104,0.54931640625,-1.15966796875
656159,-0.0560302734375,0.023193359375,-0.8858642578125,1.3427733182907104,0.4272460639476776,-1.0986328125
656175,-0.0538330078125,0.02490234375,-0.8658447265625,1.15966796875,0.30517578125,-1.03759765625
656196,-0.0543212890625,0.0263671875,-0.883544921875,0.6713866591453552,-0.30517578125,-0.9155272841453552
656212,-0.0565185546875,0.017333984375,-0.9273681640625,0.3662109076976776,-0.3662109076976776,-0.6713866591453552
656228,-0.055419921875,0.0164794921875,-0.918701171875,0.4882812201976776,-0.0610351525247097,-0.54931640625
656245,-0.0516357421875,0.015869140625,-0.880615234375,0.3662109076976776,0.0610351525247097,-0.6713866591453552
656261,-0.048095703125,0.0225830078125,-0.862548828125,0.1831054538488388,-0.0610351525247097,-0.6103515625
656277,-0.048583984375,0.022705078125,-0.8662109375,-0.0610351525247097,-0.4272460639476776,-0.4272460639476776
656309,-0.058349609375,0.0281982421875,-0.85595703125,-0.9155272841453552,0.6103515625,-0.2441406100988388
656325,-0.05712890625,0.029052734375,-0.768310546875,-1.7089842557907104,0.1831054538488388,-0.0610351525247097
656341,-0.0572509765625,0.032470703125,-0.7628173828125,-2.13623046875,-0.54931640625,0.0
656357,-0.05908203125,0.0325927734375,-0.8084716796875,-2.990722417831421,-1.7700194120407104,0.2441406100988388
656377,-0.061767578125,0.0205078125,-0.9168701171875,-3.356933355331421,-1.4038084745407104,0.54931640625
656393,-0.0643310546875,0.009521484375,-0.9345703125,-3.417968511581421,-0.4882812201976776,0.6713866591453552
656409,-0.065673828125,0.0062255859375,-0.8968505859375,-3.356933355331421,-0.4272460639476776,0.6713866591453552
656425,-0.065185546875,0.0101318359375,-0.8153076171875,-3.356933355331421,-1.03759765625,0.7324218153953552
656447,-0.0626220703125,0.0159912109375,-0.7879638671875,-3.540038824081421,-1.6479490995407104,0.9155272841453552
656463,-0.0665283203125,0.0089111328125,-0.8370361328125,-4.33349609375,-2.929687261581421,1.2817381620407104
656480,-0.069091796875,0.002685546875,-0.8685302734375,-5.065917491912842,-3.234863042831421,1.5869139432907104
656497,-0.072265625,-0.0130615234375,-0.896240234375,-5.065917491912842,-3.051757574081421,1.7089842557907104
656513,-0.06884765625,-0.02001953125,-0.87060546875,-4.57763671875,-2.746581792831421,1.7089842557907104
656579,-0.0565185546875,-0.0081787109375,-0.8477783203125,-4.150390625,-4.7607421875,2.3193359375
656621,-0.072998046875,-0.0523681640625,-0.9609375,-1.8310545682907104,-4.5166015625,2.38037109375
656638,-0.0606689453125,-0.0528564453125,-0.927490234375,-0.9155272841453552,-4.33349609375,2.3193359375
656655,-0.0540771484375,-0.0517578125,-0.962890625,0.6713866591453552,-4.7607421875,2.38037109375
656675,-0.042724609375,-0.056640625,-0.9771728515625,2.44140625,-3.784179449081421,2.44140625
656691,-0.039306640625,-0.0556640625,-0.9664306640625,2.990722417831421,-3.295898199081421,2.44140625
656708,-0.03564453125,-0.0577392578125,-0.926513671875,4.0283203125,-3.234863042831421,2.563476324081421
656724,-0.03662109375,-0.0552978515625,-0.9434814453125,4.82177734375,-3.234863042831421,2.563476324081421
656740,-0.03662109375,-0.056396484375,-0.9600830078125,5.249022960662842,-3.234863042831421,2.624511480331421
656756,-0.038330078125,-0.0670166015625,-1.0325927734375,6.469726085662842,-3.051757574081421,2.624511480331421
656788,-0.0419921875,-0.09228515625,-1.106201171875,8.4228515625,-1.220703125,2.25830078125
656804,-0.0299072265625,-0.08056640625,-1.0406494140625,9.3994140625,-0.9765624403953552,1.8920897245407104
656820,-0.0269775390625,-0.071044921875,-1.024658203125,9.6435546875,-1.4648436307907104,1.8310545682907104
656836,-0.0262451171875,-0.0526123046875,-1.08544921875,9.8876953125,-2.13623046875,1.9531248807907104
656911,-0.0262451171875,-0.06005859375,-0.9830322265625,8.11767578125,-0.4272460639476776,1.7700194120407104
656927,-0.025146484375,-0.045166015625,-0.996826171875,7.690429210662842,-0.4272460639476776,1.6479490995407104
656948,-0.0225830078125,-0.0391845703125,-1.0093994140625,7.080077648162842,-0.6103515625,1.7089842557907104
656965,-0.021240234375,-0.0472412109375,-1.052001953125,6.225585460662842,-0.3662109076976776,1.7089842557907104
656981,-0.0155029296875,-0.03955078125,-1.0411376953125,5.187987804412842,0.2441406100988388,1.5258787870407104
657002,-0.01171875,-0.0263671875,-1.02001953125,4.21142578125,-0.30517578125,1.5869139432907104
657022,-0.0181884765625,-0.027587890625,-1.060302734375,3.723144292831421,-0.30517578125,1.7089842557907104
657039,-0.0235595703125,-0.0458984375,-1.060302734375,2.929687261581421,0.1220703050494194,1.4648436307907104
657055,-0.0240478515625,-0.0452880859375,-1.022705078125,1.8310545682907104,0.30517578125,1.15966796875
657086,-0.02783203125,-0.014892578125,-1.03515625,0.2441406100988388,-0.30517578125,0.8544921278953552
657108,-0.030517578125,-0.0040283203125,-1.04833984375,-0.4272460639476776,-0.0610351525247097,0.9155272841453552
657124,-0.0321044921875,0.00390625,-1.0361328125,-1.7089842557907104,0.0,1.03759765625
657141,-0.0391845703125,0.00634765625,-1.0316162109375,-2.685546636581421,-0.1831054538488388,1.03759765625
657158,-0.045654296875,0.0235595703125,-1.0404052734375,-3.051757574081421,-0.4882812201976776,0.9765624403953552
657174,-0.05419921875,0.0384521484375,-1.079833984375,-3.723144292831421,-0.9155272841453552,1.220703125
657208,-0.0557861328125,0.02685546875,-1.1396484375,-3.784179449081421,-0.6103515625,1.6479490995407104
657224,-0.0469970703125,0.016845703125,-1.11328125,-3.601073980331421,-0.30517578125,1.7089842557907104
657240,-0.04345703125,0.0238037109375,-1.0887451171875,-3.417968511581421,-0.4272460639476776,1.6479490995407104
657256,-0.0465087890625,0.0440673828125,-1.0721435546875,-3.723144292831421,-1.03759765625,1.8920897245407104
657276,-0.053955078125,0.048583984375,-1.0931396484375,-4.21142578125,-1.0986328125,2.25830078125
657298,-0.053955078125,0.043701171875,-1.0845947265625,-4.2724609375,-1.03759765625,2.44140625
657314,-0.0521240234375,0.021240234375,-1.0577392578125,-4.2724609375,-1.3427733182907104,2.50244140625
657331,-0.0469970703125,0.008056640625,-1.0296630859375,-4.638671875,-1.8310545682907104,2.50244140625
657381,-0.0443115234375,-0.004150390625,-1.0943603515625,-4.5166015625,-2.38037109375,2.38037109375
657397,-0.03662109375,-0.01220703125,-1.08203125,-4.21142578125,-1.7700194120407104,2.38037109375
657414,-0.03271484375,-0.0106201171875,-1.0550537109375,-4.150390625,-1.7089842557907104,2.3193359375
657446,-0.036376953125,-0.01025390625,-1.0697021484375,-3.845214605331421,-1.9531248807907104,2.44140625
657462,-0.0380859375,-0.0157470703125,-1.0924072265625,-3.540038824081421,-1.7700194120407104,2.44140625
657478,-0.0411376953125,-0.035400390625,-1.1376953125,-2.44140625,-0.9155272841453552,2.44140625
657511,-0.04052734375,-0.035400390625,-1.074462890625,-0.6103515625,0.4272460639476776,2.25830078125
657532,-0.044189453125,-0.03125,-1.0283203125,-0.2441406100988388,0.6103515625,2.13623046875
657548,-0.046630859375,-0.0234375,-1.019287109375,-0.1831054538488388,0.4882812201976776,2.13623046875
657562,-0.048583984375,-0.0191650390625,-1.0301513671875,0.2441406100988388,0.4882812201976776,2.0751953125
657579,-0.0478515625,-0.01904296875,-1.022216796875,0.4272460639476776,0.6103515625,2.13623046875
657596,-0.05419921875,-0.0350341796875,-1.0299072265625,0.4272460639476776,0.7324218153953552,2.197265625
657629,-0.047607421875,-0.0577392578125,-0.95703125,0.54931640625,0.54931640625,1.7700194120407104
657645,-0.0469970703125,-0.0562744140625,-0.9674072265625,0.6103515625,0.30517578125,1.6479490995407104
657661,-0.041015625,-0.057861328125,-0.99658203125,0.7934569716453552,0.3662109076976776,1.4038084745407104
657677,-0.0291748046875,-0.0584716796875,-1.006103515625,0.8544921278953552,0.6103515625,1.0986328125
657696,-0.0255126953125,-0.0552978515625,-0.9993896484375,0.8544921278953552,0.8544921278953552,0.9155272841453552
657717,-0.0213623046875,-0.045654296875,-0.96533203125,0.9155272841453552,0.30517578125,0.6713866591453552
657733,-0.026611328125,-0.051513671875,-1.011474609375,0.9765624403953552,0.4272460639476776,0.54931640625
657754,-0.0206298828125,-0.0552978515625,-1.0028076171875,1.03759765625,0.6713866591453552,0.3662109076976776
657771,-0.01953125,-0.0618896484375,-0.9940185546875,1.0986328125,0.7324218153953552,0.2441406100988388
657787,-0.022705078125,-0.055419921875,-0.9686279296875,1.3427733182907104,0.9765624403953552,-0.1220703050494194
657804,-0.0244140625,-0.05029296875,-0.9573974609375,1.5869139432907104,0.7934569716453552,-0.4882812201976776
657821,-0.028076171875,-0.039794921875,-0.970458984375,1.9531248807907104,0.4272460639476776,-0.54931640625
657837,-0.0286865234375,-0.038818359375,-0.9820556640625,2.13623046875,0.54931640625,-0.6103515625
657869,-0.0252685546875,-0.050048828125,-0.978759765625,2.929687261581421,0.6713866591453552,-1.0986328125
657885,-0.021484375,-0.047607421875,-0.966796875,3.173827886581421,0.4272460639476776,-1.2817381620407104
657901,-0.0201416015625,-0.0452880859375,-0.9771728515625,3.601073980331421,-0.2441406100988388,-1.5258787870407104
657917,-0.0220947265625,-0.0362548828125,-1.0189208984375,3.784179449081421,-0.30517578125,-1.6479490995407104
657942,-0.0263671875,-0.0411376953125,-1.03955078125,4.39453125,-0.0610351525247097,-1.7700194120407104
657958,-0.0250244140625,-0.0469970703125,-0.9835205078125,4.82177734375,0.4272460639476776,-2.01416015625
657975,-0.026123046875,-0.0447998046875,-0.9664306640625,5.0048828125,0.0610351525247097,-2.3193359375
657992,-0.0389404296875,0.0118408203125,-1.2296142578125,5.920409679412842,0.0,-2.44140625
658008,-0.0355224609375,-0.002197265625,-1.150390625,10.803221702575684,2.44140625,-2.685546636581421
658042,-0.0379638671875,-0.024169921875,-0.8831787109375,7.568358898162842,2.197265625,-2.25830078125
658059,-0.0562744140625,-0.025146484375,-0.8446044921875,3.662109136581421,0.0610351525247097,-1.8310545682907104
658080,-0.0592041015625,-0.0157470703125,-0.8402099609375,-1.6479490995407104,-1.5869139432907104,-1.2817381620407104
658146,-0.0338134765625,0.0045166015625,-0.896484375,2.44140625,0.8544921278953552,-0.3662109076976776
658197,-0.0445556640625,0.0306396484375,-1.01025390625,-0.9155272841453552,-0.1220703050494194,0.6103515625
658242,-0.0430908203125,-0.0211181640625,-0.9951171875,-2.3193359375,0.4882812201976776,0.4882812201976776
658259,-0.044189453125,-0.0142822265625,-0.9925537109375,-2.685546636581421,0.3662109076976776,0.3662109076976776
658276,-0.0377197265625,-0.012939453125,-0.9700927734375,-2.685546636581421,0.4272460639476776,0.1220703050494194
658296,-0.035888671875,-0.0062255859375,-0.9696044921875,-2.929687261581421,0.4272460639476776,0.1220703050494194
658313,-0.04150390625,-0.00146484375,-0.992919921875,-3.662109136581421,0.4272460639476776,0.1831054538488388
658329,-0.040771484375,-0.0020751953125,-0.9747314453125,-4.39453125,0.1831054538488388,0.4882812201976776
658346,-0.041259765625,-0.0118408203125,-0.9775390625,-4.57763671875,0.2441406100988388,0.6103515625
658362,-0.0416259765625,-0.0208740234375,-0.9893798828125,-4.7607421875,0.2441406100988388,0.4272460639476776
658378,-0.0382080078125,-0.021484375,-0.978515625,-4.7607421875,0.3662109076976776,0.4272460639476776
658410,-0.0428466796875,-0.0220947265625,-0.9862060546875,-5.065917491912842,0.1220703050494194,0.4882812201976776
658431,-0.0423583984375,-0.0208740234375,-0.980224609375,-5.126952648162842,0.1831054538488388,0.4882812201976776
658452,-0.04150390625,-0.0225830078125,-0.9754638671875,-5.187987804412842,0.1831054538488388,0.4882812201976776
658472,-0.0404052734375,-0.025146484375,-0.9820556640625,-5.187987804412842,0.1220703050494194,0.54931640625
658489,-0.0406494140625,-0.0294189453125,-0.98193359375,-5.126952648162842,0.0610351525247097,0.4882812201976776
658505,-0.04345703125,-0.0333251953125,-0.9766845703125,-5.0048828125,0.0610351525247097,0.54931640625
658522,-0.0438232421875,-0.035888671875,-0.97998046875,-4.69970703125,-0.0610351525247097,0.4882812201976776
658539,-0.0380859375,-0.0379638671875,-0.9775390625,-4.5166015625,-0.1220703050494194,0.4272460639476776
658555,-0.0374755859375,-0.0389404296875,-0.9796142578125,-4.21142578125,-0.1831054538488388,0.4272460639476776
658587,-0.046142578125,-0.04248046875,-0.9783935546875,-3.723144292831421,-0.0610351525247097,0.3662109076976776
658603,-0.04541015625,-0.037109375,-0.980712890625,-3.601073980331421,0.0610351525247097,0.3662109076976776
658619,-0.0390625,-0.03857421875,-0.9794921875,-3.601073980331421,0.0610351525247097,0.3662109076976776
658655,-0.040771484375,-0.041259765625,-0.9796142578125,-3.356933355331421,0.0,0.3662109076976776
658671,-0.0469970703125,-0.043701171875,-0.97998046875,-3.173827886581421,-0.1220703050494194,0.3662109076976776
658687,-0.0467529296875,-0.0435791015625,-0.98046875,-3.112792730331421,-0.1831054538488388,0.4882812201976776
658703,-0.0404052734375,-0.0516357421875,-0.980712890625,-2.929687261581421,-0.0610351525247097,0.3662109076976776
658720,-0.0401611328125,-0.0472412109375,-0.97998046875,-2.807616949081421,-0.0610351525247097,0.3662109076976776
658741,-0.0428466796875,-0.0465087890625,-0.9798583984375,-2.44140625,-0.0610351525247097,0.3662109076976776
658757,-0.0445556640625,-0.046875,-0.9803466796875,-2.3193359375,-0.0610351525247097,0.3662109076976776
658774,-0.042236328125,-0.049560546875,-0.9814453125,-2.25830078125,-0.0610351525247097,0.4272460639476776
658791,-0.040283203125,-0.0518798828125,-0.9776611328125,-2.0751953125,0.0,0.30517578125
658824,-0.043701171875,-0.0546875,-0.9801025390625,-1.5258787870407104,-0.1831054538488388,0.3662109076976776
658841,-0.043701171875,-0.0570068359375,-0.9803466796875,-1.2817381620407104,-0.1831054538488388,0.30517578125
658857,-0.0435791015625,-0.05712890625,-0.9774169921875,-1.15966796875,-0.1831054538488388,0.2441406100988388
658889,-0.0406494140625,-0.055419921875,-0.9808349609375,-0.6713866591453552,-0.1831054538488388,0.2441406100988388
658905,-0.042724609375,-0.05029296875,-0.9788818359375,-0.3662109076976776,-0.1831054538488388,0.30517578125
658921,-0.044189453125,-0.0535888671875,-0.977294921875,-0.1831054538488388,-0.1831054538488388,0.30517578125
658937,-0.043212890625,-0.053955078125,-0.9779052734375,-0.1220703050494194,-0.1831054538488388,0.3662109076976776
658957,-0.0423583984375,-0.056884765625,-0.9788818359375,-0.0610351525247097,-0.30517578125,0.30517578125
658973,-0.041259765625,-0.0572509765625,-0.9788818359375,0.0610351525247097,-0.2441406100988388,0.30517578125
658989,-0.0411376953125,-0.0535888671875,-0.9788818359375,0.0610351525247097,-0.2441406100988388,0.2441406100988388
659006,-0.0423583984375,-0.0533447265625,-0.976806640625,0.1220703050494194,-0.3662109076976776,0.1831054538488388
659027,-0.04345703125,-0.0528564453125,-0.9788818359375,-0.1220703050494194,-0.3662109076976776,0.1831054538488388
659043,-0.0430908203125,-0.046142578125,-0.9735107421875,-0.2441406100988388,-0.54931640625,0.1831054538488388
659060,-0.042236328125,-0.046142578125,-0.9703369140625,-0.7324218153953552,-0.9155272841453552,0.2441406100988388
659077,-0.0352783203125,-0.037841796875,-0.9766845703125,-1.2817381620407104,-1.7700194120407104,0.8544921278953552
659093,-0.031005859375,-0.05517578125,-0.9788818359375,-1.3427733182907104,-2.197265625,1.2817381620407104
659125,-0.038330078125,-0.1318359375,-1.1339111328125,2.3193359375,-6.286620616912842,1.03759765625
659147,-0.0389404296875,-0.179931640625,-1.557861328125,5.615233898162842,-2.807616949081421,0.4272460639476776
659163,-0.0076904296875,-0.186279296875,-1.5728759765625,7.080077648162842,-0.3662109076976776,-0.30517578125
659180,0.0028076171875,-0.1693115234375,-1.4840087890625,9.82666015625,1.5258787870407104,-0.9765624403953552
659197,0.0023193359375,-0.1524658203125,-1.3184814453125,10.681151390075684,1.0986328125,-1.6479490995407104
659214,-0.0164794921875,-0.087646484375,-1.2606201171875,9.33837890625,0.1831054538488388,-1.6479490995407104
659245,-0.04541015625,-0.060302734375,-1.3529052734375,8.72802734375,-0.30517578125,-1.0986328125
659267,-0.05029296875,-0.0894775390625,-1.4368896484375,9.1552734375,-0.0610351525247097,-1.0986328125
659283,-0.0394287109375,-0.072998046875,-1.3604736328125,9.6435546875,1.4038084745407104,-1.5258787870407104
659300,-0.04150390625,-0.0640869140625,-1.3160400390625,9.27734375,0.8544921278953552,-1.9531248807907104
659321,-0.0570068359375,-0.01025390625,-1.3189697265625,8.4228515625,0.30517578125,-1.9531248807907104
659370,-0.06396484375,-0.0570068359375,-1.427734375,8.23974609375,-0.4272460639476776,-1.8310545682907104
659386,-0.0587158203125,-0.0264892578125,-1.4281005859375,9.46044921875,1.15966796875,-2.197265625
659402,-0.049560546875,-0.0032958984375,-1.31005859375,9.6435546875,1.5258787870407104,-2.3193359375
659418,-0.0482177734375,0.010009765625,-1.268798828125,8.85009765625,1.3427733182907104,-2.25830078125
659443,-0.0545654296875,0.0106201171875,-1.248046875,7.202147960662842,1.5258787870407104,-2.0751953125
659459,-0.0587158203125,0.001220703125,-1.1983642578125,5.432128429412842,1.9531248807907104,-2.0751953125
659476,-0.064208984375,0.001953125,-1.149658203125,4.82177734375,2.0751953125,-2.197265625
659493,-0.0660400390625,0.001220703125,-1.119384765625,4.21142578125,2.44140625,-2.25830078125
659509,-0.067626953125,0.0074462890625,-1.0328369140625,2.3193359375,2.50244140625,-2.3193359375
659542,-0.07373046875,0.02197265625,-0.924072265625,-1.03759765625,1.2817381620407104,-2.0751953125
659559,-0.07421875,0.020263671875,-0.926513671875,-2.44140625,0.7324218153953552,-1.7700194120407104
659575,-0.0693359375,-0.004638671875,-0.9254150390625,-3.845214605331421,0.9765624403953552,-1.7700194120407104
659607,-0.053466796875,-0.0166015625,-0.82568359375,-4.8828125,1.03759765625,-1.9531248807907104
659623,-0.0465087890625,-0.013671875,-0.7664794921875,-5.126952648162842,0.9155272841453552,-1.9531248807907104
659639,-0.044921875,-0.016357421875,-0.7484130859375,-5.859374523162842,0.6713866591453552,-1.9531248807907104
659675,-0.0400390625,-0.024658203125,-0.6661376953125,-7.141112804412842,0.1220703050494194,-1.7089842557907104
659697,-0.04248046875,-0.0284423828125,-0.6839599609375,-7.019042491912842,-0.1831054538488388,-1.7089842557907104
659713,-0.04833984375,-0.041015625,-0.72509765625,-6.469726085662842,0.4272460639476776,-1.7700194120407104
659734,-0.042724609375,-0.042236328125,-0.6766357421875,-6.286620616912842,1.2817381620407104,-1.8920897245407104
659751,-0.0330810546875,-0.04150390625,-0.590576171875,-6.164550304412842,1.220703125,-2.0751953125
659767,-0.0279541015625,-0.0294189453125,-0.5526123046875,-6.042479991912842,1.03759765625,-2.0751953125
659779,-0.0240478515625,-0.0313720703125,-0.53369140625,-5.859374523162842,0.8544921278953552,-1.9531248807907104
659798,-0.0245361328125,-0.0299072265625,-0.5433349609375,-5.676269054412842,0.54931640625,-1.9531248807907104
659814,-0.026611328125,-0.0364990234375,-0.5601806640625,-5.493163585662842,1.0986328125,-1.9531248807907104
659846,-0.0224609375,-0.0330810546875,-0.5150146484375,-4.94384765625,0.7934569716453552,-2.0751953125
659862,-0.0234375,-0.0372314453125,-0.5311279296875,-4.638671875,0.2441406100988388,-2.0751953125
659911,-0.0450439453125,-0.0511474609375,-0.7073974609375,-1.8310545682907104,0.2441406100988388,-2.0751953125
659932,-0.0523681640625,-0.048828125,-0.757568359375,-0.1220703050494194,0.1831054538488388,-2.0751953125
659948,-0.0545654296875,-0.05712890625,-0.7772216796875,0.7324218153953552,0.1831054538488388,-2.0751953125
659962,-0.0498046875,-0.0479736328125,-0.786865234375,2.25830078125,-0.0610351525247097,-2.197265625
659979,-0.0504150390625,-0.0440673828125,-0.8095703125,3.173827886581421,-0.4882812201976776,-2.197265625
659995,-0.054443359375,-0.03515625,-0.8592529296875,5.065917491912842,-0.9765624403953552,-2.197265625
660029,-0.0546875,-0.03662109375,-0.8984375,8.23974609375,-0.9765624403953552,-1.8310545682907104
660045,-0.052001953125,-0.04541015625,-0.9024658203125,10.009765625,-1.03759765625,-1.9531248807907104
660061,-0.048828125,-0.0379638671875,-0.8865966796875,10.620116233825684,-1.0986328125,-2.0751953125
660077,-0.048583984375,-0.011962890625,-0.8765869140625,11.352538108825684,-1.7700194120407104,-2.0751953125
660097,-0.0557861328125,-0.0010986328125,-0.935791015625,12.023924827575684,-2.13623046875,-1.7089842557907104
660113,-0.057373046875,0.0001220703125,-0.9510498046875,12.329100608825684,-1.8310545682907104,-1.6479490995407104
660129,-0.0513916015625,0.002197265625,-0.9356689453125,12.756346702575684,-1.7700194120407104,-1.4038084745407104
660141,-0.045654296875,-0.0089111328125,-0.9486083984375,12.817381858825684,-2.01416015625,-1.4648436307907104
660164,-0.0465087890625,-0.0054931640625,-0.9766845703125,12.878417015075684,-2.197265625,-1.5869139432907104
660180,-0.045166015625,0.0123291015625,-0.99658203125,12.878417015075684,-1.7089842557907104,-1.6479490995407104
660197,-0.0433349609375,0.03173828125,-1.0050048828125,12.634276390075684,-1.6479490995407104,-1.5258787870407104
660214,-0.0447998046875,0.0283203125,-1.02587890625,11.840819358825684,-1.6479490995407104,-1.220703125
660231,-0.0462646484375,0.020751953125,-1.0567626953125,11.230467796325684,-0.9765624403953552,-1.220703125
660260,-0.0423583984375,0.0347900390625,-1.0081787109375,10.070799827575684,-0.4272460639476776,-1.4038084745407104
660279,-0.0426025390625,0.049560546875,-1.0128173828125,8.48388671875,0.0,-1.15966796875
660300,-0.0386962890625,0.0614013671875,-0.9794921875,7.568358898162842,0.2441406100988388,-1.03759765625
660316,-0.040283203125,0.0584716796875,-0.94189453125,5.615233898162842,0.4882812201976776,-0.7934569716453552
660333,-0.0421142578125,0.051513671875,-0.9384765625,3.845214605331421,0.30517578125,-0.54931640625
660350,-0.0450439453125,0.04443359375,-0.9482421875,3.112792730331421,0.30517578125,-0.54931640625
660381,-0.050048828125,0.0511474609375,-0.9647216796875,0.7934569716453552,0.4882812201976776,-0.3662109076976776
660446,-0.053466796875,0.0113525390625,-0.99658203125,-0.8544921278953552,0.0610351525247097,0.1831054538488388
660518,-0.0487060546875,0.006103515625,-0.9776611328125,-0.1831054538488388,0.30517578125,0.4272460639476776
660535,-0.049072265625,0.0059814453125,-0.9736328125,0.1831054538488388,0.1220703050494194,0.4882812201976776
660568,-0.0487060546875,0.0040283203125,-0.9798583984375,0.9765624403953552,0.0610351525247097,0.54931640625
660585,-0.0467529296875,0.0047607421875,-0.9754638671875,1.4038084745407104,0.1831054538488388,0.6713866591453552
660602,-0.045654296875,0.0072021484375,-0.974609375,1.7089842557907104,0.1831054538488388,0.7934569716453552
660618,-0.042724609375,0.006103515625,-0.9759521484375,1.9531248807907104,0.2441406100988388,0.7934569716453552
660639,-0.041748046875,0.006591796875,-0.969970703125,1.9531248807907104,0.4272460639476776,0.9155272841453552
660660,-0.040771484375,0.0079345703125,-0.9649658203125,1.9531248807907104,0.4272460639476776,0.9765624403953552
660676,-0.0416259765625,0.013916015625,-0.9571533203125,1.7700194120407104,0.30517578125,1.03759765625
660693,-0.04638671875,0.017333984375,-0.97607421875,1.4038084745407104,0.3662109076976776,1.0986328125
660710,-0.043212890625,0.0196533203125,-0.972900390625,1.2817381620407104,0.54931640625,1.15966796875
660743,-0.0377197265625,0.025390625,-0.9539794921875,0.30517578125,0.4882812201976776,1.3427733182907104
660796,-0.0390625,0.0123291015625,-0.9544677734375,-0.6103515625,0.7934569716453552,1.5258787870407104
660818,-0.04052734375,0.0048828125,-0.972412109375,-0.7324218153953552,0.6103515625,1.5258787870407104
660835,-0.0418701171875,0.005859375,-0.9754638671875,-0.8544921278953552,0.6713866591453552,1.4648436307907104
660870,-0.0435791015625,0.0213623046875,-0.938232421875,-0.9155272841453552,0.9155272841453552,1.4648436307907104
660887,-0.0435791015625,0.0216064453125,-0.935546875,-1.4038084745407104,0.4882812201976776,1.4648436307907104
660904,-0.045166015625,0.0179443359375,-0.953125,-1.8310545682907104,0.1220703050494194,1.5258787870407104
660920,-0.0477294921875,0.013427734375,-0.966064453125,-1.9531248807907104,0.2441406100988388,1.4038084745407104
660974,-0.0450439453125,0.010498046875,-0.9376220703125,-1.5258787870407104,0.6713866591453552,1.0986328125
660999,-0.0386962890625,0.014404296875,-0.87646484375,-1.7700194120407104,0.6713866591453552,0.9765624403953552
661016,-0.03662109375,0.0146484375,-0.858642578125,-2.44140625,0.4882812201976776,0.8544921278953552
661051,-0.042236328125,0.013671875,-0.861328125,-3.784179449081421,0.1220703050494194,0.8544921278953552
661067,-0.043701171875,0.012451171875,-0.86962890625,-3.906249761581421,0.0610351525247097,0.8544921278953552
661084,-0.0460205078125,0.0062255859375,-0.8800048828125,-4.0283203125,0.30517578125,0.8544921278953552
661100,-0.0447998046875,0.00634765625,-0.8592529296875,-4.2724609375,0.0,0.6103515625
661117,-0.0452880859375,0.00537109375,-0.8626708984375,-4.39453125,-0.2441406100988388,0.6103515625
661138,-0.0474853515625,0.0064697265625,-0.88671875,-4.7607421875,-0.54931640625,0.6713866591453552
661154,-0.0517578125,0.0015869140625,-0.91455078125,-5.065917491912842,-0.6103515625,0.6103515625
661175,-0.05419921875,0.0032958984375,-0.916748046875,-5.249022960662842,-0.3662109076976776,0.54931640625
661192,-0.0489501953125,0.0028076171875,-0.8685302734375,-5.432128429412842,-0.3662109076976776,0.54931640625
661208,-0.0421142578125,0.0074462890625,-0.8592529296875,-5.981444835662842,-0.9765624403953552,0.54931640625
661225,-0.04248046875,0.0059814453125,-0.8880615234375,-6.347655773162842,-1.4038084745407104,0.7324218153953552
661242,-0.0382080078125,0.0035400390625,-0.9134521484375,-6.652831554412842,-1.15966796875,0.7934569716453552
661258,-0.0394287109375,-0.0057373046875,-0.922607421875,-6.652831554412842,-0.9765624403953552,0.7934569716453552
661294,-0.040771484375,-0.00927734375,-0.8480224609375,-6.591796398162842,-0.54931640625,0.7324218153953552
661342,-0.05029296875,-0.01611328125,-0.9727783203125,-6.042479991912842,-1.5869139432907104,1.0986328125
661419,-0.04833984375,-0.0093994140625,-0.794921875,-4.57763671875,-2.13623046875,1.0986328125
661436,-0.0567626953125,-0.010986328125,-0.8662109375,-4.39453125,-3.173827886581421,1.4648436307907104
661469,-0.0635986328125,-0.05126953125,-1.0294189453125,-2.44140625,-2.624511480331421,1.5869139432907104
661485,-0.05712890625,-0.0518798828125,-0.9820556640625,-1.03759765625,-1.220703125,1.220703125
661502,-0.0477294921875,-0.0343017578125,-0.8740234375,-0.54931640625,-1.7700194120407104,1.220703125
661518,-0.04833984375,-0.029296875,-0.8516845703125,-0.4272460639476776,-2.25830078125,1.2817381620407104
661573,-0.054443359375,-0.0308837890625,-0.978515625,0.6713866591453552,-2.685546636581421,1.5258787870407104
661599,-0.0458984375,-0.0269775390625,-0.8934326171875,1.5869139432907104,-2.01416015625,1.4648436307907104
661616,-0.0460205078125,-0.0213623046875,-0.878662109375,2.01416015625,-2.563476324081421,1.5869139432907104
661651,-0.0389404296875,-0.0465087890625,-0.939697265625,2.44140625,-1.7700194120407104,1.5869139432907104
661667,-0.0350341796875,-0.0443115234375,-0.91796875,2.563476324081421,-1.5869139432907104,1.4648436307907104
661684,-0.0360107421875,-0.0458984375,-0.891357421875,2.685546636581421,-1.7700194120407104,1.4038084745407104
661700,-0.0430908203125,-0.0404052734375,-0.9097900390625,2.807616949081421,-2.01416015625,1.3427733182907104
661717,-0.046875,-0.044189453125,-0.934814453125,3.112792730331421,-2.01416015625,1.4038084745407104
661738,-0.04638671875,-0.0474853515625,-0.9742431640625,3.601073980331421,-1.9531248807907104,1.2817381620407104
661788,-0.0506591796875,-0.0404052734375,-1.0089111328125,5.676269054412842,-0.7324218153953552,0.9155272841453552
661842,-0.0462646484375,-0.04736328125,-0.9912109375,5.676269054412842,-1.7089842557907104,1.5258787870407104
661859,-0.046142578125,-0.06884765625,-1.016845703125,5.493163585662842,-1.4648436307907104,1.5258787870407104
661876,-0.043701171875,-0.0777587890625,-1.0157470703125,5.676269054412842,-1.2817381620407104,1.2817381620407104
661896,-0.0438232421875,-0.06494140625,-1.0198974609375,6.103515148162842,-1.0986328125,0.9155272841453552
661913,-0.038330078125,-0.03515625,-1.0089111328125,6.225585460662842,-1.2817381620407104,0.8544921278953552
661929,-0.037109375,-0.0228271484375,-1.01611328125,6.225585460662842,-1.2817381620407104,0.9765624403953552
661946,-0.0294189453125,-0.0269775390625,-1.0128173828125,5.187987804412842,-1.3427733182907104,1.03759765625
661962,-0.0262451171875,-0.0361328125,-1.036376953125,4.39453125,-1.9531248807907104,1.03759765625
661978,-0.02880859375,-0.0474853515625,-1.057373046875,4.57763671875,-1.9531248807907104,0.9155272841453552
662010,-0.033935546875,-0.0426025390625,-1.0506591796875,5.310058116912842,-1.6479490995407104,0.30517578125
662026,-0.0362548828125,-0.033447265625,-1.031494140625,4.8828125,-2.197265625,0.0610351525247097
662042,-0.033203125,-0.0185546875,-1.042724609375,4.82177734375,-2.563476324081421,-0.0610351525247097
662058,-0.03076171875,-0.01025390625,-1.0557861328125,4.7607421875,-2.868652105331421,0.0
662133,-0.0255126953125,-0.0330810546875,-1.0906982421875,5.981444835662842,-3.234863042831421,-0.8544921278953552
662150,-0.026123046875,-0.015380859375,-1.111083984375,6.042479991912842,-3.479003667831421,-0.8544921278953552
662166,-0.0323486328125,-0.011474609375,-1.145751953125,6.164550304412842,-3.234863042831421,-0.9155272841453552
662183,-0.02783203125,-0.015869140625,-1.09619140625,6.713866710662842,-2.38037109375,-1.0986328125
662200,-0.026611328125,-0.0196533203125,-1.0836181640625,6.774901866912842,-2.50244140625,-1.220703125
662216,-0.026123046875,-0.0103759765625,-1.081787109375,6.896972179412842,-2.624511480331421,-1.3427733182907104
662246,-0.0302734375,0.0003662109375,-1.0633544921875,6.530761241912842,-2.25830078125,-1.4648436307907104
662268,-0.029296875,0.0023193359375,-1.0469970703125,6.408690929412842,-2.563476324081421,-1.4648436307907104
662284,-0.030029296875,0.0040283203125,-1.0555419921875,6.347655773162842,-2.44140625,-1.4648436307907104
662301,-0.0283203125,0.0047607421875,-1.03955078125,6.103515148162842,-2.197265625,-1.5258787870407104
662318,-0.027587890625,0.0079345703125,-1.025146484375,5.798339366912842,-2.44140625,-1.6479490995407104
662334,-0.031005859375,0.0115966796875,-1.0589599609375,5.859374523162842,-2.563476324081421,-1.6479490995407104
662366,-0.0230712890625,0.0166015625,-1.029296875,5.676269054412842,-1.7700194120407104,-1.5258787870407104
662382,-0.0174560546875,0.0152587890625,-1.0531005859375,5.554198741912842,-1.9531248807907104,-1.5258787870407104
662398,-0.01318359375,0.019775390625,-1.059326171875,5.371093273162842,-1.6479490995407104,-1.5258787870407104
662430,-0.0072021484375,0.02197265625,-1.0701904296875,4.94384765625,-1.0986328125,-1.4648436307907104
662446,-0.007568359375,0.0218505859375,-1.0782470703125,4.8828125,-0.30517578125,-1.4648436307907104
662462,-0.0072021484375,0.0125732421875,-1.060546875,4.82177734375,-0.0610351525247097,-1.4038084745407104
662478,-0.008056640625,0.009033203125,-1.0516357421875,4.33349609375,0.3662109076976776,-1.5258787870407104
662498,-0.003662109375,0.0142822265625,-1.037109375,3.845214605331421,-0.1220703050494194,-1.6479490995407104
662514,-0.0135498046875,0.0211181640625,-1.1494140625,3.723144292831421,0.54931640625,-1.5869139432907104
662530,-0.013671875,0.0257568359375,-1.1556396484375,3.662109136581421,1.4648436307907104,-1.5869139432907104
662546,-0.013916015625,0.0194091796875,-1.101318359375,3.234863042831421,2.44140625,-1.5258787870407104
662568,-0.014892578125,0.0164794921875,-1.0289306640625,2.990722417831421,2.563476324081421,-1.5258787870407104
662584,-0.0189208984375,0.0089111328125,-1.0328369140625,2.38037109375,2.197265625,-1.5258787870407104
662601,-0.020263671875,0.01318359375,-1.0411376953125,1.4038084745407104,2.38037109375,-1.6479490995407104
662618,-0.0224609375,0.025146484375,-1.0242919921875,0.9765624403953552,2.563476324081421,-1.6479490995407104
662634,-0.0230712890625,0.022216796875,-1.01513671875,0.3662109076976776,2.624511480331421,-1.5258787870407104
662665,-0.0238037109375,0.0166015625,-1.0333251953125,-0.6713866591453552,2.929687261581421,-1.5869139432907104
662682,-0.0218505859375,0.0224609375,-1.00390625,-0.9765624403953552,2.990722417831421,-1.5869139432907104
662698,-0.0245361328125,0.029052734375,-0.9705810546875,-2.01416015625,2.3193359375,-1.5258787870407104
662732,-0.0147705078125,0.1314697265625,-1.17236328125,2.0751953125,2.990722417831421,-1.15966796875
662754,-0.0106201171875,0.0977783203125,-1.0828857421875,7.080077648162842,4.150390625,-0.7934569716453552
662770,-0.028076171875,0.027099609375,-0.908203125,3.784179449081421,3.540038824081421,-0.1831054538488388
662787,-0.0374755859375,0.037353515625,-0.9329833984375,3.112792730331421,3.234863042831421,-0.1220703050494194
662804,-0.0374755859375,0.0400390625,-0.9482421875,4.57763671875,2.990722417831421,-0.1220703050494194
662820,-0.035400390625,0.0252685546875,-0.935546875,3.479003667831421,2.746581792831421,-0.1220703050494194
662837,-0.0289306640625,0.025634765625,-0.9835205078125,0.4272460639476776,2.25830078125,0.1220703050494194
662854,-0.0234375,0.040283203125,-1.0841064453125,0.1220703050494194,2.624511480331421,0.0610351525247097
662902,-0.039306640625,0.0452880859375,-0.903076171875,-1.4648436307907104,3.417968511581421,0.2441406100988388
662919,-0.0665283203125,0.0474853515625,-0.8660888671875,-1.0986328125,0.3662109076976776,0.30517578125
662940,-0.0548095703125,0.0450439453125,-1.0565185546875,-1.5258787870407104,-1.9531248807907104,0.4882812201976776
662956,-0.0343017578125,0.0272216796875,-1.0531005859375,-2.13623046875,-1.220703125,0.6103515625
662973,-0.0269775390625,0.03515625,-0.9388427734375,-2.50244140625,0.9155272841453552,0.54931640625
662994,-0.02490234375,0.0311279296875,-0.935546875,-1.9531248807907104,1.03759765625,0.54931640625
663024,-0.0460205078125,0.02490234375,-1.006591796875,-2.25830078125,0.0610351525247097,0.4272460639476776
663041,-0.04248046875,0.026611328125,-0.972900390625,-1.8310545682907104,0.4882812201976776,0.4272460639476776
663061,-0.0389404296875,0.026123046875,-0.95166015625,-1.5869139432907104,0.3662109076976776,0.2441406100988388
663081,-0.04150390625,0.0228271484375,-1.0107421875,-1.4038084745407104,0.4882812201976776,0.2441406100988388
663098,-0.0316162109375,0.028564453125,-0.966796875,-1.6479490995407104,0.3662109076976776,0.2441406100988388
663119,-0.036376953125,0.027587890625,-0.9820556640625,-1.7089842557907104,0.1831054538488388,0.1831054538488388
663135,-0.0445556640625,0.02294921875,-0.979736328125,-1.8920897245407104,0.0610351525247097,0.2441406100988388
663152,-0.0452880859375,0.0206298828125,-0.968017578125,-1.9531248807907104,0.2441406100988388,0.2441406100988388
663169,-0.0406494140625,0.0224609375,-0.9896240234375,-1.8920897245407104,0.2441406100988388,0.30517578125
663202,-0.03369140625,0.0177001953125,-0.9796142578125,-1.5869139432907104,0.1220703050494194,0.4272460639476776
663219,-0.0416259765625,0.013427734375,-0.9776611328125,-1.15966796875,0.0610351525247097,0.3662109076976776
663235,-0.0438232421875,0.017333984375,-0.9820556640625,-0.8544921278953552,0.0,0.30517578125
663266,-0.035888671875,0.0194091796875,-0.9793701171875,-0.6713866591453552,0.0,0.2441406100988388
663287,-0.0360107421875,0.0191650390625,-0.9827880859375,-0.7934569716453552,0.0610351525247097,0.30517578125
663303,-0.040283203125,0.0206298828125,-0.9801025390625,-0.7934569716453552,0.0610351525247097,0.3662109076976776
663320,-0.04248046875,0.0198974609375,-0.9791259765625,-0.8544921278953552,0.1220703050494194,0.30517578125
663337,-0.0399169921875,0.013671875,-0.982421875,-1.03759765625,0.0,0.30517578125
663353,-0.038330078125,0.0137939453125,-0.9827880859375,-0.9155272841453552,-0.1220703050494194,0.3662109076976776
663385,-0.041748046875,0.010009765625,-0.980712890625,-0.4882812201976776,-0.1831054538488388,0.1831054538488388
663407,-0.04248046875,0.01025390625,-0.980224609375,-0.0610351525247097,-0.1220703050494194,0.0610351525247097
663423,-0.042236328125,0.014892578125,-0.982421875,0.1831054538488388,-0.1220703050494194,0.0610351525247097
663440,-0.040283203125,0.01708984375,-0.979248046875,0.1831054538488388,-0.1220703050494194,0.1220703050494194
663457,-0.03955078125,0.019287109375,-0.97900390625,0.1220703050494194,-0.1220703050494194,0.2441406100988388
663473,-0.04052734375,0.0205078125,-0.979736328125,-0.1831054538488388,-0.2441406100988388,0.3662109076976776
663505,-0.0411376953125,0.014404296875,-0.9825439453125,-0.4882812201976776,-0.1220703050494194,0.30517578125
663527,-0.039794921875,0.0126953125,-0.9818115234375,-0.4882812201976776,-0.0610351525247097,0.3662109076976776
663543,-0.039794921875,0.0120849609375,-0.97900390625,-0.30517578125,-0.1220703050494194,0.2441406100988388
663560,-0.0418701171875,0.0108642578125,-0.978759765625,-0.1831054538488388,-0.1831054538488388,0.2441406100988388
663577,-0.042236328125,0.0111083984375,-0.9808349609375,0.0,-0.2441406100988388,0.30517578125
663593,-0.039794921875,0.0111083984375,-0.9798583984375,0.1220703050494194,-0.2441406100988388,0.2441406100988388
663624,-0.0418701171875,0.0140380859375,-0.9808349609375,0.2441406100988388,-0.1831054538488388,0.2441406100988388
663640,-0.0413818359375,0.013427734375,-0.98095703125,0.1831054538488388,-0.1220703050494194,0.30517578125
663686,-0.0400390625,0.010498046875,-0.9791259765625,0.1831054538488388,-0.30517578125,0.30517578125
663707,-0.041259765625,0.009765625,-0.9830322265625,0.3662109076976776,-0.30517578125,0.2441406100988388
663723,-0.040771484375,0.01123046875,-0.9794921875,0.4272460639476776,-0.1831054538488388,0.1220703050494194
663740,-0.0408935546875,0.010986328125,-0.9796142578125,0.4882812201976776,-0.1220703050494194,0.1831054538488388
663757,-0.0416259765625,0.011474609375,-0.980712890625,0.6103515625,-0.1220703050494194,0.1831054538488388
663773,-0.041259765625,0.011962890625,-0.979248046875,0.6713866591453552,-0.1220703050494194,0.2441406100988388
663805,-0.0391845703125,0.012451171875,-0.981201171875,0.6713866591453552,-0.30517578125,0.30517578125
663827,-0.0391845703125,0.0123291015625,-0.98291015625,0.6103515625,-0.30517578125,0.3662109076976776
663843,-0.041748046875,0.009765625,-0.980712890625,0.7324218153953552,-0.2441406100988388,0.30517578125
663864,-0.041748046875,0.0096435546875,-0.9796142578125,0.9155272841453552,-0.3662109076976776,0.30517578125
663881,-0.0411376953125,0.0106201171875,-0.984130859375,1.03759765625,-0.3662109076976776,0.2441406100988388
663897,-0.038818359375,0.0128173828125,-0.9814453125,1.15966796875,-0.30517578125,0.1220703050494194
663934,-0.0406494140625,0.012939453125,-0.9786376953125,1.220703125,-0.3662109076976776,0.2441406100988388
663951,-0.0389404296875,0.011474609375,-0.968994140625,1.03759765625,-0.9765624403953552,0.2441406100988388
663967,-0.0364990234375,0.017578125,-0.9794921875,0.9765624403953552,-1.4038084745407104,0.30517578125
663983,-0.037841796875,0.0269775390625,-0.9869384765625,0.9765624403953552,-2.01416015625,0.54931640625
664044,-0.05126953125,-0.015625,-1.3746337890625,-1.9531248807907104,-2.197265625,0.7324218153953552
664068,-0.030029296875,-0.03173828125,-1.44873046875,-2.50244140625,2.25830078125,0.54931640625
664084,-0.01806640625,-0.02490234375,-1.2779541015625,-3.906249761581421,2.746581792831421,0.4272460639476776
664099,-0.0283203125,-0.0029296875,-1.2518310546875,-4.82177734375,2.13623046875,0.54931640625
664166,-0.0599365234375,-0.068359375,-1.4549560546875,-6.408690929412842,2.38037109375,0.6103515625
664182,-0.04736328125,-0.0479736328125,-1.3878173828125,-5.310058116912842,2.990722417831421,0.4882812201976776
664198,-0.0384521484375,-0.021484375,-1.3697509765625,-4.82177734375,2.624511480331421,0.4882812201976776
664231,-0.0372314453125,-0.0125732421875,-1.4505615234375,-5.187987804412842,3.234863042831421,0.9765624403953552
664252,-0.040771484375,-0.0142822265625,-1.4566650390625,-5.187987804412842,3.906249761581421,1.03759765625
664268,-0.0506591796875,-0.0146484375,-1.4278564453125,-4.94384765625,4.69970703125,1.4648436307907104
664283,-0.0697021484375,-0.0400390625,-1.4229736328125,-4.7607421875,5.615233898162842,1.2817381620407104
664300,-0.0826416015625,-0.025146484375,-1.3720703125,-4.2724609375,5.981444835662842,1.2817381620407104
664316,-0.083740234375,-0.0245361328125,-1.33203125,-3.540038824081421,6.286620616912842,1.4648436307907104
664350,-0.081298828125,-0.0323486328125,-1.2021484375,-6.225585460662842,5.493163585662842,2.01416015625
664366,-0.0828857421875,-0.0404052734375,-1.189208984375,-7.019042491912842,5.0048828125,2.0751953125
664382,-0.087890625,-0.0521240234375,-1.162841796875,-8.30078125,4.08935546875,2.0751953125
664398,-0.091064453125,-0.0491943359375,-1.1544189453125,-8.4228515625,3.784179449081421,1.9531248807907104
664418,-0.0888671875,-0.045166015625,-1.0963134765625,-8.544921875,3.173827886581421,1.8920897245407104
664434,-0.0831298828125,-0.033447265625,-1.0142822265625,-10.253905296325684,2.197265625,2.13623046875
664450,-0.0802001953125,-0.0335693359375,-0.9552001953125,-12.268065452575684,1.0986328125,2.38037109375
664463,-0.0777587890625,-0.0311279296875,-0.93505859375,-13.000487327575684,0.6713866591453552,2.38037109375
664517,-0.064697265625,-0.0484619140625,-0.9163818359375,-15.136717796325684,-0.2441406100988388,2.807616949081421
664538,-0.054443359375,-0.0460205078125,-0.8560791015625,-15.563963890075684,0.0610351525247097,2.807616949081421
664554,-0.048828125,-0.0411376953125,-0.7955322265625,-15.686034202575684,0.0610351525247097,2.868652105331421
664588,-0.0438232421875,-0.0574951171875,-0.7513427734375,-16.4794921875,0.0610351525247097,3.112792730331421
664604,-0.03955078125,-0.0726318359375,-0.72412109375,-16.11328125,0.6103515625,2.868652105331421
664620,-0.03173828125,-0.0699462890625,-0.6490478515625,-15.991209983825684,0.9155272841453552,2.685546636581421
664636,-0.0283203125,-0.0616455078125,-0.60302734375,-15.991209983825684,1.2817381620407104,2.44140625
664656,-0.0274658203125,-0.05029296875,-0.5306396484375,-16.2353515625,1.0986328125,2.563476324081421
664678,-0.026611328125,-0.0504150390625,-0.493408203125,-16.357421875,1.03759765625,2.563476324081421
664694,-0.02392578125,-0.0445556640625,-0.4639892578125,-16.41845703125,0.9765624403953552,2.50244140625
664711,-0.024658203125,-0.048095703125,-0.4625244140625,-16.357421875,0.7934569716453552,2.563476324081421
664761,-0.035400390625,-0.03564453125,-0.521728515625,-15.014647483825684,0.30517578125,2.44140625
664778,-0.037353515625,-0.034423828125,-0.54638671875,-14.709471702575684,0.3662109076976776,2.50244140625
664795,-0.0404052734375,-0.038818359375,-0.6119384765625,-13.916014671325684,0.1220703050494194,2.50244140625
664827,-0.043212890625,-0.0452880859375,-0.692138671875,-12.817381858825684,0.7324218153953552,2.44140625
664875,-0.06884765625,-0.072021484375,-0.802978515625,-9.09423828125,-0.7324218153953552,2.50244140625
664897,-0.0770263671875,-0.0718994140625,-0.855224609375,-6.835937023162842,-0.4272460639476776,2.563476324081421
664914,-0.068115234375,-0.081787109375,-0.8408203125,-5.737304210662842,-0.4272460639476776,2.624511480331421
664947,-0.0640869140625,-0.1026611328125,-0.8668212890625,-1.7700194120407104,-1.9531248807907104,2.624511480331421
664964,-0.078857421875,-0.103759765625,-0.937744140625,0.54931640625,-1.8920897245407104,2.38037109375
664981,-0.0771484375,-0.0941162109375,-0.913818359375,1.6479490995407104,-1.6479490995407104,2.25830078125
664997,-0.072265625,-0.094482421875,-0.90380859375,3.723144292831421,-2.197265625,2.44140625
665022,-0.06982421875,-0.116455078125,-0.95751953125,5.798339366912842,-2.685546636581421,2.44140625
665038,-0.0665283203125,-0.12646484375,-0.9747314453125,7.934569835662842,-1.9531248807907104,2.01416015625
665055,-0.059326171875,-0.108154296875,-0.940185546875,9.033203125,-1.8920897245407104,1.8310545682907104
665072,-0.0592041015625,-0.100830078125,-0.931396484375,10.803221702575684,-2.44140625,1.8310545682907104
665089,-0.0625,-0.104736328125,-0.970703125,11.962889671325684,-2.624511480331421,1.8920897245407104
665122,-0.05322265625,-0.1256103515625,-1.010986328125,13.916014671325684,-2.25830078125,1.6479490995407104
665139,-0.0528564453125,-0.1263427734375,-1.0184326171875,15.014647483825684,-1.8310545682907104,1.2817381620407104
665160,-0.052001953125,-0.1134033203125,-1.0098876953125,15.869139671325684,-1.4648436307907104,0.9765624403953552
665176,-0.055908203125,-0.102294921875,-1.0015869140625,16.29638671875,-1.2817381620407104,0.9765624403953552
665243,-0.0556640625,-0.1004638671875,-1.008544921875,17.76123046875,-0.54931640625,0.54931640625
665260,-0.0540771484375,-0.1005859375,-1.000244140625,17.9443359375,-0.4882812201976776,0.4882812201976776
665276,-0.0546875,-0.0970458984375,-1.003173828125,18.12744140625,-0.6713866591453552,0.3662109076976776
665305,-0.0560302734375,-0.0986328125,-1.0203857421875,17.88330078125,0.0610351525247097,0.0610351525247097
665326,-0.055419921875,-0.0909423828125,-0.9786376953125,17.578125,0.0610351525247097,0.0
665342,-0.0556640625,-0.0849609375,-0.9661865234375,16.66259765625,-0.1220703050494194,-0.2441406100988388
665362,-0.052490234375,-0.0736083984375,-0.94189453125,15.502928733825684,-0.4272460639476776,-0.2441406100988388
665379,-0.0489501953125,-0.0703125,-0.9456787109375,13.977049827575684,-0.7934569716453552,-0.1220703050494194
665396,-0.0484619140625,-0.0748291015625,-0.96533203125,12.451170921325684,-0.54931640625,-0.2441406100988388
665428,-0.0469970703125,-0.066650390625,-0.9296875,10.253905296325684,-0.4882812201976776,-0.4882812201976776
665444,-0.04931640625,-0.06298828125,-0.941650390625,8.72802734375,-1.03759765625,-0.54931640625
665460,-0.0504150390625,-0.062255859375,-0.9617919921875,7.995604991912842,-1.03759765625,-0.54931640625
665476,-0.05126953125,-0.066650390625,-0.9879150390625,6.835937023162842,-0.6713866591453552,-0.6713866591453552
665496,-0.05078125,-0.0621337890625,-0.975341796875,5.859374523162842,-0.4882812201976776,-0.7934569716453552
665518,-0.0513916015625,-0.062255859375,-0.9697265625,5.371093273162842,-0.54931640625,-0.8544921278953552
665534,-0.05224609375,-0.0531005859375,-0.974853515625,4.150390625,-0.6103515625,-0.9765624403953552
665551,-0.052001953125,-0.052001953125,-0.9722900390625,2.929687261581421,-0.4882812201976776,-0.9155272841453552
665601,-0.049072265625,-0.053466796875,-0.9461669921875,-0.8544921278953552,-0.8544921278953552,-1.03759765625
665618,-0.0537109375,-0.05712890625,-0.9859619140625,-2.50244140625,-0.7934569716453552,-1.0986328125
665635,-0.0548095703125,-0.051025390625,-0.9794921875,-4.2724609375,-0.3662109076976776,-1.220703125
665665,-0.056640625,-0.0474853515625,-0.974853515625,-6.469726085662842,-0.8544921278953552,-1.0986328125
665687,-0.05712890625,-0.05078125,-0.990966796875,-7.019042491912842,-0.9155272841453552,-1.03759765625
665703,-0.05712890625,-0.0596923828125,-1.0123291015625,-7.812499523162842,-0.4882812201976776,-1.0986328125
665720,-0.0537109375,-0.0611572265625,-0.985595703125,-8.4228515625,-0.3662109076976776,-1.220703125
665737,-0.0550537109375,-0.061279296875,-0.978271484375,-8.72802734375,-0.54931640625,-1.220703125
665753,-0.05615234375,-0.0645751953125,-0.990234375,-9.27734375,-0.6103515625,-1.220703125
665787,-0.0516357421875,-0.0682373046875,-0.965087890625,-9.82666015625,-0.1220703050494194,-1.3427733182907104
665803,-0.0506591796875,-0.0704345703125,-0.9505615234375,-9.8876953125,-0.1831054538488388,-1.3427733182907104
665819,-0.0518798828125,-0.070556640625,-0.9559326171875,-9.765625,-0.4272460639476776,-1.4038084745407104
665855,-0.05419921875,-0.0750732421875,-0.9573974609375,-9.033203125,-0.1831054538488388,-1.2817381620407104
665871,-0.0533447265625,-0.076904296875,-0.9512939453125,-8.6669921875,-0.30517578125,-1.220703125
665887,-0.0538330078125,-0.0814208984375,-0.94677734375,-7.812499523162842,-0.2441406100988388,-1.2817381620407104
665903,-0.0533447265625,-0.080810546875,-0.9384765625,-7.385253429412842,-0.2441406100988388,-1.3427733182907104
665920,-0.0516357421875,-0.0809326171875,-0.9312744140625,-6.347655773162842,-0.4882812201976776,-1.3427733182907104
665941,-0.0528564453125,-0.08349609375,-0.9439697265625,-5.249022960662842,-0.6713866591453552,-1.2817381620407104
665957,-0.0537109375,-0.085205078125,-0.9488525390625,-4.69970703125,-0.54931640625,-1.2817381620407104
665974,-0.0533447265625,-0.084228515625,-0.9359130859375,-3.540038824081421,-0.2441406100988388,-1.3427733182907104
665991,-0.0496826171875,-0.078125,-0.89697265625,-2.50244140625,-0.30517578125,-1.3427733182907104
666024,-0.0455322265625,-0.0679931640625,-0.876708984375,-1.2817381620407104,-1.03759765625,-1.15966796875
666041,-0.044921875,-0.0687255859375,-0.886962890625,-0.4882812201976776,-1.0986328125,-1.03759765625
666057,-0.0455322265625,-0.0672607421875,-0.8927001953125,0.54931640625,-1.15966796875,-1.03759765625
666089,-0.0440673828125,-0.06494140625,-0.8802490234375,1.6479490995407104,-1.3427733182907104,-0.9155272841453552
666105,-0.0419921875,-0.05810546875,-0.87109375,1.9531248807907104,-1.4648436307907104,-0.9155272841453552
666121,-0.0430908203125,-0.05859375,-0.8856201171875,2.25830078125,-1.8920897245407104,-0.7324218153953552
666137,-0.0440673828125,-0.0643310546875,-0.9150390625,2.38037109375,-1.6479490995407104,-0.6713866591453552
666157,-0.04248046875,-0.0614013671875,-0.9044189453125,2.25830078125,-1.0986328125,-0.7324218153953552
666178,-0.0421142578125,-0.059326171875,-0.8843994140625,2.0751953125,-0.8544921278953552,-0.7324218153953552
666194,-0.0408935546875,-0.05029296875,-0.8297119140625,1.220703125,-0.8544921278953552,-0.6713866591453552
666211,-0.038330078125,-0.03759765625,-0.779296875,0.1220703050494194,-1.4038084745407104,-0.4882812201976776
666228,-0.0423583984375,-0.0291748046875,-0.8016357421875,-0.4272460639476776,-1.9531248807907104,-0.30517578125
666261,-0.05029296875,-0.051025390625,-0.947021484375,-1.4038084745407104,-2.624511480331421,0.30517578125
666278,-0.04931640625,-0.074951171875,-0.9886474609375,-0.8544921278953552,-1.3427733182907104,0.0610351525247097
666294,-0.0440673828125,-0.0704345703125,-0.9522705078125,-0.6103515625,-0.9765624403953552,-0.1220703050494194
666326,-0.037841796875,-0.0400390625,-0.9049072265625,-1.03759765625,-2.3193359375,0.0610351525247097
666347,-0.0386962890625,-0.0523681640625,-0.9422607421875,-1.220703125,-1.6479490995407104,0.1220703050494194
666371,-0.0333251953125,-0.0599365234375,-0.918212890625,-1.3427733182907104,-1.03759765625,0.0
666390,-0.02587890625,-0.0628662109375,-0.8829345703125,-1.5258787870407104,-0.9765624403953552,-0.0610351525247097
666440,-0.023193359375,-0.0516357421875,-0.92236328125,-3.417968511581421,-0.4882812201976776,0.0
666457,-0.0296630859375,-0.0723876953125,-0.9395751953125,-3.479003667831421,0.0610351525247097,0.0610351525247097
666473,-0.0283203125,-0.087158203125,-0.9310302734375,-3.479003667831421,0.4272460639476776,-0.0610351525247097
666505,-0.025634765625,-0.1085205078125,-0.903076171875,-3.417968511581421,0.4272460639476776,-0.54931640625
666521,-0.0281982421875,-0.1070556640625,-0.939208984375,-3.173827886581421,0.8544921278953552,-0.9155272841453552
666537,-0.0283203125,-0.0975341796875,-0.9434814453125,-2.624511480331421,1.5869139432907104,-0.9765624403953552
666570,-0.0289306640625,-0.098876953125,-0.8658447265625,-2.197265625,2.13623046875,-1.0986328125
666591,-0.0311279296875,-0.1136474609375,-0.8482666015625,-2.0751953125,1.7700194120407104,-1.15966796875
666607,-0.0399169921875,-0.14013671875,-0.96923828125,-1.4038084745407104,0.7324218153953552,-1.15966796875
666624,-0.0430908203125,-0.148681640625,-1.029541015625,0.4272460639476776,1.2817381620407104,-1.5869139432907104
666690,-0.050537109375,-0.10693359375,-0.926025390625,9.82666015625,2.197265625,-2.746581792831421
666707,-0.0556640625,-0.1021728515625,-0.9398193359375,10.620116233825684,1.7700194120407104,-2.685546636581421
666723,-0.056884765625,-0.10498046875,-0.949951171875,12.207030296325684,1.5869139432907104,-2.746581792831421
666739,-0.0546875,-0.1051025390625,-0.9425048828125,13.916014671325684,1.3427733182907104,-2.990722417831421
666756,-0.05322265625,-0.1011962890625,-0.947265625,14.709471702575684,1.0986328125,-3.112792730331421
666777,-0.0517578125,-0.080078125,-0.96826171875,15.869139671325684,0.54931640625,-3.051757574081421
666793,-0.06103515625,-0.075439453125,-1.0218505859375,16.66259765625,0.7324218153953552,-2.807616949081421
666813,-0.059814453125,-0.080078125,-0.97607421875,16.9677734375,1.03759765625,-2.807616949081421
666863,-0.0601806640625,-0.05078125,-0.9365234375,15.441893577575684,-0.7324218153953552,-2.38037109375
666880,-0.064453125,-0.0513916015625,-0.952880859375,14.526366233825684,-1.15966796875,-2.0751953125
666896,-0.0655517578125,-0.0504150390625,-0.9490966796875,14.099120140075684,-1.5258787870407104,-1.8310545682907104
666928,-0.075439453125,-0.0472412109375,-0.974365234375,13.488768577575684,-2.50244140625,-1.5869139432907104
666944,-0.07666015625,-0.037353515625,-0.96826171875,12.756346702575684,-3.234863042831421,-1.3427733182907104
666996,-0.0628662109375,-0.02734375,-0.95556640625,10.864256858825684,-5.981444835662842,-0.1831054538488388
667012,-0.0562744140625,-0.0218505859375,-0.969970703125,10.070799827575684,-7.080077648162842,0.1831054538488388
667028,-0.055908203125,-0.017578125,-0.9954833984375,9.70458984375,-7.629394054412842,0.4882812201976776
667044,-0.0560302734375,-0.0228271484375,-1.006591796875,8.60595703125,-8.056640625,1.03759765625
667061,-0.0487060546875,-0.019775390625,-0.9876708984375,7.751464366912842,-8.544921875,1.4038084745407104
667082,-0.046142578125,-0.020751953125,-0.984130859375,7.324218273162842,-8.97216796875,1.6479490995407104
667098,-0.04150390625,-0.01416015625,-1.0223388671875,6.225585460662842,-9.6435546875,1.9531248807907104
667115,-0.0350341796875,-0.0133056640625,-1.105224609375,5.920409679412842,-9.94873046875,2.50244140625
667132,-0.028564453125,-0.022216796875,-1.1787109375,5.920409679412842,-9.58251953125,2.685546636581421
667165,-0.019775390625,-0.024169921875,-1.1197509765625,4.94384765625,-7.690429210662842,3.051757574081421
667181,-0.0233154296875,-0.0111083984375,-1.141845703125,4.69970703125,-7.385253429412842,3.234863042831421
667197,-0.0264892578125,-0.0076904296875,-1.16845703125,4.57763671875,-6.713866710662842,3.295898199081421
667227,-0.010009765625,-0.0267333984375,-1.163818359375,3.479003667831421,-3.967284917831421,3.479003667831421
667248,-0.005126953125,-0.0247802734375,-1.1480712890625,2.25830078125,-2.50244140625,3.295898199081421
667265,-0.00830078125,-0.018310546875,-1.1702880859375,1.4038084745407104,-1.4038084745407104,3.356933355331421
667282,-0.0206298828125,-0.0167236328125,-1.181396484375,1.220703125,-0.30517578125,3.356933355331421
667298,-0.0238037109375,-0.02001953125,-1.1494140625,0.7934569716453552,1.4648436307907104,3.295898199081421
667315,-0.0360107421875,-0.02734375,-1.12255859375,-0.1831054538488388,2.44140625,3.112792730331421
667348,-0.033447265625,-0.017822265625,-1.0416259765625,-1.4038084745407104,3.417968511581421,2.929687261581421
667364,-0.033447265625,-0.01123046875,-1.04443359375,-2.50244140625,3.356933355331421,2.807616949081421
667380,-0.027587890625,-0.01171875,-1.0240478515625,-3.234863042831421,3.479003667831421,2.868652105331421
667396,-0.0277099609375,-0.01318359375,-1.0142822265625,-3.662109136581421,3.295898199081421,2.868652105331421
667415,-0.02685546875,-0.0108642578125,-1.01025390625,-4.69970703125,2.990722417831421,2.807616949081421
667472,-0.015869140625,-0.0194091796875,-1.0604248046875,-7.324218273162842,2.50244140625,2.807616949081421
667489,-0.005859375,-0.0164794921875,-1.032958984375,-8.97216796875,2.44140625,2.746581792831421
667505,-0.0025634765625,-0.012451171875,-0.988037109375,-11.108397483825684,1.8920897245407104,2.868652105331421
667522,-0.007568359375,-0.015625,-0.9722900390625,-12.756346702575684,0.9765624403953552,3.112792730331421
667539,-0.009765625,-0.0203857421875,-0.982177734375,-13.305663108825684,0.4272460639476776,3.173827886581421
667555,-0.0157470703125,-0.0318603515625,-1.0609130859375,-13.793944358825684,-0.0610351525247097,3.112792730331421
667585,-0.0145263671875,-0.056884765625,-1.067138671875,-14.221190452575684,0.8544921278953552,2.807616949081421
667607,-0.0142822265625,-0.055908203125,-1.0076904296875,-14.282225608825684,0.6103515625,2.624511480331421
667623,-0.0179443359375,-0.0535888671875,-0.992919921875,-14.221190452575684,0.30517578125,2.563476324081421
667640,-0.0179443359375,-0.0526123046875,-0.9912109375,-13.916014671325684,0.1220703050494194,2.563476324081421
667657,-0.0157470703125,-0.0592041015625,-0.9656982421875,-13.305663108825684,-0.3662109076976776,2.685546636581421
667674,-0.0233154296875,-0.071044921875,-1.005126953125,-12.512206077575684,-0.3662109076976776,2.44140625
667704,-0.026611328125,-0.069091796875,-0.986572265625,-10.375975608825684,-0.2441406100988388,2.3193359375
667721,-0.0262451171875,-0.07373046875,-0.9666748046875,-9.033203125,-0.6103515625,2.3193359375
667737,-0.026611328125,-0.0838623046875,-0.9794921875,-8.36181640625,-0.7934569716453552,2.25830078125
667769,-0.027099609375,-0.0947265625,-0.97216796875,-6.042479991912842,-0.6103515625,1.8310545682907104
667817,-0.0242919921875,-0.10791015625,-1.0274658203125,-1.7089842557907104,-1.5258787870407104,1.4038084745407104
667839,-0.0186767578125,-0.114501953125,-1.0072021484375,0.1220703050494194,-1.4648436307907104,1.0986328125
667856,-0.018798828125,-0.122802734375,-0.9942626953125,1.15966796875,-1.7089842557907104,0.9155272841453552
667893,-0.0130615234375,-0.1102294921875,-0.9798583984375,5.126952648162842,-2.38037109375,0.1220703050494194
667926,-0.013916015625,-0.0997314453125,-1.0057373046875,8.23974609375,-2.563476324081421,-0.54931640625
667959,-0.0167236328125,-0.0755615234375,-0.9599609375,10.009765625,-2.197265625,-0.8544921278953552
667976,-0.0458984375,-0.0926513671875,-1.2164306640625,10.314940452575684,-1.9531248807907104,-0.9765624403953552
668009,-0.0538330078125,-0.078369140625,-0.9862060546875,10.314940452575684,2.3193359375,-1.5869139432907104
668042,-0.0330810546875,-0.052734375,-0.975830078125,10.314940452575684,2.50244140625,-1.8310545682907104
668143,-0.0169677734375,-0.0400390625,-0.9765625,7.934569835662842,4.45556640625,-2.197265625
668177,-0.0281982421875,-0.0357666015625,-0.9735107421875,7.751464366912842,5.0048828125,-2.0751953125
668381,-0.0621337890625,-0.0396728515625,-1.01904296875,-4.0283203125,0.0610351525247097,0.4272460639476776
668398,-0.0404052734375,-0.049072265625,-0.965576171875,-4.08935546875,0.1831054538488388,0.2441406100988388
668415,-0.0316162109375,-0.03076171875,-0.9786376953125,-4.2724609375,-0.0610351525247097,0.1220703050494194
668465,-0.046630859375,-0.0440673828125,-0.9788818359375,-6.591796398162842,0.0,0.7324218153953552
668497,-0.039306640625,-0.0548095703125,-0.97705078125,-6.835937023162842,0.1831054538488388,0.6713866591453552
668514,-0.0400390625,-0.054931640625,-0.9771728515625,-6.774901866912842,0.30517578125,0.6713866591453552
668544,-0.0423583984375,-0.0589599609375,-0.97314453125,-6.469726085662842,0.1831054538488388,0.6103515625
