tMillis,ax,ay,az,gx,gy,gz
1295489,-0.0467529296875,-0.2225341796875,-0.95556640625,0.7324218153953552,-0.30517578125,0.2441406100988388
1295505,-0.045166015625,-0.2218017578125,-0.9560546875,0.6713866591453552,-0.3662109076976776,0.2441406100988388
1295522,-0.044921875,-0.221435546875,-0.9542236328125,0.7324218153953552,-0.2441406100988388,0.30517578125
1295543,-0.046630859375,-0.2210693359375,-0.955322265625,0.7934569716453552,-0.1831054538488388,0.2441406100988388
1295559,-0.0467529296875,-0.2216796875,-0.9534912109375,0.7324218153953552,-0.2441406100988388,0.2441406100988388
1295580,-0.0467529296875,-0.221923828125,-0.9544677734375,0.6713866591453552,-0.30517578125,0.1831054538488388
1295597,-0.0458984375,-0.22216796875,-0.956787109375,0.7324218153953552,-0.1831054538488388,0.2441406100988388
1295617,-0.0460205078125,-0.222900390625,-0.9547119140625,0.7324218153953552,-0.2441406100988388,0.1831054538488388
1295647,-0.046630859375,-0.221435546875,-0.9556884765625,0.7324218153953552,-0.2441406100988388,0.30517578125
1295668,-0.0460205078125,-0.221923828125,-0.956298828125,0.7324218153953552,-0.30517578125,0.30517578125
1295684,-0.04541015625,-0.2220458984375,-0.95458984375,0.7324218153953552,-0.30517578125,0.30517578125
1295701,-0.0452880859375,-0.2208251953125,-0.953369140625,0.7324218153953552,-0.2441406100988388,0.2441406100988388
1295767,-0.0462646484375,-0.221923828125,-0.9556884765625,0.7324218153953552,-0.2441406100988388,0.30517578125
1295783,-0.04638671875,-0.2225341796875,-0.9560546875,0.6713866591453552,-0.2441406100988388,0.30517578125
1295799,-0.04541015625,-0.222412109375,-0.9566650390625,0.7324218153953552,-0.30517578125,0.30517578125
1295831,-0.0457763671875,-0.2210693359375,-0.9544677734375,0.7934569716453552,-0.2441406100988388,0.30517578125
1295863,-0.045654296875,-0.2215576171875,-0.954833984375,0.6713866591453552,-0.30517578125,0.2441406100988388
1295905,-0.046630859375,-0.22119140625,-0.954833984375,0.7324218153953552,-0.2441406100988388,0.1831054538488388
1295922,-0.046142578125,-0.2220458984375,-0.9559326171875,0.7324218153953552,-0.2441406100988388,0.2441406100988388
1295939,-0.0458984375,-0.22119140625,-0.9554443359375,0.7324218153953552,-0.2441406100988388,0.30517578125
1295956,-0.0465087890625,-0.2208251953125,-0.9564208984375,0.7934569716453552,-0.30517578125,0.2441406100988388
1295972,-0.046142578125,-0.2208251953125,-0.957275390625,0.7324218153953552,-0.2441406100988388,0.2441406100988388
1296005,-0.0455322265625,-0.221435546875,-0.95458984375,0.6713866591453552,-0.30517578125,0.30517578125
1296021,-0.046630859375,-0.2216796875,-0.955322265625,0.7324218153953552,-0.30517578125,0.2441406100988388
1296037,-0.046142578125,-0.2220458984375,-0.957275390625,0.6713866591453552,-0.2441406100988388,0.2441406100988388
1296067,-0.046142578125,-0.22119140625,-0.95361328125,0.6713866591453552,-0.30517578125,0.1831054538488388
1296088,-0.0460205078125,-0.221435546875,-0.9552001953125,0.6713866591453552,-0.30517578125,0.2441406100988388
1296104,-0.0457763671875,-0.2213134765625,-0.9561767578125,0.7324218153953552,-0.2441406100988388,0.30517578125
1296121,-0.0458984375,-0.2220458984375,-0.9564208984375,0.7324218153953552,-0.2441406100988388,0.30517578125
1296138,-0.045654296875,-0.22119140625,-0.9552001953125,0.7324218153953552,-0.2441406100988388,0.2441406100988388
1296154,-0.0452880859375,-0.2203369140625,-0.955078125,0.6713866591453552,-0.30517578125,0.30517578125
1296188,-0.0457763671875,-0.2210693359375,-0.9559326171875,0.6713866591453552,-0.30517578125,0.30517578125
1296255,-0.0462646484375,-0.2222900390625,-0.9547119140625,0.7324218153953552,-0.2441406100988388,0.30517578125
1296277,-0.046630859375,-0.2218017578125,-0.95361328125,0.7324218153953552,-0.2441406100988388,0.2441406100988388
1296293,-0.046142578125,-0.2210693359375,-0.95703125,0.7324218153953552,-0.2441406100988388,0.30517578125
1296313,-0.0450439453125,-0.221923828125,-0.9556884765625,0.7324218153953552,-0.2441406100988388,0.30517578125
1296363,-0.044921875,-0.2210693359375,-0.9552001953125,0.7324218153953552,-0.30517578125,0.2441406100988388
1296386,-0.0467529296875,-0.221435546875,-0.955078125,0.7324218153953552,-0.30517578125,0.2441406100988388
1296403,-0.0457763671875,-0.220458984375,-0.954345703125,0.7324218153953552,-0.30517578125,0.2441406100988388
1296420,-0.045654296875,-0.222900390625,-0.95654296875,0.7934569716453552,-0.30517578125,0.2441406100988388
1296436,-0.0457763671875,-0.2230224609375,-0.956298828125,0.7934569716453552,-0.30517578125,0.2441406100988388
1296453,-0.04638671875,-0.22216796875,-0.9561767578125,0.7324218153953552,-0.30517578125,0.2441406100988388
1296486,-0.044921875,-0.2216796875,-0.955810546875,0.7934569716453552,-0.30517578125,0.2441406100988388
1296502,-0.04541015625,-0.221923828125,-0.9552001953125,0.7324218153953552,-0.2441406100988388,0.2441406100988388
1296518,-0.046630859375,-0.22119140625,-0.95556640625,0.7324218153953552,-0.2441406100988388,0.1831054538488388
1296547,-0.04638671875,-0.221435546875,-0.9560546875,0.7934569716453552,-0.30517578125,0.2441406100988388
1296569,-0.04638671875,-0.22119140625,-0.95703125,0.7324218153953552,-0.30517578125,0.2441406100988388
1296585,-0.0458984375,-0.22216796875,-0.955322265625,0.7324218153953552,-0.2441406100988388,0.30517578125
1296602,-0.0458984375,-0.22265625,-0.9564208984375,0.7324218153953552,-0.2441406100988388,0.30517578125
1296619,-0.0477294921875,-0.2215576171875,-0.9556884765625,0.6713866591453552,-0.30517578125,0.2441406100988388
1296635,-0.0477294921875,-0.220947265625,-0.955322265625,0.7324218153953552,-0.30517578125,0.2441406100988388
1296666,-0.0462646484375,-0.2220458984375,-0.957275390625,0.7324218153953552,-0.2441406100988388,0.30517578125
1296688,-0.046875,-0.2222900390625,-0.9569091796875,0.7324218153953552,-0.2441406100988388,0.2441406100988388
1296704,-0.0469970703125,-0.2222900390625,-0.9554443359375,0.7324218153953552,-0.30517578125,0.2441406100988388
1296721,-0.0465087890625,-0.2215576171875,-0.9560546875,0.6713866591453552,-0.2441406100988388,0.30517578125
1296738,-0.0458984375,-0.220947265625,-0.9542236328125,0.7324218153953552,-0.30517578125,0.2441406100988388
1296754,-0.04541015625,-0.2200927734375,-0.9560546875,0.7324218153953552,-0.2441406100988388,0.2441406100988388
1296787,-0.0472412109375,-0.2218017578125,-0.9547119140625,0.7934569716453552,-0.3662109076976776,0.30517578125
1296809,-0.0462646484375,-0.2213134765625,-0.9554443359375,0.7934569716453552,-0.30517578125,0.30517578125
1296845,-0.0462646484375,-0.2216796875,-0.9571533203125,0.7324218153953552,-0.30517578125,0.2441406100988388
1296866,-0.0457763671875,-0.22216796875,-0.956787109375,0.7934569716453552,-0.30517578125,0.2441406100988388
1296887,-0.0465087890625,-0.22021484375,-0.9530029296875,0.7324218153953552,-0.30517578125,0.3662109076976776
1296903,-0.04541015625,-0.2222900390625,-0.9560546875,0.7324218153953552,-0.30517578125,0.30517578125
1296924,-0.04541015625,-0.2220458984375,-0.95751953125,0.6713866591453552,-0.2441406100988388,0.2441406100988388
1296941,-0.046142578125,-0.2213134765625,-0.9554443359375,0.7324218153953552,-0.30517578125,0.30517578125
1296957,-0.046142578125,-0.22119140625,-0.955322265625,0.7324218153953552,-0.30517578125,0.30517578125
1296977,-0.0457763671875,-0.221435546875,-0.95654296875,0.6713866591453552,-0.30517578125,0.2441406100988388
1296999,-0.0458984375,-0.2222900390625,-0.95703125,0.7324218153953552,-0.2441406100988388,0.2441406100988388
1297015,-0.046630859375,-0.221923828125,-0.9560546875,0.7324218153953552,-0.2441406100988388,0.2441406100988388
1297033,-0.0465087890625,-0.221923828125,-0.953369140625,0.7324218153953552,-0.30517578125,0.2441406100988388
1297050,-0.0450439453125,-0.22265625,-0.9552001953125,0.7934569716453552,-0.2441406100988388,0.1831054538488388
1297083,-0.0472412109375,-0.219970703125,-0.955322265625,0.7934569716453552,-0.30517578125,0.2441406100988388
1297100,-0.0458984375,-0.221923828125,-0.9569091796875,0.7934569716453552,-0.2441406100988388,0.1831054538488388
1297116,-0.04638671875,-0.2227783203125,-0.955810546875,0.7324218153953552,-0.2441406100988388,0.1831054538488388
1297147,-0.0462646484375,-0.221923828125,-0.955078125,0.7324218153953552,-0.30517578125,0.2441406100988388
1297168,-0.046630859375,-0.2218017578125,-0.955810546875,0.7324218153953552,-0.2441406100988388,0.30517578125
1297185,-0.047119140625,-0.221923828125,-0.9560546875,0.7324218153953552,-0.30517578125,0.30517578125
1297202,-0.04541015625,-0.2213134765625,-0.95654296875,0.7324218153953552,-0.2441406100988388,0.2441406100988388
1297219,-0.045166015625,-0.2218017578125,-0.95556640625,0.7324218153953552,-0.2441406100988388,0.30517578125
1297235,-0.04736328125,-0.2215576171875,-0.9566650390625,0.6713866591453552,-0.2441406100988388,0.30517578125
1297267,-0.0462646484375,-0.22119140625,-0.9530029296875,0.7934569716453552,-0.30517578125,0.30517578125
1297288,-0.0460205078125,-0.221923828125,-0.9591064453125,0.7324218153953552,-0.2441406100988388,0.2441406100988388
1297305,-0.0445556640625,-0.2216796875,-0.9544677734375,0.7324218153953552,-0.2441406100988388,0.1831054538488388
1297322,-0.046630859375,-0.2215576171875,-0.9537353515625,0.7324218153953552,-0.1831054538488388,0.2441406100988388
1297339,-0.0467529296875,-0.2220458984375,-0.9564208984375,0.7324218153953552,-0.2441406100988388,0.2441406100988388
1297355,-0.0455322265625,-0.2215576171875,-0.95654296875,0.6713866591453552,-0.2441406100988388,0.2441406100988388
1297388,-0.0472412109375,-0.22216796875,-0.9576416015625,0.7324218153953552,-0.2441406100988388,0.30517578125
1297404,-0.044921875,-0.2210693359375,-0.9554443359375,0.7324218153953552,-0.2441406100988388,0.1831054538488388
1297420,-0.0457763671875,-0.2218017578125,-0.953369140625,0.7324218153953552,-0.2441406100988388,0.2441406100988388
1297456,-0.046630859375,-0.220947265625,-0.9559326171875,0.6713866591453552,-0.2441406100988388,0.1831054538488388
1297472,-0.0458984375,-0.2215576171875,-0.9542236328125,0.6713866591453552,-0.2441406100988388,0.30517578125
1297488,-0.0458984375,-0.221435546875,-0.9571533203125,0.6713866591453552,-0.2441406100988388,0.30517578125
1297504,-0.044921875,-0.22119140625,-0.9552001953125,0.6713866591453552,-0.2441406100988388,0.1831054538488388
1297521,-0.0462646484375,-0.221435546875,-0.952392578125,0.6713866591453552,-0.2441406100988388,0.1831054538488388
1297542,-0.0472412109375,-0.2220458984375,-0.9588623046875,0.6713866591453552,-0.2441406100988388,0.2441406100988388
1297558,-0.0439453125,-0.2203369140625,-0.9547119140625,0.6713866591453552,-0.2441406100988388,0.2441406100988388
1297575,-0.0472412109375,-0.2210693359375,-0.9521484375,0.6103515625,-0.30517578125,0.2441406100988388
1297592,-0.047607421875,-0.2220458984375,-0.9561767578125,0.6103515625,-0.2441406100988388,0.2441406100988388
1297625,-0.0462646484375,-0.2220458984375,-0.9527587890625,0.7324218153953552,-0.30517578125,0.30517578125
1297642,-0.0472412109375,-0.2220458984375,-0.958984375,0.6713866591453552,-0.30517578125,0.2441406100988388
1297658,-0.045654296875,-0.221435546875,-0.95751953125,0.6713866591453552,-0.30517578125,0.30517578125
1297687,-0.045654296875,-0.222900390625,-0.9569091796875,0.6103515625,-0.2441406100988388,0.1831054538488388
1297709,-0.04541015625,-0.2213134765625,-0.9537353515625,0.6713866591453552,-0.30517578125,0.30517578125
1297725,-0.0457763671875,-0.2220458984375,-0.9542236328125,0.7324218153953552,-0.30517578125,0.30517578125
1297742,-0.0457763671875,-0.22314453125,-0.9576416015625,0.6713866591453552,-0.2441406100988388,0.2441406100988388
1297759,-0.045654296875,-0.22216796875,-0.9530029296875,0.6103515625,-0.1831054538488388,0.2441406100988388
1297775,-0.04736328125,-0.222412109375,-0.9566650390625,0.6713866591453552,-0.2441406100988388,0.2441406100988388
1297809,-0.045166015625,-0.2171630859375,-0.93701171875,0.6713866591453552,-0.3662109076976776,0.30517578125
1297825,-0.0477294921875,-0.229248046875,-0.990478515625,0.7324218153953552,-0.1220703050494194,0.1831054538488388
1297841,-0.0439453125,-0.225341796875,-0.970703125,0.7324218153953552,-0.1220703050494194,0.1831054538488388
1297857,-0.0474853515625,-0.2178955078125,-0.936279296875,0.7324218153953552,-0.30517578125,0.2441406100988388
1297877,-0.046875,-0.2255859375,-0.9658203125,0.7324218153953552,-0.1831054538488388,0.2441406100988388
1297899,-0.04345703125,-0.2213134765625,-0.94775390625,0.7324218153953552,-0.30517578125,0.1831054538488388
1297915,-0.04736328125,-0.2215576171875,-0.958984375,0.7324218153953552,-0.30517578125,0.2441406100988388
1297934,-0.0467529296875,-0.2216796875,-0.953857421875,0.7324218153953552,-0.2441406100988388,0.2441406100988388
1297951,-0.046142578125,-0.2213134765625,-0.953857421875,0.7324218153953552,-0.30517578125,0.2441406100988388
1297987,-0.0460205078125,-0.2218017578125,-0.9547119140625,0.7324218153953552,-0.30517578125,0.2441406100988388
1298004,-0.0472412109375,-0.220947265625,-0.9578857421875,0.7934569716453552,-0.2441406100988388,0.30517578125
1298020,-0.046630859375,-0.2213134765625,-0.958251953125,0.8544921278953552,-0.2441406100988388,0.30517578125
1298056,-0.04638671875,-0.2222900390625,-0.959228515625,0.7934569716453552,-0.30517578125,0.1831054538488388
1298072,-0.0452880859375,-0.222900390625,-0.9622802734375,0.7934569716453552,-0.30517578125,0.2441406100988388
1298088,-0.045654296875,-0.2205810546875,-0.953857421875,0.7324218153953552,-0.2441406100988388,0.30517578125
1298104,-0.0472412109375,-0.221435546875,-0.95703125,0.6713866591453552,-0.30517578125,0.2441406100988388
1298121,-0.0447998046875,-0.221435546875,-0.9595947265625,0.6713866591453552,-0.30517578125,0.2441406100988388
1298142,-0.043701171875,-0.221923828125,-0.9521484375,0.7324218153953552,-0.30517578125,0.2441406100988388
1298158,-0.0494384765625,-0.2227783203125,-0.9580078125,0.7934569716453552,-0.30517578125,0.2441406100988388
1298176,-0.0460205078125,-0.22119140625,-0.9532470703125,0.7324218153953552,-0.30517578125,0.2441406100988388
1298193,-0.0443115234375,-0.2200927734375,-0.950439453125,0.7324218153953552,-0.30517578125,0.2441406100988388
1298226,-0.0465087890625,-0.2220458984375,-0.9532470703125,0.6713866591453552,-0.30517578125,0.2441406100988388
1298242,-0.0455322265625,-0.2218017578125,-0.9510498046875,0.6713866591453552,-0.30517578125,0.2441406100988388
1298258,-0.0450439453125,-0.2210693359375,-0.9537353515625,0.6713866591453552,-0.3662109076976776,0.30517578125
1298287,-0.0457763671875,-0.2215576171875,-0.958984375,0.7324218153953552,-0.2441406100988388,0.2441406100988388
1298309,-0.046142578125,-0.2208251953125,-0.951904296875,0.6713866591453552,-0.2441406100988388,0.1831054538488388
1298325,-0.0477294921875,-0.2235107421875,-0.9613037109375,0.6713866591453552,-0.30517578125,0.2441406100988388
1298342,-0.04541015625,-0.2208251953125,-0.9495849609375,0.7324218153953552,-0.30517578125,0.30517578125
1298359,-0.04443359375,-0.222412109375,-0.955078125,0.7324218153953552,-0.30517578125,0.30517578125
1298375,-0.0452880859375,-0.2222900390625,-0.951416015625,0.6103515625,-0.2441406100988388,0.2441406100988388
1298407,-0.0467529296875,-0.22265625,-0.96337890625,0.6103515625,-0.30517578125,0.2441406100988388
1298429,-0.0462646484375,-0.2208251953125,-0.955322265625,0.6713866591453552,-0.30517578125,0.2441406100988388
1298445,-0.045654296875,-0.2210693359375,-0.9537353515625,0.7324218153953552,-0.2441406100988388,0.30517578125
1298462,-0.04541015625,-0.22119140625,-0.9503173828125,0.7324218153953552,-0.1831054538488388,0.2441406100988388
1298479,-0.047119140625,-0.220947265625,-0.95166015625,0.6713866591453552,-0.2441406100988388,0.30517578125
1298495,-0.045654296875,-0.222900390625,-0.9610595703125,0.6713866591453552,-0.2441406100988388,0.2441406100988388
1298529,-0.0467529296875,-0.22119140625,-0.95654296875,0.7324218153953552,-0.30517578125,0.2441406100988388
1298545,-0.0443115234375,-0.2222900390625,-0.95751953125,0.7324218153953552,-0.2441406100988388,0.2441406100988388
1298561,-0.0443115234375,-0.2237548828125,-0.96044921875,0.7324218153953552,-0.2441406100988388,0.30517578125
1298597,-0.0462646484375,-0.2208251953125,-0.951416015625,0.6713866591453552,-0.1831054538488388,0.1831054538488388
1298613,-0.0452880859375,-0.2210693359375,-0.9534912109375,0.6713866591453552,-0.1831054538488388,0.1831054538488388
1298629,-0.0443115234375,-0.218994140625,-0.943115234375,0.7324218153953552,-0.2441406100988388,0.2441406100988388
1298645,-0.048583984375,-0.224853515625,-0.9732666015625,0.7324218153953552,-0.30517578125,0.2441406100988388
1298667,-0.0474853515625,-0.22802734375,-0.98681640625,0.7324218153953552,-0.2441406100988388,0.1831054538488388
1298683,-0.0438232421875,-0.2161865234375,-0.9366455078125,0.7324218153953552,-0.30517578125,0.30517578125
1298700,-0.048095703125,-0.2225341796875,-0.958251953125,0.7324218153953552,-0.30517578125,0.30517578125
1298762,-0.0460205078125,-0.2203369140625,-0.95556640625,0.7324218153953552,-0.2441406100988388,0.2441406100988388
1298785,-0.0458984375,-0.2203369140625,-0.9556884765625,0.7324218153953552,-0.2441406100988388,0.1220703050494194
1298819,-0.04638671875,-0.2216796875,-0.9573974609375,0.7324218153953552,-0.30517578125,0.2441406100988388
1298843,-0.046142578125,-0.2198486328125,-0.957275390625,0.7324218153953552,-0.2441406100988388,0.2441406100988388
1298860,-0.0452880859375,-0.2213134765625,-0.955078125,0.7324218153953552,-0.2441406100988388,0.1831054538488388
1298876,-0.04541015625,-0.221435546875,-0.9549560546875,0.7324218153953552,-0.30517578125,0.1831054538488388
1298926,-0.0458984375,-0.220703125,-0.9527587890625,0.7324218153953552,-0.30517578125,0.2441406100988388
1298958,-0.0455322265625,-0.220947265625,-0.9547119140625,0.7324218153953552,-0.2441406100988388,0.2441406100988388
1298975,-0.0460205078125,-0.2222900390625,-0.958984375,0.7324218153953552,-0.2441406100988388,0.1831054538488388
1299006,-0.04638671875,-0.2213134765625,-0.95458984375,0.7934569716453552,-0.30517578125,0.30517578125
1299022,-0.046630859375,-0.221435546875,-0.9539794921875,0.7324218153953552,-0.30517578125,0.1831054538488388
1299038,-0.0452880859375,-0.2220458984375,-0.9532470703125,0.7324218153953552,-0.2441406100988388,0.1831054538488388
1299071,-0.046630859375,-0.2215576171875,-0.9573974609375,0.6713866591453552,-0.2441406100988388,0.2441406100988388
1299087,-0.0457763671875,-0.222900390625,-0.9571533203125,0.6713866591453552,-0.2441406100988388,0.30517578125
1299103,-0.045166015625,-0.2220458984375,-0.956787109375,0.7324218153953552,-0.2441406100988388,0.30517578125
1299119,-0.0457763671875,-0.2200927734375,-0.9539794921875,0.7324218153953552,-0.3662109076976776,0.2441406100988388
1299140,-0.0465087890625,-0.22216796875,-0.956787109375,0.7324218153953552,-0.30517578125,0.2441406100988388
1299161,-0.04541015625,-0.221923828125,-0.9559326171875,0.7324218153953552,-0.2441406100988388,0.2441406100988388
1299182,-0.0457763671875,-0.2210693359375,-0.9566650390625,0.7324218153953552,-0.30517578125,0.30517578125
1299202,-0.0460205078125,-0.2203369140625,-0.9539794921875,0.6713866591453552,-0.30517578125,0.30517578125
1299223,-0.0467529296875,-0.22216796875,-0.9556884765625,0.7324218153953552,-0.2441406100988388,0.30517578125
1299242,-0.045654296875,-0.2220458984375,-0.9547119140625,0.6713866591453552,-0.2441406100988388,0.2441406100988388
1299308,-0.0447998046875,-0.2205810546875,-0.9556884765625,0.7324218153953552,-0.2441406100988388,0.2441406100988388
1299324,-0.0450439453125,-0.221435546875,-0.9571533203125,0.7934569716453552,-0.2441406100988388,0.2441406100988388
1299340,-0.046630859375,-0.22216796875,-0.9573974609375,0.7324218153953552,-0.2441406100988388,0.1831054538488388
1299374,-0.046875,-0.2220458984375,-0.95703125,0.7324218153953552,-0.2441406100988388,0.30517578125
1299396,-0.0447998046875,-0.2216796875,-0.9520263671875,0.7934569716453552,-0.2441406100988388,0.2441406100988388
1299412,-0.0460205078125,-0.2225341796875,-0.958740234375,0.7934569716453552,-0.30517578125,0.2441406100988388
1299433,-0.046142578125,-0.2215576171875,-0.9554443359375,0.6713866591453552,-0.2441406100988388,0.2441406100988388
1299450,-0.0460205078125,-0.220703125,-0.954833984375,0.7324218153953552,-0.30517578125,0.2441406100988388
1299466,-0.0467529296875,-0.2213134765625,-0.9561767578125,0.7324218153953552,-0.30517578125,0.2441406100988388
1299483,-0.0455322265625,-0.220703125,-0.95654296875,0.7324218153953552,-0.2441406100988388,0.2441406100988388
1299500,-0.046142578125,-0.2225341796875,-0.955322265625,0.7934569716453552,-0.30517578125,0.2441406100988388
1299516,-0.04638671875,-0.2235107421875,-0.95654296875,0.7934569716453552,-0.30517578125,0.2441406100988388
1299548,-0.047607421875,-0.22119140625,-0.9532470703125,0.7934569716453552,-0.2441406100988388,0.30517578125
1299569,-0.0472412109375,-0.2210693359375,-0.953857421875,0.7934569716453552,-0.30517578125,0.2441406100988388
1299585,-0.045166015625,-0.221435546875,-0.9569091796875,0.6713866591453552,-0.2441406100988388,0.2441406100988388
1299602,-0.04736328125,-0.2220458984375,-0.957763671875,0.6713866591453552,-0.30517578125,0.30517578125
1299619,-0.046142578125,-0.2210693359375,-0.955810546875,0.7934569716453552,-0.3662109076976776,0.2441406100988388
1299635,-0.0452880859375,-0.2213134765625,-0.9541015625,0.7934569716453552,-0.30517578125,0.2441406100988388
1299669,-0.0472412109375,-0.2215576171875,-0.9527587890625,0.8544921278953552,-0.30517578125,0.30517578125
1299685,-0.0469970703125,-0.2200927734375,-0.9495849609375,0.9155272841453552,-0.30517578125,0.1831054538488388
1299701,-0.0460205078125,-0.22119140625,-0.9580078125,0.9765624403953552,-0.30517578125,0.1220703050494194
1299742,-0.044921875,-0.22021484375,-0.9483642578125,1.03759765625,-0.3662109076976776,0.2441406100988388
1299758,-0.051025390625,-0.2242431640625,-0.9671630859375,0.9765624403953552,-0.3662109076976776,0.2441406100988388
1299775,-0.04248046875,-0.218017578125,-0.944091796875,0.8544921278953552,-0.2441406100988388,0.2441406100988388
1299796,-0.045166015625,-0.2200927734375,-0.9627685546875,0.8544921278953552,-0.30517578125,0.1831054538488388
1299812,-0.0472412109375,-0.219482421875,-0.9495849609375,0.8544921278953552,-0.1831054538488388,0.1831054538488388
1299829,-0.0482177734375,-0.2227783203125,-0.9588623046875,0.8544921278953552,-0.30517578125,0.30517578125
1299846,-0.047607421875,-0.2247314453125,-0.9703369140625,0.7934569716453552,-0.30517578125,0.30517578125
1299862,-0.0428466796875,-0.2166748046875,-0.940185546875,0.7934569716453552,-0.2441406100988388,0.2441406100988388
1299878,-0.046630859375,-0.2181396484375,-0.94873046875,0.7324218153953552,-0.2441406100988388,0.2441406100988388
1299908,-0.0447998046875,-0.2225341796875,-0.951904296875,0.6103515625,-0.2441406100988388,0.2441406100988388
1299929,-0.0457763671875,-0.223876953125,-0.95751953125,0.54931640625,-0.30517578125,0.2441406100988388
1299946,-0.045166015625,-0.2205810546875,-0.9541015625,0.6103515625,-0.2441406100988388,0.2441406100988388
1299996,-0.046142578125,-0.220458984375,-0.9532470703125,0.6103515625,-0.2441406100988388,0.30517578125
1300039,-0.0460205078125,-0.220458984375,-0.9581298828125,0.54931640625,-0.1831054538488388,0.2441406100988388
1300056,-0.04736328125,-0.221923828125,-0.9595947265625,0.4882812201976776,-0.1831054538488388,0.2441406100988388
1300086,-0.0439453125,-0.2222900390625,-0.9521484375,0.54931640625,-0.1831054538488388,0.30517578125
1300103,-0.0450439453125,-0.2237548828125,-0.958740234375,0.4882812201976776,-0.1831054538488388,0.2441406100988388
1300119,-0.046142578125,-0.22119140625,-0.9554443359375,0.54931640625,-0.1831054538488388,0.2441406100988388
1300150,-0.0467529296875,-0.22119140625,-0.9539794921875,0.54931640625,-0.30517578125,0.30517578125
1300172,-0.045654296875,-0.22216796875,-0.9556884765625,0.6103515625,-0.2441406100988388,0.30517578125
1300188,-0.0443115234375,-0.2216796875,-0.950439453125,0.6103515625,-0.1831054538488388,0.2441406100988388
1300206,-0.04736328125,-0.2216796875,-0.9525146484375,0.6713866591453552,-0.30517578125,0.2441406100988388
1300223,-0.0484619140625,-0.219970703125,-0.9459228515625,0.6713866591453552,-0.3662109076976776,0.30517578125
1300239,-0.043212890625,-0.215087890625,-0.9193115234375,0.7324218153953552,-0.3662109076976776,0.2441406100988388
1300276,-0.0501708984375,-0.2119140625,-0.9132080078125,0.7324218153953552,-0.3662109076976776,0.30517578125
1300292,-0.0504150390625,-0.226806640625,-0.9713134765625,0.7934569716453552,-0.2441406100988388,0.30517578125
1300308,-0.040771484375,-0.2216796875,-0.9488525390625,0.7934569716453552,-0.2441406100988388,0.30517578125
1300324,-0.046142578125,-0.222900390625,-0.9617919921875,0.7934569716453552,-0.4272460639476776,0.30517578125
1300388,-0.0443115234375,-0.2203369140625,-0.9439697265625,0.8544921278953552,-0.3662109076976776,0.30517578125
1300404,-0.0457763671875,-0.2222900390625,-0.9571533203125,0.8544921278953552,-0.2441406100988388,0.30517578125
1300420,-0.044677734375,-0.2197265625,-0.9495849609375,0.8544921278953552,-0.2441406100988388,0.30517578125
1300453,-0.0462646484375,-0.2215576171875,-0.953125,0.9155272841453552,-0.30517578125,0.30517578125
1300474,-0.0458984375,-0.2191162109375,-0.9488525390625,0.9155272841453552,-0.30517578125,0.30517578125
1300490,-0.0445556640625,-0.2225341796875,-0.9576416015625,0.9155272841453552,-0.2441406100988388,0.2441406100988388
1300504,-0.0482177734375,-0.2264404296875,-0.974609375,0.8544921278953552,-0.3662109076976776,0.30517578125
1300521,-0.049072265625,-0.214111328125,-0.9251708984375,0.8544921278953552,-0.3662109076976776,0.2441406100988388
1300537,-0.0428466796875,-0.219482421875,-0.9451904296875,0.9155272841453552,-0.2441406100988388,0.1831054538488388
1300571,-0.0472412109375,-0.22119140625,-0.95068359375,0.8544921278953552,-0.3662109076976776,0.2441406100988388
1300587,-0.0531005859375,-0.2171630859375,-0.9415283203125,0.7324218153953552,-0.30517578125,0.2441406100988388
1300603,-0.03955078125,-0.2230224609375,-0.9656982421875,0.7934569716453552,-0.1831054538488388,0.2441406100988388
1300619,-0.0367431640625,-0.2210693359375,-0.948974609375,0.7934569716453552,-0.30517578125,0.30517578125
1300644,-0.05078125,-0.22119140625,-0.951904296875,0.7934569716453552,-0.1831054538488388,0.30517578125
1300660,-0.0494384765625,-0.220947265625,-0.96044921875,0.7324218153953552,-0.2441406100988388,0.1831054538488388
1300677,-0.04296875,-0.220947265625,-0.955322265625,0.7934569716453552,-0.3662109076976776,0.2441406100988388
1300727,-0.0489501953125,-0.2216796875,-0.9569091796875,0.6713866591453552,-0.30517578125,0.2441406100988388
1300759,-0.0447998046875,-0.2197265625,-0.95166015625,0.54931640625,-0.2441406100988388,0.2441406100988388
1300776,-0.04541015625,-0.2169189453125,-0.934814453125,0.54931640625,-0.2441406100988388,0.2441406100988388
1300806,-0.04736328125,-0.2392578125,-1.0330810546875,0.6103515625,0.0,0.1831054538488388
1300823,-0.042236328125,-0.2056884765625,-0.8934326171875,0.6103515625,-0.3662109076976776,0.30517578125
1300839,-0.05224609375,-0.2144775390625,-0.9383544921875,0.6103515625,-0.4882812201976776,0.30517578125
1300871,-0.03369140625,-0.21923828125,-0.9342041015625,0.4882812201976776,-0.1831054538488388,0.2441406100988388
1300887,-0.046142578125,-0.22265625,-0.9639892578125,0.54931640625,-0.2441406100988388,0.2441406100988388
1300903,-0.052734375,-0.223388671875,-0.9581298828125,0.6713866591453552,-0.2441406100988388,0.2441406100988388
1300919,-0.04931640625,-0.2183837890625,-0.94921875,0.6103515625,-0.30517578125,0.30517578125
1300973,-0.0467529296875,-0.219970703125,-0.9459228515625,0.6713866591453552,-0.2441406100988388,0.1831054538488388
1300999,-0.04736328125,-0.223388671875,-0.9632568359375,0.7324218153953552,-0.30517578125,0.1831054538488388
1301016,-0.0452880859375,-0.2197265625,-0.94970703125,0.6713866591453552,-0.30517578125,0.1831054538488388
1301049,-0.0458984375,-0.223876953125,-0.958251953125,0.6713866591453552,-0.2441406100988388,0.2441406100988388
1301082,-0.0472412109375,-0.2193603515625,-0.9534912109375,0.7324218153953552,-0.30517578125,0.1831054538488388
1301125,-0.048583984375,-0.222412109375,-0.95068359375,0.6713866591453552,-0.30517578125,0.30517578125
1301142,-0.0484619140625,-0.22265625,-0.95458984375,0.7324218153953552,-0.30517578125,0.3662109076976776
1301159,-0.0443115234375,-0.2230224609375,-0.9561767578125,0.7324218153953552,-0.2441406100988388,0.2441406100988388
1301176,-0.0458984375,-0.2205810546875,-0.953857421875,0.7934569716453552,-0.2441406100988388,0.2441406100988388
1301192,-0.0479736328125,-0.2235107421875,-0.9578857421875,0.7324218153953552,-0.2441406100988388,0.2441406100988388
1301225,-0.0447998046875,-0.2237548828125,-0.958740234375,0.9155272841453552,-0.30517578125,0.30517578125
1301242,-0.04541015625,-0.22412109375,-0.961181640625,0.9765624403953552,-0.30517578125,0.30517578125
1301263,-0.047119140625,-0.2215576171875,-0.948974609375,1.03759765625,-0.2441406100988388,0.2441406100988388
1301279,-0.0465087890625,-0.221435546875,-0.954345703125,1.0986328125,-0.2441406100988388,0.30517578125
1301296,-0.044921875,-0.222900390625,-0.9595947265625,1.15966796875,-0.30517578125,0.2441406100988388
1301313,-0.0452880859375,-0.22216796875,-0.953857421875,1.220703125,-0.3662109076976776,0.2441406100988388
1301346,-0.046875,-0.219970703125,-0.9560546875,1.15966796875,-0.2441406100988388,0.2441406100988388
1301362,-0.0462646484375,-0.2186279296875,-0.9547119140625,1.15966796875,-0.2441406100988388,0.2441406100988388
1301378,-0.0452880859375,-0.220947265625,-0.9564208984375,1.03759765625,-0.2441406100988388,0.2441406100988388
1301408,-0.046630859375,-0.2208251953125,-0.9556884765625,1.03759765625,-0.30517578125,0.2441406100988388
1301429,-0.04736328125,-0.2193603515625,-0.95849609375,1.03759765625,-0.30517578125,0.2441406100988388
1301446,-0.0462646484375,-0.21923828125,-0.953369140625,0.9155272841453552,-0.2441406100988388,0.30517578125
1301463,-0.0460205078125,-0.21923828125,-0.952880859375,0.8544921278953552,-0.30517578125,0.3662109076976776
1301480,-0.0460205078125,-0.2210693359375,-0.95654296875,0.8544921278953552,-0.2441406100988388,0.1831054538488388
1301501,-0.0452880859375,-0.220703125,-0.956787109375,0.7324218153953552,-0.2441406100988388,0.2441406100988388
1301517,-0.045654296875,-0.2208251953125,-0.9571533203125,0.7324218153953552,-0.30517578125,0.30517578125
1301537,-0.0458984375,-0.2210693359375,-0.95361328125,0.8544921278953552,-0.2441406100988388,0.2441406100988388
1301559,-0.046875,-0.22216796875,-0.957763671875,0.8544921278953552,-0.2441406100988388,0.1831054538488388
1301579,-0.0465087890625,-0.2178955078125,-0.9560546875,0.9155272841453552,-0.2441406100988388,0.30517578125
1301596,-0.0447998046875,-0.2205810546875,-0.9559326171875,0.9155272841453552,-0.2441406100988388,0.2441406100988388
1301612,-0.0443115234375,-0.2237548828125,-0.9541015625,1.220703125,-0.30517578125,0.3662109076976776
1301643,-0.0472412109375,-0.2237548828125,-0.9534912109375,2.13623046875,-0.3662109076976776,0.1831054538488388
1301708,-0.0440673828125,-0.2191162109375,-0.9539794921875,3.967284917831421,-0.4882812201976776,0.1831054538488388
1301724,-0.04541015625,-0.220947265625,-0.9556884765625,4.2724609375,-0.54931640625,0.1831054538488388
1301740,-0.0467529296875,-0.2232666015625,-0.952880859375,4.94384765625,-0.7934569716453552,0.1831054538488388
1301772,-0.047607421875,-0.2166748046875,-0.9588623046875,5.615233898162842,-0.9765624403953552,0.1220703050494194
1301788,-0.0467529296875,-0.2083740234375,-0.9532470703125,5.737304210662842,-1.220703125,0.2441406100988388
1301804,-0.041748046875,-0.2042236328125,-0.953125,5.676269054412842,-1.5258787870407104,0.4272460639476776
1301820,-0.034423828125,-0.2017822265625,-0.953125,5.432128429412842,-2.38037109375,0.8544921278953552
1301841,-0.0462646484375,-0.208251953125,-0.95458984375,5.126952648162842,-3.479003667831421,0.9155272841453552
1301862,-0.0238037109375,-0.21435546875,-0.951416015625,4.21142578125,-5.432128429412842,1.4648436307907104
1301878,-0.0626220703125,-0.28662109375,-1.16552734375,3.662109136581421,-6.408690929412842,1.8310545682907104
1301895,-0.0732421875,-0.2939453125,-1.2880859375,5.371093273162842,-3.112792730331421,0.3662109076976776
1301912,-0.076416015625,-0.2939453125,-1.4703369140625,9.521484375,-1.4038084745407104,0.2441406100988388
1301945,-0.0732421875,-0.322998046875,-1.5164794921875,11.779784202575684,1.03759765625,0.2441406100988388
1301962,-0.064208984375,-0.3380126953125,-1.454833984375,12.634276390075684,1.7089842557907104,-0.1220703050494194
1301978,-0.056884765625,-0.3380126953125,-1.40625,12.145995140075684,1.8310545682907104,0.0
1302010,-0.072509765625,-0.355224609375,-1.3997802734375,12.145995140075684,2.13623046875,-0.1831054538488388
1302026,-0.074951171875,-0.3526611328125,-1.43212890625,12.695311546325684,2.38037109375,-0.4272460639476776
1302042,-0.065673828125,-0.3262939453125,-1.412353515625,14.038084983825684,3.234863042831421,-1.0986328125
1302058,-0.05712890625,-0.2740478515625,-1.3966064453125,14.892577171325684,2.868652105331421,-0.9155272841453552
1302083,-0.0703125,-0.265869140625,-1.4625244140625,14.587401390075684,2.746581792831421,-0.4882812201976776
1302099,-0.08642578125,-0.28515625,-1.501220703125,14.465331077575684,3.417968511581421,-0.4882812201976776
1302116,-0.0843505859375,-0.2802734375,-1.4534912109375,14.465331077575684,4.7607421875,-0.7934569716453552
1302137,-0.070556640625,-0.2657470703125,-1.3543701171875,14.221190452575684,4.5166015625,-0.9765624403953552
1302153,-0.0662841796875,-0.2352294921875,-1.3134765625,13.549803733825684,3.662109136581421,-1.0986328125
1302187,-0.079833984375,-0.1820068359375,-1.2822265625,10.803221702575684,4.21142578125,-0.7934569716453552
1302203,-0.073974609375,-0.1727294921875,-1.2259521484375,8.7890625,4.2724609375,-0.4882812201976776
1302219,-0.0628662109375,-0.2044677734375,-1.1845703125,6.652831554412842,3.967284917831421,-0.1220703050494194
1302251,-0.0760498046875,-0.1600341796875,-1.1395263671875,3.906249761581421,3.845214605331421,-0.7324218153953552
1302299,-0.0660400390625,-0.0985107421875,-0.9500732421875,0.4272460639476776,2.929687261581421,-0.4272460639476776
1302320,-0.058837890625,-0.0870361328125,-0.8392333984375,-0.7934569716453552,2.807616949081421,-0.4272460639476776
1302337,-0.05712890625,-0.0867919921875,-0.7998046875,-3.784179449081421,2.01416015625,-0.2441406100988388
1302370,-0.0447998046875,-0.0819091796875,-0.6962890625,-7.385253429412842,1.7700194120407104,-0.2441406100988388
1302386,-0.0418701171875,-0.0823974609375,-0.6436767578125,-8.056640625,1.8920897245407104,-0.30517578125
1302403,-0.038330078125,-0.0628662109375,-0.53466796875,-9.6435546875,1.5258787870407104,-0.1831054538488388
1302419,-0.031494140625,-0.0521240234375,-0.426513671875,-11.657713890075684,1.03759765625,-0.2441406100988388
1302444,-0.0274658203125,-0.0484619140625,-0.36083984375,-13.244627952575684,0.30517578125,-0.0610351525247097
1302460,-0.022216796875,-0.0350341796875,-0.3173828125,-14.221190452575684,0.0,-0.0610351525247097
1302477,-0.02001953125,-0.037109375,-0.3050537109375,-15.747069358825684,-0.6103515625,0.2441406100988388
1302494,-0.0189208984375,-0.0479736328125,-0.3153076171875,-16.845703125,-1.0986328125,0.30517578125
1302511,-0.01708984375,-0.059814453125,-0.3394775390625,-17.4560546875,-1.03759765625,0.30517578125
1302544,-0.01806640625,-0.046875,-0.3582763671875,-18.310546875,-1.220703125,0.2441406100988388
1302561,-0.029296875,-0.05859375,-0.4417724609375,-18.37158203125,-2.01416015625,0.4272460639476776
1302582,-0.0357666015625,-0.0732421875,-0.5093994140625,-18.310546875,-2.0751953125,0.54931640625
1302598,-0.04345703125,-0.1026611328125,-0.6278076171875,-17.7001953125,-1.4648436307907104,0.4882812201976776
1302615,-0.0384521484375,-0.117431640625,-0.6793212890625,-16.90673828125,-1.3427733182907104,0.54931640625
1302632,-0.0440673828125,-0.1513671875,-0.7691650390625,-16.54052734375,-1.4038084745407104,0.54931640625
1302665,-0.0579833984375,-0.1962890625,-0.869873046875,-13.793944358825684,-0.8544921278953552,0.0
1302728,-0.0660400390625,-0.2041015625,-0.8648681640625,-9.09423828125,-0.1831054538488388,-0.54931640625
1302749,-0.0673828125,-0.2005615234375,-0.8641357421875,-7.934569835662842,-0.9765624403953552,-0.54931640625
1302765,-0.0745849609375,-0.202392578125,-0.8961181640625,-6.530761241912842,-1.15966796875,-0.6713866591453552
1302782,-0.0770263671875,-0.194091796875,-0.8739013671875,-5.798339366912842,-1.03759765625,-0.7934569716453552
1302799,-0.07666015625,-0.183837890625,-0.8590087890625,-4.39453125,-1.7089842557907104,-0.7324218153953552
1302819,-0.0836181640625,-0.2259521484375,-0.9432373046875,-2.50244140625,-2.44140625,-0.54931640625
1302840,-0.0782470703125,-0.2403564453125,-0.939208984375,0.9155272841453552,-1.9531248807907104,-1.2817381620407104
1302857,-0.0723876953125,-0.233642578125,-0.919189453125,1.8920897245407104,-2.3193359375,-1.4038084745407104
1302873,-0.0733642578125,-0.23583984375,-0.9635009765625,3.662109136581421,-2.50244140625,-1.5258787870407104
1302908,-0.0660400390625,-0.231201171875,-0.9483642578125,5.798339366912842,-1.8310545682907104,-1.6479490995407104
1302925,-0.06005859375,-0.246337890625,-0.9405517578125,7.141112804412842,-2.0751953125,-1.7089842557907104
1302942,-0.0562744140625,-0.24658203125,-0.9638671875,7.812499523162842,-2.13623046875,-1.7700194120407104
1302958,-0.0550537109375,-0.247314453125,-0.9759521484375,8.85009765625,-1.8920897245407104,-1.8920897245407104
1302979,-0.0526123046875,-0.2413330078125,-0.9771728515625,9.82666015625,-1.3427733182907104,-1.9531248807907104
1302995,-0.049072265625,-0.2347412109375,-0.9620361328125,10.864256858825684,-1.2817381620407104,-1.9531248807907104
1303012,-0.05078125,-0.2464599609375,-0.987548828125,12.207030296325684,-1.15966796875,-2.0751953125
1303032,-0.0516357421875,-0.2420654296875,-0.99560546875,12.878417015075684,-0.8544921278953552,-2.13623046875
1303048,-0.0467529296875,-0.2266845703125,-0.967529296875,14.160155296325684,-0.4272460639476776,-2.13623046875
1303065,-0.044677734375,-0.2156982421875,-0.958984375,14.648436546325684,-0.4882812201976776,-2.0751953125
1303082,-0.0447998046875,-0.206298828125,-0.963623046875,15.441893577575684,-0.4882812201976776,-2.01416015625
1303099,-0.0433349609375,-0.2027587890625,-0.965087890625,16.11328125,-0.30517578125,-2.01416015625
1303115,-0.0411376953125,-0.2073974609375,-0.96142578125,16.7236328125,-0.0610351525247097,-2.01416015625
1303147,-0.03857421875,-0.183837890625,-0.919677734375,16.845703125,-0.1220703050494194,-1.9531248807907104
1303168,-0.03759765625,-0.176513671875,-0.9248046875,16.357421875,-0.4882812201976776,-1.8310545682907104
1303184,-0.0396728515625,-0.177001953125,-0.93994140625,15.991209983825684,-0.4272460639476776,-1.7700194120407104
1303201,-0.041259765625,-0.1693115234375,-0.935302734375,15.197752952575684,-0.4272460639476776,-1.7700194120407104
1303218,-0.0413818359375,-0.1689453125,-0.9356689453125,14.404295921325684,-0.6103515625,-1.6479490995407104
1303235,-0.0430908203125,-0.1683349609375,-0.9522705078125,13.854979515075684,-0.6713866591453552,-1.5869139432907104
1303266,-0.0447998046875,-0.16455078125,-0.9500732421875,12.695311546325684,-0.7324218153953552,-1.6479490995407104
1303282,-0.045166015625,-0.16259765625,-0.9521484375,11.718749046325684,-1.03759765625,-1.5869139432907104
1303298,-0.0445556640625,-0.161865234375,-0.9561767578125,11.169432640075684,-1.15966796875,-1.5258787870407104
1303330,-0.042724609375,-0.156494140625,-0.9683837890625,9.46044921875,-1.2817381620407104,-1.4648436307907104
1303346,-0.0423583984375,-0.156494140625,-0.9697265625,8.23974609375,-1.4038084745407104,-1.4648436307907104
1303362,-0.041015625,-0.1575927734375,-0.97119140625,7.080077648162842,-1.5258787870407104,-1.4648436307907104
1303378,-0.0426025390625,-0.1566162109375,-0.9739990234375,6.530761241912842,-1.5869139432907104,-1.4648436307907104
1303398,-0.046142578125,-0.1494140625,-0.9757080078125,5.432128429412842,-1.5258787870407104,-1.5869139432907104
1303420,-0.048828125,-0.1383056640625,-0.96533203125,4.150390625,-1.5869139432907104,-1.5869139432907104
1303436,-0.0487060546875,-0.1314697265625,-0.957763671875,2.868652105331421,-1.6479490995407104,-1.4038084745407104
1303453,-0.047607421875,-0.1287841796875,-0.9490966796875,2.13623046875,-1.7089842557907104,-1.4038084745407104
1303470,-0.047607421875,-0.1270751953125,-0.943115234375,0.7934569716453552,-1.7700194120407104,-1.3427733182907104
1303503,-0.0533447265625,-0.1253662109375,-0.95263671875,-1.6479490995407104,-2.25830078125,-1.0986328125
1303520,-0.0537109375,-0.12890625,-0.9588623046875,-2.197265625,-2.197265625,-1.0986328125
1303536,-0.0548095703125,-0.1337890625,-0.96533203125,-3.356933355331421,-2.25830078125,-1.0986328125
1303567,-0.059326171875,-0.141845703125,-0.980712890625,-4.7607421875,-2.197265625,-0.9155272841453552
1303588,-0.0579833984375,-0.152587890625,-0.989990234375,-5.432128429412842,-2.01416015625,-1.03759765625
1303604,-0.0570068359375,-0.158447265625,-0.990966796875,-5.554198741912842,-1.9531248807907104,-1.0986328125
1303621,-0.057373046875,-0.1591796875,-0.9949951171875,-5.737304210662842,-1.8310545682907104,-1.15966796875
1303638,-0.0594482421875,-0.1583251953125,-1.0045166015625,-5.737304210662842,-1.4648436307907104,-1.2817381620407104
1303654,-0.060791015625,-0.15576171875,-0.9932861328125,-5.676269054412842,-1.3427733182907104,-1.2817381620407104
1303685,-0.061767578125,-0.1563720703125,-0.9678955078125,-5.371093273162842,-1.15966796875,-1.3427733182907104
1303707,-0.0604248046875,-0.1572265625,-0.961669921875,-5.249022960662842,-1.15966796875,-1.4038084745407104
1303723,-0.0595703125,-0.1556396484375,-0.96044921875,-5.126952648162842,-1.15966796875,-1.4038084745407104
1303740,-0.0589599609375,-0.155517578125,-0.9588623046875,-4.7607421875,-1.15966796875,-1.4648436307907104
1303757,-0.05615234375,-0.156982421875,-0.9510498046875,-4.57763671875,-1.15966796875,-1.5258787870407104
1303773,-0.0537109375,-0.16162109375,-0.94775390625,-4.08935546875,-1.220703125,-1.5258787870407104
1303806,-0.050048828125,-0.16162109375,-0.94921875,-2.929687261581421,-1.2817381620407104,-1.5258787870407104
1303828,-0.0469970703125,-0.158935546875,-0.9404296875,-2.3193359375,-1.4038084745407104,-1.4038084745407104
1303844,-0.0443115234375,-0.16455078125,-0.9527587890625,-1.9531248807907104,-1.5258787870407104,-1.4038084745407104
1303861,-0.04443359375,-0.1690673828125,-0.967529296875,-1.0986328125,-1.6479490995407104,-1.4038084745407104
1303878,-0.0460205078125,-0.1778564453125,-0.9923095703125,0.0,-1.220703125,-1.4038084745407104
1303894,-0.042236328125,-0.1768798828125,-0.9794921875,0.6103515625,-0.9765624403953552,-1.4038084745407104
1303930,-0.0352783203125,-0.1778564453125,-0.9686279296875,2.44140625,-0.7934569716453552,-1.3427733182907104
1303947,-0.033935546875,-0.180908203125,-0.9683837890625,3.479003667831421,-0.4882812201976776,-1.3427733182907104
1303963,-0.0325927734375,-0.17431640625,-0.953857421875,3.906249761581421,-0.30517578125,-1.4038084745407104
1303979,-0.031494140625,-0.1719970703125,-0.943115234375,4.69970703125,-0.0610351525247097,-1.4038084745407104
1303999,-0.0318603515625,-0.1683349609375,-0.9334716796875,5.249022960662842,-0.0610351525247097,-1.3427733182907104
1304015,-0.0325927734375,-0.1688232421875,-0.9412841796875,5.737304210662842,-0.0610351525247097,-1.220703125
1304031,-0.034423828125,-0.1697998046875,-0.9478759765625,5.981444835662842,0.0,-1.220703125
1304047,-0.0350341796875,-0.169189453125,-0.9453125,6.408690929412842,0.30517578125,-1.220703125
1304063,-0.035888671875,-0.16357421875,-0.93603515625,6.530761241912842,0.3662109076976776,-1.220703125
1304079,-0.0377197265625,-0.163330078125,-0.9383544921875,6.591796398162842,0.30517578125,-1.0986328125
1304112,-0.048583984375,-0.15771484375,-0.9376220703125,6.286620616912842,0.6713866591453552,-1.220703125
1304133,-0.0517578125,-0.146728515625,-0.903564453125,5.798339366912842,0.6103515625,-1.220703125
1304149,-0.056640625,-0.1446533203125,-0.911376953125,5.187987804412842,0.1220703050494194,-1.03759765625
1304166,-0.0594482421875,-0.1434326171875,-0.9268798828125,4.94384765625,0.2441406100988388,-1.0986328125
1304182,-0.0577392578125,-0.1402587890625,-0.9134521484375,4.69970703125,0.4272460639476776,-1.15966796875
1304199,-0.0582275390625,-0.135986328125,-0.9010009765625,4.2724609375,0.2441406100988388,-1.15966796875
1304236,-0.05615234375,-0.1258544921875,-0.934814453125,3.173827886581421,-0.0610351525247097,-0.8544921278953552
1304252,-0.0545654296875,-0.1279296875,-0.94091796875,2.990722417831421,0.0610351525247097,-0.7934569716453552
1304268,-0.054931640625,-0.1312255859375,-0.9471435546875,2.50244140625,0.30517578125,-0.8544921278953552
1304284,-0.0548095703125,-0.1253662109375,-0.9227294921875,2.197265625,0.30517578125,-0.8544921278953552
1304301,-0.055908203125,-0.12158203125,-0.914306640625,1.4648436307907104,0.1831054538488388,-0.6713866591453552
1304322,-0.0567626953125,-0.1177978515625,-0.912353515625,0.6713866591453552,0.0610351525247097,-0.54931640625
1304338,-0.057373046875,-0.1170654296875,-0.911865234375,0.2441406100988388,0.0,-0.6103515625
1304355,-0.0594482421875,-0.1182861328125,-0.9158935546875,-0.54931640625,0.0,-0.4272460639476776
1304372,-0.0592041015625,-0.118408203125,-0.91162109375,-1.3427733182907104,0.1220703050494194,-0.3662109076976776
1304405,-0.057373046875,-0.11279296875,-0.9090576171875,-3.112792730331421,-0.0610351525247097,-0.1831054538488388
1304422,-0.0565185546875,-0.11328125,-0.9197998046875,-3.417968511581421,0.0610351525247097,-0.1220703050494194
1304438,-0.0533447265625,-0.1165771484375,-0.93017578125,-4.0283203125,0.3662109076976776,-0.0610351525247097
1304471,-0.0499267578125,-0.11669921875,-0.9110107421875,-4.82177734375,0.9765624403953552,0.0610351525247097
1304492,-0.0479736328125,-0.1175537109375,-0.88720703125,-5.554198741912842,0.9765624403953552,0.1220703050494194
1304508,-0.0498046875,-0.1219482421875,-0.891357421875,-5.859374523162842,0.7934569716453552,0.2441406100988388
1304525,-0.0516357421875,-0.1265869140625,-0.905029296875,-6.347655773162842,0.7324218153953552,0.4272460639476776
1304542,-0.052734375,-0.131591796875,-0.894775390625,-6.469726085662842,1.0986328125,0.54931640625
1304558,-0.055419921875,-0.14599609375,-0.8643798828125,-6.469726085662842,1.0986328125,0.54931640625
1304592,-0.0587158203125,-0.1466064453125,-0.8734130859375,-6.652831554412842,0.3662109076976776,0.4882812201976776
1304608,-0.0570068359375,-0.1546630859375,-0.9083251953125,-6.469726085662842,0.6103515625,0.4272460639476776
1304624,-0.0538330078125,-0.1590576171875,-0.9080810546875,-6.286620616912842,0.8544921278953552,0.3662109076976776
1304640,-0.044921875,-0.1619873046875,-0.875732421875,-5.737304210662842,0.8544921278953552,0.2441406100988388
1304660,-0.0428466796875,-0.1646728515625,-0.8731689453125,-5.126952648162842,0.7324218153953552,0.2441406100988388
1304685,-0.04638671875,-0.157470703125,-0.880859375,-4.45556640625,0.4272460639476776,0.3662109076976776
1304701,-0.0516357421875,-0.161376953125,-0.8963623046875,-3.784179449081421,0.4272460639476776,0.4272460639476776
1304718,-0.054443359375,-0.1689453125,-0.9197998046875,-3.356933355331421,0.3662109076976776,0.4882812201976776
1304735,-0.054931640625,-0.1800537109375,-0.9320068359375,-2.50244140625,0.54931640625,0.4272460639476776
1304768,-0.05517578125,-0.170654296875,-0.9010009765625,-1.0986328125,0.6103515625,0.4882812201976776
1304785,-0.0595703125,-0.174560546875,-0.9210205078125,-0.7934569716453552,0.6103515625,0.54931640625
1304801,-0.0555419921875,-0.1822509765625,-0.9425048828125,-0.1831054538488388,0.9155272841453552,0.54931640625
1304837,-0.05712890625,-0.171142578125,-0.88671875,1.220703125,0.9155272841453552,0.6713866591453552
1304885,-0.0693359375,-0.181396484375,-0.9376220703125,1.8920897245407104,0.2441406100988388,0.9155272841453552
1304902,-0.0662841796875,-0.1812744140625,-0.9384765625,2.624511480331421,0.6713866591453552,0.9155272841453552
1304923,-0.0599365234375,-0.17431640625,-0.9273681640625,3.173827886581421,0.54931640625,0.9765624403953552
1304939,-0.0697021484375,-0.1876220703125,-0.9761962890625,3.417968511581421,0.3662109076976776,1.0986328125
1304956,-0.0706787109375,-0.189697265625,-0.985107421875,3.906249761581421,0.9155272841453552,1.03759765625
1304973,-0.062744140625,-0.1761474609375,-0.9510498046875,4.21142578125,0.9765624403953552,1.15966796875
1305006,-0.07373046875,-0.1708984375,-0.878173828125,4.21142578125,0.7324218153953552,1.220703125
1305022,-0.076416015625,-0.177001953125,-0.8726806640625,3.601073980331421,0.0,1.4038084745407104
1305038,-0.0743408203125,-0.177490234375,-0.9033203125,2.624511480331421,-0.6103515625,1.5869139432907104
1305070,-0.070556640625,-0.18603515625,-0.9693603515625,1.8310545682907104,-0.30517578125,1.7700194120407104
1305086,-0.073974609375,-0.193603515625,-0.9554443359375,1.7089842557907104,-0.1831054538488388,1.7700194120407104
1305118,-0.067138671875,-0.2003173828125,-0.93017578125,1.2817381620407104,-0.4272460639476776,1.5258787870407104
1305138,-0.06298828125,-0.197509765625,-0.94580078125,0.9155272841453552,-0.7324218153953552,1.4648436307907104
1305160,-0.0631103515625,-0.193603515625,-0.9632568359375,0.7934569716453552,-0.8544921278953552,1.4648436307907104
1305176,-0.0677490234375,-0.201416015625,-1.0159912109375,0.9155272841453552,-0.7934569716453552,1.6479490995407104
1305193,-0.068359375,-0.216552734375,-1.0386962890625,1.4648436307907104,-0.0610351525247097,1.4038084745407104
1305210,-0.0548095703125,-0.2115478515625,-0.9971923828125,1.7700194120407104,0.1831054538488388,1.2817381620407104
1305243,-0.050048828125,-0.2000732421875,-1.0142822265625,1.8310545682907104,-0.4272460639476776,1.0986328125
1305260,-0.058349609375,-0.2030029296875,-1.0528564453125,2.01416015625,0.30517578125,1.03759765625
1305276,-0.058349609375,-0.2054443359375,-1.0489501953125,2.0751953125,0.7324218153953552,0.9765624403953552
1305308,-0.0484619140625,-0.1943359375,-0.9681396484375,2.13623046875,1.4038084745407104,0.6103515625
1305329,-0.0498046875,-0.1839599609375,-0.958984375,1.8310545682907104,0.8544921278953552,0.6103515625
1305345,-0.0665283203125,-0.18994140625,-1.0155029296875,1.8920897245407104,0.1831054538488388,0.7934569716453552
1305362,-0.08056640625,-0.21435546875,-1.07275390625,2.197265625,0.30517578125,0.8544921278953552
1305379,-0.0771484375,-0.214599609375,-1.0465087890625,3.234863042831421,1.03759765625,0.4272460639476776
1305395,-0.0701904296875,-0.2010498046875,-1.009033203125,3.906249761581421,1.0986328125,0.1220703050494194
1305434,-0.0697021484375,-0.176513671875,-1.0079345703125,3.540038824081421,-0.7934569716453552,0.54931640625
1305486,-0.072998046875,-0.1815185546875,-1.0244140625,4.33349609375,-0.6713866591453552,0.2441406100988388
1305503,-0.07177734375,-0.1689453125,-1.0255126953125,4.2724609375,-1.4038084745407104,0.3662109076976776
1305528,-0.0721435546875,-0.173828125,-1.055419921875,4.39453125,-1.5869139432907104,0.54931640625
1305546,-0.0689697265625,-0.18017578125,-1.051025390625,4.5166015625,-1.5869139432907104,0.4272460639476776
1305563,-0.063720703125,-0.16845703125,-1.0225830078125,4.638671875,-1.7700194120407104,0.4272460639476776
1305580,-0.06640625,-0.1673583984375,-1.064697265625,4.638671875,-2.685546636581421,0.54931640625
1305596,-0.066650390625,-0.170166015625,-1.0848388671875,4.69970703125,-2.807616949081421,0.6103515625
1305617,-0.06201171875,-0.17626953125,-1.0889892578125,4.94384765625,-2.563476324081421,0.4882812201976776
1305633,-0.0545654296875,-0.1673583984375,-1.05029296875,5.0048828125,-2.746581792831421,0.3662109076976776
1305650,-0.04931640625,-0.1441650390625,-1.0191650390625,4.39453125,-3.112792730331421,0.4272460639476776
1305666,-0.0484619140625,-0.1357421875,-1.0162353515625,3.906249761581421,-3.356933355331421,0.6103515625
1305683,-0.050048828125,-0.1412353515625,-1.0458984375,2.929687261581421,-3.601073980331421,0.9155272841453552
1305704,-0.0491943359375,-0.1527099609375,-1.0555419921875,2.0751953125,-3.234863042831421,0.8544921278953552
1305720,-0.0477294921875,-0.1563720703125,-1.042236328125,1.7700194120407104,-3.112792730331421,0.9155272841453552
1305738,-0.0467529296875,-0.156494140625,-1.0322265625,1.03759765625,-3.112792730331421,0.7934569716453552
1305755,-0.0469970703125,-0.144775390625,-1.033935546875,0.0610351525247097,-3.479003667831421,0.9155272841453552
1305787,-0.0552978515625,-0.154541015625,-1.0677490234375,-0.9765624403953552,-2.50244140625,0.8544921278953552
1305803,-0.05712890625,-0.148681640625,-1.0400390625,-1.2817381620407104,-2.01416015625,0.7324218153953552
1305819,-0.0531005859375,-0.1435546875,-1.01416015625,-1.5258787870407104,-1.8310545682907104,0.7324218153953552
1305851,-0.0477294921875,-0.1402587890625,-1.005615234375,-2.685546636581421,-1.3427733182907104,0.9155272841453552
1305867,-0.0479736328125,-0.143798828125,-1.0137939453125,-2.868652105331421,-1.0986328125,0.9765624403953552
1305883,-0.0491943359375,-0.157958984375,-1.0242919921875,-2.868652105331421,-0.4882812201976776,0.9765624403953552
1305899,-0.0484619140625,-0.1641845703125,-1.0184326171875,-2.807616949081421,-0.1220703050494194,0.9155272841453552
1305974,-0.0400390625,-0.1544189453125,-0.8602294921875,-5.737304210662842,-11.047362327575684,3.051757574081421
1305991,-0.0360107421875,-0.177978515625,-0.989013671875,-5.187987804412842,-9.521484375,2.685546636581421
1306007,-0.0465087890625,-0.21435546875,-1.2042236328125,-4.82177734375,-8.11767578125,2.44140625
1306024,-0.07470703125,-0.4176025390625,-2.177734375,-5.493163585662842,2.38037109375,0.6103515625
1306041,-0.00390625,-0.143310546875,-0.685546875,-6.286620616912842,4.08935546875,0.1831054538488388
1306057,-0.0189208984375,-0.1220703125,-0.575927734375,-6.591796398162842,2.01416015625,0.30517578125
1306089,-0.0382080078125,-0.1656494140625,-0.9093017578125,-6.530761241912842,2.624511480331421,0.2441406100988388
1306105,-0.0472412109375,-0.1485595703125,-0.90087890625,-6.286620616912842,2.990722417831421,0.3662109076976776
1306121,-0.035400390625,-0.15478515625,-0.7999267578125,-2.868652105331421,0.6713866591453552,0.30517578125
1306157,-0.0458984375,-0.2244873046875,-1.0595703125,1.7700194120407104,-4.8828125,0.6103515625
1306173,-0.0496826171875,-0.277099609375,-1.4642333984375,1.5258787870407104,2.38037109375,-0.6103515625
1306189,-0.0191650390625,-0.194580078125,-0.992919921875,1.5869139432907104,3.723144292831421,-0.8544921278953552
1306205,-0.022216796875,-0.1026611328125,-0.6314697265625,0.1831054538488388,-0.54931640625,0.1831054538488388
1306227,-0.0672607421875,-0.1998291015625,-1.185791015625,0.4882812201976776,-0.9765624403953552,0.54931640625
1306243,-0.023193359375,-0.1856689453125,-0.9578857421875,0.3662109076976776,0.4882812201976776,0.4272460639476776
1306260,-0.009033203125,-0.1771240234375,-0.791015625,1.15966796875,0.54931640625,0.30517578125
1306277,-0.051513671875,-0.21142578125,-1.0406494140625,2.25830078125,-0.0610351525247097,0.0610351525247097
1306293,-0.0498046875,-0.1859130859375,-0.958984375,2.563476324081421,0.4882812201976776,-0.1831054538488388
1306327,-0.0487060546875,-0.176513671875,-1.007568359375,2.868652105331421,-0.1831054538488388,0.2441406100988388
1306343,-0.030029296875,-0.1744384765625,-0.948486328125,2.624511480331421,0.0,0.3662109076976776
1306359,-0.0289306640625,-0.1820068359375,-0.9344482421875,2.624511480331421,-0.1220703050494194,0.30517578125
1306391,-0.046630859375,-0.171630859375,-0.9425048828125,3.112792730331421,0.0,0.0610351525247097
1306407,-0.045654296875,-0.166259765625,-0.951171875,3.234863042831421,-0.30517578125,0.0610351525247097
1306423,-0.0396728515625,-0.1756591796875,-0.9757080078125,3.173827886581421,-0.0610351525247097,0.1831054538488388
1306439,-0.036376953125,-0.173095703125,-0.9576416015625,3.173827886581421,-0.0610351525247097,0.1831054538488388
1306512,-0.0462646484375,-0.15869140625,-0.970703125,1.7700194120407104,-0.1831054538488388,0.2441406100988388
1306528,-0.0419921875,-0.169921875,-0.9642333984375,1.3427733182907104,-0.2441406100988388,0.3662109076976776
1306545,-0.0384521484375,-0.173583984375,-0.9630126953125,1.3427733182907104,-0.2441406100988388,0.30517578125
1306562,-0.041259765625,-0.1763916015625,-0.97119140625,1.3427733182907104,-0.1220703050494194,0.0610351525247097
1306578,-0.04345703125,-0.167724609375,-0.962890625,1.15966796875,-0.1220703050494194,0.1220703050494194
1306595,-0.045166015625,-0.1641845703125,-0.9715576171875,0.7324218153953552,-0.3662109076976776,0.30517578125
1306628,-0.039306640625,-0.169921875,-0.9609375,0.30517578125,-0.2441406100988388,0.30517578125
1306644,-0.0406494140625,-0.1751708984375,-0.9696044921875,0.1220703050494194,-0.2441406100988388,0.2441406100988388
1306660,-0.04248046875,-0.1732177734375,-0.9725341796875,0.0,-0.1831054538488388,0.2441406100988388
1306692,-0.045166015625,-0.1669921875,-0.9715576171875,-0.4272460639476776,-0.1831054538488388,0.30517578125
1306708,-0.04345703125,-0.168701171875,-0.966064453125,-0.54931640625,-0.1220703050494194,0.3662109076976776
1306724,-0.0423583984375,-0.1768798828125,-0.96533203125,-0.54931640625,-0.2441406100988388,0.3662109076976776
1306740,-0.0421142578125,-0.1787109375,-0.9715576171875,-0.54931640625,-0.2441406100988388,0.2441406100988388
1306760,-0.0408935546875,-0.1712646484375,-0.962890625,-0.6103515625,-0.1831054538488388,0.1220703050494194
1306776,-0.0450439453125,-0.1683349609375,-0.96728515625,-0.7934569716453552,-0.1831054538488388,0.1831054538488388
1306808,-0.0426025390625,-0.1751708984375,-0.9656982421875,-0.9155272841453552,-0.1831054538488388,0.4272460639476776
1306829,-0.0419921875,-0.1793212890625,-0.9625244140625,-0.7934569716453552,-0.1831054538488388,0.3662109076976776
1306845,-0.04296875,-0.177978515625,-0.9637451171875,-0.7324218153953552,-0.2441406100988388,0.30517578125
1306864,-0.0435791015625,-0.174560546875,-0.96533203125,-0.7934569716453552,-0.30517578125,0.2441406100988388
1306881,-0.0433349609375,-0.1717529296875,-0.968505859375,-0.9155272841453552,-0.2441406100988388,0.30517578125
1306898,-0.0430908203125,-0.17626953125,-0.963134765625,-0.9155272841453552,-0.2441406100988388,0.4272460639476776
1306929,-0.0426025390625,-0.181884765625,-0.96435546875,-0.6713866591453552,-0.1220703050494194,0.2441406100988388
1306978,-0.0438232421875,-0.1790771484375,-0.965087890625,-0.30517578125,-0.1831054538488388,0.30517578125
1307000,-0.0401611328125,-0.1807861328125,-0.9635009765625,0.0,-0.2441406100988388,0.30517578125
1307017,-0.04248046875,-0.1845703125,-0.9652099609375,0.1831054538488388,-0.30517578125,0.3662109076976776
1307050,-0.045166015625,-0.17724609375,-0.9609375,0.3662109076976776,-0.30517578125,0.1831054538488388
1307067,-0.0419921875,-0.17529296875,-0.96875,0.3662109076976776,-0.30517578125,0.1831054538488388
1307084,-0.0418701171875,-0.1795654296875,-0.9639892578125,0.4882812201976776,-0.1220703050494194,0.2441406100988388
1307100,-0.0428466796875,-0.1815185546875,-0.9649658203125,0.54931640625,-0.1831054538488388,0.2441406100988388
1307120,-0.0440673828125,-0.18408203125,-0.963134765625,0.7324218153953552,-0.30517578125,0.1831054538488388
1307136,-0.045654296875,-0.1795654296875,-0.963134765625,0.8544921278953552,-0.3662109076976776,0.1831054538488388
1307152,-0.045654296875,-0.1796875,-0.96826171875,0.9155272841453552,-0.3662109076976776,0.2441406100988388
1307169,-0.041259765625,-0.1778564453125,-0.9635009765625,0.9765624403953552,-0.2441406100988388,0.2441406100988388
1307222,-0.044921875,-0.1812744140625,-0.96240234375,1.2817381620407104,-0.30517578125,0.2441406100988388
1307238,-0.0423583984375,-0.1781005859375,-0.9658203125,1.2817381620407104,-0.3662109076976776,0.1831054538488388
1307255,-0.040771484375,-0.176513671875,-0.96337890625,1.3427733182907104,-0.30517578125,0.2441406100988388
1307288,-0.0443115234375,-0.1776123046875,-0.966064453125,1.15966796875,-0.2441406100988388,0.2441406100988388
1307305,-0.0447998046875,-0.1773681640625,-0.96337890625,1.03759765625,-0.30517578125,0.1831054538488388
1307321,-0.044189453125,-0.1778564453125,-0.967041015625,0.9765624403953552,-0.30517578125,0.1831054538488388
1307338,-0.04150390625,-0.176025390625,-0.965087890625,0.8544921278953552,-0.2441406100988388,0.2441406100988388
1307358,-0.0438232421875,-0.176513671875,-0.96630859375,0.7324218153953552,-0.4272460639476776,0.30517578125
1307380,-0.0440673828125,-0.1767578125,-0.9639892578125,0.54931640625,-0.3662109076976776,0.3662109076976776
1307396,-0.0423583984375,-0.1790771484375,-0.965576171875,0.4882812201976776,-0.30517578125,0.3662109076976776
1307413,-0.0418701171875,-0.1788330078125,-0.966064453125,0.4882812201976776,-0.2441406100988388,0.2441406100988388
1307430,-0.0419921875,-0.1773681640625,-0.9637451171875,0.4882812201976776,-0.30517578125,0.2441406100988388
1307463,-0.0452880859375,-0.176513671875,-0.96484375,0.4882812201976776,-0.3662109076976776,0.30517578125
1307480,-0.0418701171875,-0.177978515625,-0.9654541015625,0.3662109076976776,-0.3662109076976776,0.2441406100988388
1307496,-0.041015625,-0.177978515625,-0.966064453125,0.30517578125,-0.30517578125,0.30517578125
1307528,-0.0426025390625,-0.1761474609375,-0.96142578125,0.0610351525247097,-0.4882812201976776,0.4272460639476776
1307544,-0.038330078125,-0.17724609375,-0.94921875,0.0,-0.7934569716453552,0.4882812201976776
1307560,-0.0361328125,-0.18017578125,-0.949951171875,0.1831054538488388,-2.13623046875,0.7324218153953552
1307592,-0.0396728515625,-0.1962890625,-0.9849853515625,1.3427733182907104,-3.845214605331421,0.9765624403953552
1307608,-0.01025390625,-0.2066650390625,-1.0638427734375,3.173827886581421,-4.82177734375,1.03759765625
1307624,-0.0172119140625,-0.2393798828125,-1.2249755859375,4.33349609375,-3.906249761581421,0.7324218153953552
1307640,-0.0228271484375,-0.2584228515625,-1.4205322265625,7.202147960662842,-1.0986328125,0.2441406100988388
1307660,-0.024169921875,-0.285400390625,-1.4788818359375,11.047362327575684,0.1220703050494194,0.0
1307676,-0.0355224609375,-0.2777099609375,-1.503173828125,14.892577171325684,0.3662109076976776,-0.2441406100988388
1307692,-0.0447998046875,-0.28271484375,-1.5233154296875,16.7236328125,0.54931640625,-0.30517578125
1307709,-0.0516357421875,-0.2738037109375,-1.5338134765625,20.263669967651367,0.8544921278953552,-0.30517578125
1307730,-0.0543212890625,-0.28466796875,-1.5533447265625,22.094724655151367,0.8544921278953552,-0.3662109076976776
1307746,-0.0665283203125,-0.2789306640625,-1.5960693359375,26.000974655151367,1.03759765625,-0.7324218153953552
1307763,-0.0672607421875,-0.2618408203125,-1.5562744140625,29.418943405151367,2.50244140625,-1.4038084745407104
1307780,-0.0548095703125,-0.1922607421875,-1.414306640625,30.273435592651367,2.624511480331421,-1.5258787870407104
1307796,-0.0548095703125,-0.1527099609375,-1.4454345703125,30.456541061401367,0.9155272841453552,-1.0986328125
1307830,-0.0692138671875,-0.1839599609375,-1.5782470703125,31.494138717651367,1.9531248807907104,-0.6713866591453552
1307846,-0.06689453125,-0.156005859375,-1.4488525390625,32.16552734375,3.051757574081421,-1.03759765625
1307862,-0.061767578125,-0.130615234375,-1.356689453125,32.16552734375,3.295898199081421,-1.2817381620407104
1307878,-0.0560302734375,-0.0738525390625,-1.28515625,29.907224655151367,1.8920897245407104,-1.15966796875
1307949,-0.0611572265625,-0.05078125,-1.164306640625,21.545408248901367,3.784179449081421,-0.1220703050494194
1307966,-0.0579833984375,-0.0340576171875,-1.1072998046875,18.12744140625,3.906249761581421,-0.2441406100988388
1307982,-0.05712890625,-0.0068359375,-1.0418701171875,14.099120140075684,4.0283203125,0.0610351525247097
1307999,-0.0552978515625,0.025146484375,-0.9580078125,9.033203125,5.0048828125,0.6103515625
1308048,-0.0440673828125,0.018798828125,-0.7325439453125,-1.3427733182907104,5.0048828125,1.5869139432907104
1308085,-0.04296875,-0.0399169921875,-0.6705322265625,-3.479003667831421,6.103515148162842,1.5258787870407104
1308102,-0.036865234375,0.002197265625,-0.560546875,-6.042479991912842,6.896972179412842,1.5258787870407104
1308119,-0.031494140625,-0.0013427734375,-0.451904296875,-6.713866710662842,6.774901866912842,1.5869139432907104
1308135,-0.0313720703125,-0.0047607421875,-0.42626953125,-9.09423828125,6.164550304412842,1.5258787870407104
1308152,-0.03466796875,-0.0078125,-0.435791015625,-11.047362327575684,5.798339366912842,1.8310545682907104
1308185,-0.03955078125,-0.0169677734375,-0.4288330078125,-12.573241233825684,6.286620616912842,1.7700194120407104
1308202,-0.0377197265625,-0.0245361328125,-0.4012451171875,-12.695311546325684,6.164550304412842,1.5869139432907104
1308223,-0.0374755859375,-0.0250244140625,-0.3685302734375,-13.488768577575684,5.676269054412842,1.7089842557907104
1308239,-0.0438232421875,-0.02880859375,-0.3885498046875,-13.610838890075684,5.187987804412842,1.6479490995407104
1308256,-0.046142578125,-0.029296875,-0.4039306640625,-13.488768577575684,4.5166015625,1.6479490995407104
1308273,-0.0509033203125,-0.03076171875,-0.452880859375,-13.244627952575684,3.479003667831421,1.7700194120407104
1308306,-0.0684814453125,-0.0703125,-0.5919189453125,-11.596678733825684,2.685546636581421,1.7700194120407104
1308323,-0.066650390625,-0.0760498046875,-0.634033203125,-10.070799827575684,2.624511480331421,1.4648436307907104
1308339,-0.067138671875,-0.08447265625,-0.681884765625,-8.6669921875,1.220703125,1.3427733182907104
1308371,-0.078369140625,-0.085693359375,-0.79736328125,-6.469726085662842,0.8544921278953552,1.4038084745407104
1308387,-0.0819091796875,-0.10107421875,-0.8243408203125,-5.493163585662842,0.4882812201976776,1.4648436307907104
1308403,-0.0831298828125,-0.11669921875,-0.8472900390625,-3.295898199081421,-0.4882812201976776,1.6479490995407104
1308419,-0.0848388671875,-0.140869140625,-0.90576171875,-0.7934569716453552,-1.220703125,1.2817381620407104
1308439,-0.08642578125,-0.1314697265625,-0.9462890625,1.7089842557907104,-1.2817381620407104,0.9765624403953552
1308455,-0.0850830078125,-0.1231689453125,-0.9417724609375,2.990722417831421,-1.4038084745407104,1.03759765625
1308471,-0.0828857421875,-0.1220703125,-0.9288330078125,5.493163585662842,-2.25830078125,1.0986328125
1308487,-0.0863037109375,-0.12451171875,-0.9407958984375,6.713866710662842,-2.563476324081421,1.15966796875
1308550,-0.0875244140625,-0.1163330078125,-0.9688720703125,13.061522483825684,-3.784179449081421,0.3662109076976776
1308572,-0.08935546875,-0.1153564453125,-0.97216796875,13.549803733825684,-3.662109136581421,0.1831054538488388
1308592,-0.0838623046875,-0.1009521484375,-0.945556640625,14.282225608825684,-3.723144292831421,0.0
1308608,-0.0799560546875,-0.1046142578125,-0.93798828125,14.526366233825684,-4.150390625,-0.1220703050494194
1308624,-0.07470703125,-0.0921630859375,-0.9456787109375,14.709471702575684,-4.33349609375,-0.54931640625
1308645,-0.07275390625,-0.0704345703125,-0.961669921875,14.526366233825684,-4.33349609375,-0.8544921278953552
1308661,-0.0718994140625,-0.051513671875,-0.9781494140625,14.404295921325684,-4.150390625,-0.9155272841453552
1308678,-0.070068359375,-0.044189453125,-0.9844970703125,14.221190452575684,-3.906249761581421,-1.03759765625
1308695,-0.0701904296875,-0.0426025390625,-1.0013427734375,14.038084983825684,-3.723144292831421,-1.3427733182907104
1308730,-0.068603515625,-0.023681640625,-1.0018310546875,13.244627952575684,-2.746581792831421,-1.7089842557907104
1308752,-0.0689697265625,-0.02294921875,-0.9969482421875,12.878417015075684,-2.563476324081421,-1.7700194120407104
1308768,-0.068603515625,-0.02490234375,-0.9898681640625,12.145995140075684,-2.3193359375,-1.9531248807907104
1308785,-0.068603515625,-0.031005859375,-1.0074462890625,11.352538108825684,-1.9531248807907104,-2.0751953125
1308802,-0.0697021484375,-0.04150390625,-1.022216796875,10.925292015075684,-1.5869139432907104,-2.197265625
1308818,-0.068603515625,-0.038818359375,-1.0135498046875,10.009765625,-0.7934569716453552,-2.44140625
1308851,-0.0667724609375,-0.0321044921875,-0.9898681640625,7.446288585662842,-0.30517578125,-2.685546636581421
1308867,-0.0692138671875,-0.0341796875,-0.998046875,6.835937023162842,-0.1220703050494194,-2.685546636581421
1308883,-0.070068359375,-0.0281982421875,-0.9853515625,5.615233898162842,0.4272460639476776,-2.624511480331421
1308899,-0.0684814453125,-0.0272216796875,-0.961181640625,5.0048828125,0.4272460639476776,-2.624511480331421
1308924,-0.0706787109375,-0.0257568359375,-0.9669189453125,3.967284917831421,0.2441406100988388,-2.624511480331421
1308940,-0.069580078125,-0.030517578125,-0.955322265625,2.868652105331421,0.3662109076976776,-2.563476324081421
1308957,-0.067626953125,-0.032470703125,-0.9564208984375,1.8920897245407104,0.2441406100988388,-2.44140625
1308974,-0.0654296875,-0.0347900390625,-0.957763671875,1.4648436307907104,0.2441406100988388,-2.3193359375
1308990,-0.06640625,-0.0323486328125,-0.9593505859375,0.6103515625,0.0,-2.3193359375
1309024,-0.0640869140625,-0.03076171875,-0.967041015625,-0.6103515625,-0.1831054538488388,-2.25830078125
1309088,-0.0587158203125,-0.0242919921875,-0.984130859375,-1.8920897245407104,-0.6713866591453552,-1.9531248807907104
1309160,-0.056396484375,-0.0184326171875,-0.9793701171875,-3.662109136581421,-0.7324218153953552,-1.7089842557907104
1309177,-0.054931640625,-0.016357421875,-0.9661865234375,-4.8828125,-0.7934569716453552,-1.6479490995407104
1309210,-0.060546875,-0.0223388671875,-0.9910888671875,-6.713866710662842,-0.8544921278953552,-1.4648436307907104
1309227,-0.0618896484375,-0.021484375,-0.9932861328125,-7.995604991912842,-0.7324218153953552,-1.4038084745407104
1309244,-0.065185546875,-0.022216796875,-0.9986572265625,-9.09423828125,-0.6103515625,-1.2817381620407104
1309260,-0.06640625,-0.0225830078125,-1.0013427734375,-9.6435546875,-0.3662109076976776,-1.3427733182907104
1309280,-0.0640869140625,-0.0174560546875,-0.9818115234375,-10.620116233825684,-0.0610351525247097,-1.3427733182907104
1309296,-0.06298828125,-0.0174560546875,-0.973876953125,-11.352538108825684,-0.1831054538488388,-1.220703125
1309312,-0.06640625,-0.0245361328125,-0.979248046875,-11.596678733825684,-0.0610351525247097,-1.2817381620407104
1309328,-0.067626953125,-0.02490234375,-0.9774169921875,-11.535643577575684,0.0,-1.2817381620407104
1309344,-0.068115234375,-0.031982421875,-0.9716796875,-11.291502952575684,0.0,-1.220703125
1309360,-0.068603515625,-0.0384521484375,-0.9688720703125,-11.230467796325684,0.0610351525247097,-1.2817381620407104
1309393,-0.0703125,-0.03955078125,-0.9549560546875,-10.009765625,0.0,-1.3427733182907104
1309414,-0.072509765625,-0.0443115234375,-0.962890625,-9.58251953125,-0.0610351525247097,-1.2817381620407104
1309430,-0.0760498046875,-0.0523681640625,-0.9774169921875,-8.48388671875,0.0,-1.3427733182907104
1309447,-0.0732421875,-0.055908203125,-0.967529296875,-7.507323741912842,0.1831054538488388,-1.3427733182907104
1309517,-0.0675048828125,-0.067138671875,-0.9427490234375,-3.784179449081421,-0.1831054538488388,-1.4648436307907104
1309534,-0.0653076171875,-0.0631103515625,-0.93017578125,-2.685546636581421,-0.4272460639476776,-1.3427733182907104
1309550,-0.063720703125,-0.064453125,-0.928955078125,-2.13623046875,-0.4882812201976776,-1.2817381620407104
1309566,-0.062744140625,-0.0662841796875,-0.924560546875,-1.15966796875,-0.4272460639476776,-1.3427733182907104
1309583,-0.0614013671875,-0.0679931640625,-0.91357421875,-0.54931640625,-0.3662109076976776,-1.3427733182907104
1309604,-0.0609130859375,-0.066650390625,-0.908935546875,-0.3662109076976776,-0.4272460639476776,-1.2817381620407104
1309620,-0.0594482421875,-0.0653076171875,-0.900390625,-0.1831054538488388,-0.4882812201976776,-1.220703125
1309637,-0.0596923828125,-0.06005859375,-0.888671875,-0.1831054538488388,-0.7934569716453552,-1.03759765625
1309654,-0.0626220703125,-0.0615234375,-0.9036865234375,-0.1220703050494194,-0.8544921278953552,-0.9155272841453552
1309687,-0.0606689453125,-0.067626953125,-0.881103515625,0.0,-0.6713866591453552,-0.8544921278953552
1309704,-0.054443359375,-0.0616455078125,-0.8558349609375,-0.3662109076976776,-1.0986328125,-0.7324218153953552
1309720,-0.0545654296875,-0.0594482421875,-0.8663330078125,-0.6713866591453552,-1.3427733182907104,-0.6713866591453552
1309752,-0.0626220703125,-0.06982421875,-0.9395751953125,-1.0986328125,-1.4648436307907104,-0.30517578125
1309768,-0.064453125,-0.073974609375,-0.9561767578125,-0.54931640625,-1.15966796875,-0.3662109076976776
1309784,-0.0650634765625,-0.0718994140625,-0.9420166015625,-0.1831054538488388,-0.54931640625,-0.4882812201976776
1309800,-0.0631103515625,-0.0638427734375,-0.9068603515625,-0.2441406100988388,-0.54931640625,-0.4272460639476776
1309820,-0.058837890625,-0.0526123046875,-0.8570556640625,-0.8544921278953552,-0.9765624403953552,-0.2441406100988388
1309836,-0.054443359375,-0.04638671875,-0.84228515625,-1.9531248807907104,-1.4648436307907104,0.0
1309852,-0.0557861328125,-0.0489501953125,-0.8590087890625,-2.50244140625,-1.5258787870407104,0.0610351525247097
1309868,-0.057373046875,-0.0499267578125,-0.86572265625,-3.417968511581421,-1.3427733182907104,0.1831054538488388
1309884,-0.059326171875,-0.04833984375,-0.84765625,-4.33349609375,-1.03759765625,0.30517578125
1309900,-0.05810546875,-0.043212890625,-0.82177734375,-4.82177734375,-1.15966796875,0.4272460639476776
1309932,-0.0576171875,-0.052490234375,-0.8233642578125,-6.652831554412842,-2.0751953125,0.7934569716453552
1309957,-0.0555419921875,-0.0626220703125,-0.858642578125,-7.507323741912842,-2.3193359375,0.9155272841453552
1309977,-0.0548095703125,-0.0657958984375,-0.8643798828125,-7.873534679412842,-2.0751953125,0.9765624403953552
1309993,-0.060302734375,-0.0845947265625,-0.8826904296875,-7.629394054412842,-1.7700194120407104,0.9765624403953552
1310010,-0.0576171875,-0.0849609375,-0.83642578125,-7.324218273162842,-1.7089842557907104,0.8544921278953552
1310043,-0.06298828125,-0.0955810546875,-0.90771484375,-6.835937023162842,-3.173827886581421,0.9155272841453552
1310060,-0.0662841796875,-0.1021728515625,-0.9384765625,-5.859374523162842,-2.624511480331421,0.7934569716453552
1310077,-0.0621337890625,-0.10009765625,-0.9051513671875,-4.45556640625,-2.13623046875,0.7324218153953552
1310109,-0.0565185546875,-0.1072998046875,-0.8846435546875,-2.563476324081421,-3.173827886581421,0.7934569716453552
1310125,-0.053466796875,-0.126708984375,-0.93017578125,-1.5258787870407104,-3.051757574081421,0.6713866591453552
1310141,-0.0491943359375,-0.132568359375,-0.935302734375,-0.8544921278953552,-2.685546636581421,0.4882812201976776
1310177,-0.038818359375,-0.0992431640625,-0.889892578125,0.8544921278953552,-3.051757574081421,0.1220703050494194
1310193,-0.0546875,-0.1121826171875,-0.99267578125,1.0986328125,-3.295898199081421,0.30517578125
1310225,-0.0479736328125,-0.123046875,-0.95947265625,2.3193359375,-1.03759765625,0.0
1310289,-0.0496826171875,-0.1396484375,-1.042236328125,2.685546636581421,-2.01416015625,0.30517578125
1310305,-0.0423583984375,-0.1484375,-1.0142822265625,4.21142578125,-0.9155272841453552,-0.2441406100988388
1310321,-0.0360107421875,-0.1358642578125,-0.965576171875,4.39453125,-0.9765624403953552,-0.4882812201976776
1310357,-0.046630859375,-0.119873046875,-1.01953125,5.981444835662842,-1.8920897245407104,-0.1831054538488388
1310373,-0.047119140625,-0.1173095703125,-1.0191650390625,6.591796398162842,-1.6479490995407104,-0.1831054538488388
1310389,-0.0447998046875,-0.1217041015625,-1.00048828125,7.080077648162842,-1.3427733182907104,-0.4272460639476776
1310405,-0.0360107421875,-0.1041259765625,-0.963134765625,6.835937023162842,-1.9531248807907104,-0.3662109076976776
1310422,-0.0382080078125,-0.0997314453125,-0.9794921875,6.896972179412842,-2.3193359375,-0.2441406100988388
1310443,-0.0465087890625,-0.100830078125,-1.0277099609375,6.896972179412842,-1.9531248807907104,-0.1220703050494194
1310459,-0.04638671875,-0.111083984375,-1.020751953125,7.202147960662842,-1.7089842557907104,-0.1831054538488388
1310477,-0.035400390625,-0.102783203125,-0.9788818359375,7.202147960662842,-1.4648436307907104,-0.30517578125
1310494,-0.0350341796875,-0.0992431640625,-0.990478515625,6.652831554412842,-2.25830078125,-0.1831054538488388
1310527,-0.0416259765625,-0.1064453125,-1.0662841796875,6.103515148162842,-0.6103515625,-0.3662109076976776
1310544,-0.0389404296875,-0.1025390625,-1.038330078125,5.981444835662842,-0.2441406100988388,-0.3662109076976776
1310560,-0.03369140625,-0.0855712890625,-0.98095703125,5.0048828125,-0.7934569716453552,-0.2441406100988388
1310593,-0.0465087890625,-0.092529296875,-1.077880859375,4.0283203125,-0.9155272841453552,0.1220703050494194
1310614,-0.0489501953125,-0.11181640625,-1.0908203125,4.150390625,0.3662109076976776,0.0
1310630,-0.0411376953125,-0.1094970703125,-1.0318603515625,4.33349609375,0.7324218153953552,-0.1831054538488388
1310644,-0.043701171875,-0.0948486328125,-1.0274658203125,4.0283203125,0.3662109076976776,-0.2441406100988388
1310661,-0.0504150390625,-0.0963134765625,-1.062255859375,3.662109136581421,0.1220703050494194,-0.0610351525247097
1310678,-0.0601806640625,-0.1046142578125,-1.0848388671875,3.723144292831421,1.03759765625,-0.0610351525247097
1310711,-0.05517578125,-0.1097412109375,-1.00244140625,4.2724609375,1.0986328125,-0.3662109076976776
1310727,-0.0548095703125,-0.0980224609375,-1.002197265625,3.967284917831421,0.0,-0.2441406100988388
1310743,-0.0587158203125,-0.09912109375,-1.0404052734375,3.845214605331421,-0.1220703050494194,-0.1220703050494194
1310759,-0.0616455078125,-0.10205078125,-1.0675048828125,3.967284917831421,0.4272460639476776,-0.1831054538488388
1310784,-0.0546875,-0.1024169921875,-1.0211181640625,4.2724609375,0.30517578125,-0.30517578125
1310800,-0.0489501953125,-0.0965576171875,-1.0113525390625,4.21142578125,-0.1831054538488388,-0.30517578125
1310817,-0.0546875,-0.09375,-1.06396484375,4.08935546875,-0.9155272841453552,-0.30517578125
1310834,-0.058349609375,-0.0927734375,-1.07373046875,4.33349609375,-0.7934569716453552,-0.3662109076976776
1310851,-0.060302734375,-0.09375,-1.043701171875,4.82177734375,-0.6713866591453552,-0.3662109076976776
1310883,-0.0537109375,-0.0855712890625,-0.995849609375,4.94384765625,-1.7700194120407104,-0.4272460639476776
1310900,-0.0538330078125,-0.075439453125,-1.0262451171875,4.45556640625,-2.197265625,-0.30517578125
1310916,-0.0540771484375,-0.0712890625,-1.041015625,4.39453125,-2.197265625,-0.1831054538488388
1310948,-0.0498046875,-0.06884765625,-1.037841796875,4.150390625,-2.624511480331421,-0.0610351525247097
1310969,-0.050048828125,-0.0750732421875,-1.077880859375,4.08935546875,-2.807616949081421,0.0
1310986,-0.047607421875,-0.07421875,-1.084716796875,4.0283203125,-2.38037109375,-0.0610351525247097
1311003,-0.04345703125,-0.06884765625,-1.0631103515625,3.967284917831421,-2.13623046875,-0.0610351525247097
1311019,-0.0404052734375,-0.0625,-1.0372314453125,3.723144292831421,-2.01416015625,0.0
1311036,-0.03857421875,-0.0643310546875,-1.0394287109375,3.173827886581421,-2.0751953125,0.1220703050494194
1311069,-0.0308837890625,-0.0609130859375,-1.0262451171875,1.8920897245407104,-1.3427733182907104,0.30517578125
1311135,-0.0322265625,-0.065185546875,-1.0501708984375,0.9765624403953552,0.0,0.1831054538488388
1311157,-0.0318603515625,-0.0633544921875,-1.0340576171875,0.6103515625,0.0,0.0610351525247097
1311177,-0.0374755859375,-0.0577392578125,-1.044677734375,0.1220703050494194,0.1220703050494194,0.1220703050494194
1311193,-0.0400390625,-0.060302734375,-1.0391845703125,-0.30517578125,0.4272460639476776,0.1831054538488388
1311210,-0.0438232421875,-0.0643310546875,-1.0159912109375,-0.6103515625,0.54931640625,0.1831054538488388
1311243,-0.043701171875,-0.0660400390625,-1.0279541015625,-1.5258787870407104,0.1220703050494194,0.0610351525247097
1311260,-0.0443115234375,-0.064453125,-1.0341796875,-1.6479490995407104,0.4272460639476776,0.0610351525247097
1311277,-0.0447998046875,-0.06298828125,-1.02490234375,-1.6479490995407104,0.4272460639476776,0.0610351525247097
1311308,-0.0404052734375,-0.0645751953125,-0.989990234375,-1.7089842557907104,-0.0610351525247097,0.0
1311329,-0.04150390625,-0.06591796875,-1.0040283203125,-1.7700194120407104,-0.6103515625,0.0
1311345,-0.042724609375,-0.06787109375,-1.0279541015625,-1.5869139432907104,-0.3662109076976776,0.0610351525247097
1311362,-0.038330078125,-0.06396484375,-0.98876953125,-1.4648436307907104,-0.2441406100988388,-0.0610351525247097
1311379,-0.0345458984375,-0.05908203125,-0.957275390625,-1.3427733182907104,-0.6103515625,-0.0610351525247097
1311395,-0.0341796875,-0.055419921875,-0.966552734375,-1.3427733182907104,-1.3427733182907104,0.0
1311427,-0.036376953125,-0.0643310546875,-0.99462890625,-1.15966796875,-0.9765624403953552,0.0610351525247097
1311449,-0.033203125,-0.0654296875,-0.9805908203125,-1.0986328125,-0.9765624403953552,0.0
1311465,-0.0306396484375,-0.0611572265625,-0.9818115234375,-0.9765624403953552,-1.220703125,-0.0610351525247097
1311482,-0.03271484375,-0.0582275390625,-1.0128173828125,-0.9155272841453552,-1.15966796875,0.0
1311499,-0.0302734375,-0.0557861328125,-1.006103515625,-0.8544921278953552,-0.6103515625,0.0
1311515,-0.029541015625,-0.0594482421875,-0.9884033203125,-0.7324218153953552,-0.1831054538488388,0.0610351525247097
1311549,-0.0302734375,-0.0638427734375,-0.9652099609375,-0.54931640625,-0.4882812201976776,0.0
1311615,-0.049072265625,-0.05908203125,-0.8538818359375,-0.7324218153953552,-2.13623046875,0.30517578125
1311637,-0.053466796875,-0.068359375,-0.9942626953125,-2.807616949081421,-5.676269054412842,0.9155272841453552
1311653,-0.060791015625,-0.1192626953125,-1.663330078125,-1.9531248807907104,-3.601073980331421,0.6713866591453552
1311674,-0.021484375,-0.0689697265625,-0.8616943359375,-1.03759765625,2.25830078125,0.2441406100988388
1311691,-0.03076171875,-0.066650390625,-0.8382568359375,-1.0986328125,1.15966796875,0.1831054538488388
1311707,-0.0272216796875,-0.065673828125,-0.9080810546875,-0.4272460639476776,0.7324218153953552,0.1220703050494194
1311721,-0.0189208984375,-0.0673828125,-0.9017333984375,-0.3662109076976776,-0.2441406100988388,0.30517578125
1311740,-0.025634765625,-0.067626953125,-0.8680419921875,-0.6713866591453552,-1.8310545682907104,0.54931640625
1311756,-0.03369140625,-0.077392578125,-0.9005126953125,-0.4882812201976776,-2.0751953125,0.4272460639476776
1311788,-0.0498046875,-0.1002197265625,-1.2255859375,-0.2441406100988388,1.8310545682907104,0.0610351525247097
1311813,-0.0155029296875,-0.0556640625,-0.7969970703125,-0.54931640625,0.9155272841453552,0.1831054538488388
1311829,-0.0445556640625,-0.0772705078125,-0.98046875,-0.4272460639476776,-0.6713866591453552,0.3662109076976776
1311848,-0.0469970703125,-0.09130859375,-1.06005859375,0.0,0.4882812201976776,0.3662109076976776
1311865,-0.025146484375,-0.0838623046875,-0.9063720703125,0.9155272841453552,0.4272460639476776,0.1831054538488388
1311881,-0.0379638671875,-0.0875244140625,-1.008056640625,1.2817381620407104,0.1831054538488388,0.1220703050494194
1311898,-0.043212890625,-0.0849609375,-1.018310546875,1.7089842557907104,0.4272460639476776,0.1831054538488388
1311963,-0.0328369140625,-0.0750732421875,-0.9593505859375,2.50244140625,0.0,0.0610351525247097
1312101,-0.0399169921875,-0.069580078125,-0.9783935546875,4.39453125,-0.3662109076976776,0.1220703050494194
1312118,-0.0362548828125,-0.07177734375,-0.9791259765625,4.57763671875,-0.30517578125,0.0610351525247097
1312151,-0.041015625,-0.06640625,-0.982421875,4.82177734375,-0.30517578125,0.0610351525247097
1312167,-0.0433349609375,-0.0640869140625,-0.9786376953125,4.8828125,-0.30517578125,0.0610351525247097
1312184,-0.041748046875,-0.0631103515625,-0.977783203125,4.8828125,-0.4272460639476776,0.1220703050494194
1312200,-0.035400390625,-0.0670166015625,-0.978759765625,4.94384765625,-0.4272460639476776,0.1220703050494194
1312225,-0.0355224609375,-0.065185546875,-0.9796142578125,5.187987804412842,-0.3662109076976776,0.0
1312241,-0.0380859375,-0.058349609375,-0.97509765625,5.310058116912842,-0.30517578125,-0.0610351525247097
1312258,-0.0394287109375,-0.0537109375,-0.9791259765625,5.065917491912842,-0.4272460639476776,0.0
1312275,-0.0406494140625,-0.0513916015625,-0.981201171875,4.82177734375,-0.4882812201976776,0.1220703050494194
1312291,-0.03857421875,-0.0531005859375,-0.9766845703125,4.39453125,-0.4272460639476776,0.1220703050494194
1312325,-0.03662109375,-0.0582275390625,-0.9808349609375,4.21142578125,-0.3662109076976776,0.0610351525247097
1312342,-0.0396728515625,-0.051513671875,-0.9775390625,4.0283203125,-0.30517578125,0.0610351525247097
1312363,-0.0413818359375,-0.0479736328125,-0.982177734375,3.784179449081421,-0.30517578125,0.1220703050494194
1312379,-0.038330078125,-0.0423583984375,-0.9779052734375,3.112792730331421,-0.3662109076976776,0.1831054538488388
1312396,-0.0364990234375,-0.044189453125,-0.979736328125,2.746581792831421,-0.30517578125,0.2441406100988388
1312413,-0.03466796875,-0.04931640625,-0.98046875,2.197265625,-0.2441406100988388,0.2441406100988388
1312446,-0.0399169921875,-0.044677734375,-0.9788818359375,1.220703125,-0.4272460639476776,0.1831054538488388
1312463,-0.0400390625,-0.0430908203125,-0.9801025390625,0.7934569716453552,-0.2441406100988388,0.30517578125
1312479,-0.0380859375,-0.0439453125,-0.982177734375,0.6103515625,-0.2441406100988388,0.30517578125
1312511,-0.0369873046875,-0.0523681640625,-0.97998046875,0.2441406100988388,-0.2441406100988388,0.30517578125
1312559,-0.03857421875,-0.0435791015625,-0.9791259765625,-0.1831054538488388,-0.2441406100988388,0.2441406100988388
1312581,-0.0372314453125,-0.048583984375,-0.9803466796875,-0.4882812201976776,-0.1831054538488388,0.4272460639476776
1312598,-0.0374755859375,-0.0517578125,-0.977294921875,-0.6103515625,-0.1831054538488388,0.3662109076976776
1312633,-0.0384521484375,-0.0521240234375,-0.9786376953125,-0.7324218153953552,-0.1831054538488388,0.1831054538488388
1312649,-0.036865234375,-0.04931640625,-0.97705078125,-0.7934569716453552,-0.1831054538488388,0.2441406100988388
1312666,-0.037353515625,-0.0487060546875,-0.9793701171875,-0.9155272841453552,-0.1831054538488388,0.3662109076976776
1312682,-0.0380859375,-0.0535888671875,-0.978515625,-0.9765624403953552,-0.1831054538488388,0.3662109076976776
1312699,-0.0391845703125,-0.0552978515625,-0.9779052734375,-0.9155272841453552,-0.2441406100988388,0.3662109076976776
1312720,-0.0394287109375,-0.058349609375,-0.98193359375,-0.7934569716453552,-0.2441406100988388,0.2441406100988388
1312736,-0.0377197265625,-0.056884765625,-0.97900390625,-0.7324218153953552,-0.1831054538488388,0.2441406100988388
1312757,-0.0377197265625,-0.053955078125,-0.9774169921875,-0.54931640625,-0.1831054538488388,0.30517578125
1312774,-0.03857421875,-0.05810546875,-0.982177734375,-0.4882812201976776,-0.1831054538488388,0.30517578125
1312790,-0.0390625,-0.05859375,-0.9775390625,-0.3662109076976776,-0.1831054538488388,0.30517578125
1312807,-0.0394287109375,-0.059814453125,-0.982177734375,-0.30517578125,-0.1831054538488388,0.1831054538488388
1312824,-0.037109375,-0.055419921875,-0.9779052734375,-0.30517578125,-0.1831054538488388,0.2441406100988388
1312840,-0.03759765625,-0.0545654296875,-0.974365234375,-0.3662109076976776,-0.2441406100988388,0.30517578125
1312874,-0.0380859375,-0.0616455078125,-0.978759765625,-0.2441406100988388,-0.2441406100988388,0.3662109076976776
1312896,-0.037353515625,-0.06201171875,-0.9810791015625,-0.1220703050494194,-0.1831054538488388,0.30517578125
1312912,-0.03759765625,-0.0615234375,-0.9769287109375,0.0,-0.1220703050494194,0.1831054538488388
1312929,-0.0389404296875,-0.056396484375,-0.978515625,-0.0610351525247097,-0.30517578125,0.2441406100988388
1312946,-0.0394287109375,-0.0562744140625,-0.9805908203125,-0.0610351525247097,-0.2441406100988388,0.30517578125
1312962,-0.0386962890625,-0.0570068359375,-0.97607421875,0.0,-0.2441406100988388,0.3662109076976776
1312981,-0.0374755859375,-0.0640869140625,-0.9805908203125,0.1220703050494194,-0.1220703050494194,0.30517578125
1312998,-0.036865234375,-0.0635986328125,-0.9781494140625,0.3662109076976776,-0.2441406100988388,0.1831054538488388
1313018,-0.0374755859375,-0.0596923828125,-0.978515625,0.4882812201976776,-0.30517578125,0.2441406100988388
1313048,-0.040283203125,-0.058837890625,-0.97900390625,0.54931640625,-0.1831054538488388,0.2441406100988388
1313070,-0.03759765625,-0.061767578125,-0.977294921875,0.7934569716453552,-0.1831054538488388,0.2441406100988388
1313086,-0.03759765625,-0.0655517578125,-0.9786376953125,0.9765624403953552,-0.2441406100988388,0.2441406100988388
1313103,-0.0389404296875,-0.0640869140625,-0.97998046875,1.15966796875,-0.2441406100988388,0.1831054538488388
1313120,-0.0408935546875,-0.0582275390625,-0.978271484375,1.15966796875,-0.30517578125,0.1831054538488388
1313136,-0.0399169921875,-0.0545654296875,-0.978271484375,1.0986328125,-0.30517578125,0.1831054538488388
1313168,-0.0394287109375,-0.0606689453125,-0.977783203125,0.9765624403953552,-0.30517578125,0.30517578125
1313184,-0.039306640625,-0.0635986328125,-0.9786376953125,1.0986328125,-0.30517578125,0.3662109076976776
1313200,-0.0396728515625,-0.0621337890625,-0.9794921875,1.220703125,-0.30517578125,0.2441406100988388
1313234,-0.0369873046875,-0.05712890625,-0.9791259765625,1.3427733182907104,-0.2441406100988388,0.1831054538488388
1313256,-0.0367431640625,-0.0584716796875,-0.97998046875,1.4038084745407104,-0.30517578125,0.1831054538488388
1313272,-0.039306640625,-0.0596923828125,-0.978515625,1.4648436307907104,-0.30517578125,0.1831054538488388
1313289,-0.041748046875,-0.060302734375,-0.9781494140625,1.4648436307907104,-0.30517578125,0.1831054538488388
1313306,-0.0386962890625,-0.0576171875,-0.9798583984375,1.5869139432907104,-0.30517578125,0.1831054538488388
1313322,-0.0364990234375,-0.0562744140625,-0.977294921875,1.5869139432907104,-0.2441406100988388,0.1831054538488388
1313339,-0.0372314453125,-0.054443359375,-0.9796142578125,1.4038084745407104,-0.2441406100988388,0.2441406100988388
1313360,-0.0399169921875,-0.0555419921875,-0.9801025390625,1.3427733182907104,-0.2441406100988388,0.2441406100988388
1313376,-0.0382080078125,-0.0577392578125,-0.975830078125,1.2817381620407104,-0.30517578125,0.2441406100988388
1313392,-0.0384521484375,-0.05810546875,-0.9793701171875,1.220703125,-0.3662109076976776,0.30517578125
1313408,-0.0389404296875,-0.0556640625,-0.9794921875,1.15966796875,-0.2441406100988388,0.1831054538488388
1313430,-0.037841796875,-0.0556640625,-0.978271484375,1.15966796875,-0.1831054538488388,0.1220703050494194
1313446,-0.037109375,-0.054443359375,-0.9793701171875,1.0986328125,-0.2441406100988388,0.1831054538488388
1313463,-0.038818359375,-0.0560302734375,-0.9805908203125,1.03759765625,-0.30517578125,0.1831054538488388
1313480,-0.0411376953125,-0.0550537109375,-0.9798583984375,0.9765624403953552,-0.30517578125,0.1831054538488388
1313496,-0.0386962890625,-0.0535888671875,-0.9757080078125,0.9155272841453552,-0.30517578125,0.2441406100988388
1313529,-0.037353515625,-0.0543212890625,-0.9793701171875,0.4882812201976776,-0.30517578125,0.2441406100988388
1313545,-0.0389404296875,-0.054443359375,-0.978515625,0.3662109076976776,-0.30517578125,0.2441406100988388
1313561,-0.0390625,-0.0550537109375,-0.9827880859375,0.30517578125,-0.30517578125,0.2441406100988388
1313597,-0.0394287109375,-0.0546875,-0.9813232421875,0.0,-0.1831054538488388,0.2441406100988388
1313613,-0.0384521484375,-0.0538330078125,-0.98095703125,-0.0610351525247097,-0.1220703050494194,0.2441406100988388
1313629,-0.038330078125,-0.055908203125,-0.9779052734375,-0.1220703050494194,-0.2441406100988388,0.30517578125
1313645,-0.03759765625,-0.0562744140625,-0.97998046875,-0.1831054538488388,-0.30517578125,0.3662109076976776
1313708,-0.038818359375,-0.0584716796875,-0.97412109375,0.0610351525247097,-0.3662109076976776,0.30517578125
1313729,-0.0404052734375,-0.0592041015625,-0.9849853515625,0.0610351525247097,-0.30517578125,0.30517578125
1313746,-0.0389404296875,-0.0584716796875,-0.9810791015625,0.1831054538488388,-0.30517578125,0.30517578125
1313763,-0.03662109375,-0.0565185546875,-0.97314453125,0.0610351525247097,-0.4272460639476776,0.30517578125
1313779,-0.0394287109375,-0.054931640625,-0.986328125,-0.0610351525247097,-0.4272460639476776,0.2441406100988388
1313796,-0.038818359375,-0.055908203125,-0.9713134765625,-0.30517578125,-0.3662109076976776,0.30517578125
1313828,-0.0352783203125,-0.062744140625,-0.970458984375,-0.1831054538488388,-0.6103515625,0.3662109076976776
1313849,-0.0323486328125,-0.062255859375,-0.95849609375,-0.0610351525247097,-1.03759765625,0.4272460639476776
1313865,-0.033203125,-0.067626953125,-0.9808349609375,0.54931640625,-2.01416015625,0.4882812201976776
1313882,-0.039794921875,-0.0689697265625,-0.982421875,1.4648436307907104,-2.563476324081421,0.4882812201976776
1313899,-0.0418701171875,-0.0662841796875,-0.9893798828125,1.9531248807907104,-2.685546636581421,0.4882812201976776
1313915,-0.0379638671875,-0.0677490234375,-0.9996337890625,3.417968511581421,-2.868652105331421,0.6103515625
1313948,-0.0029296875,-0.0684814453125,-1.169921875,5.615233898162842,-2.929687261581421,0.9765624403953552
1313969,-0.005126953125,-0.06201171875,-1.3416748046875,7.019042491912842,-3.173827886581421,1.5869139432907104
1313989,-0.0108642578125,-0.0733642578125,-1.4512939453125,9.70458984375,-1.5869139432907104,1.7700194120407104
1314005,-0.0108642578125,-0.067626953125,-1.447265625,10.559081077575684,-0.9155272841453552,1.8310545682907104
1314069,-0.0396728515625,-0.0517578125,-1.302001953125,10.864256858825684,0.7324218153953552,3.479003667831421
1314085,-0.04541015625,-0.052490234375,-1.301513671875,10.620116233825684,0.54931640625,3.662109136581421
1314101,-0.047607421875,-0.0555419921875,-1.3731689453125,11.352538108825684,0.6713866591453552,4.0283203125
1314137,-0.033203125,-0.012451171875,-1.395751953125,12.512206077575684,2.01416015625,4.08935546875
1314153,-0.037109375,-0.0098876953125,-1.4091796875,13.244627952575684,2.3193359375,4.57763671875
1314169,-0.044921875,-0.005859375,-1.4189453125,13.427733421325684,3.051757574081421,5.187987804412842
1314185,-0.049072265625,-0.01123046875,-1.409423828125,13.793944358825684,3.295898199081421,5.371093273162842
1314207,-0.057861328125,-0.0150146484375,-1.406982421875,15.014647483825684,3.723144292831421,5.432128429412842
1314223,-0.059326171875,0.00146484375,-1.3955078125,15.624999046325684,4.7607421875,5.615233898162842
1314240,-0.0577392578125,0.01611328125,-1.3505859375,15.502928733825684,5.126952648162842,5.798339366912842
1314257,-0.0576171875,0.015869140625,-1.323486328125,14.770506858825684,5.981444835662842,6.225585460662842
1314273,-0.0589599609375,0.0213623046875,-1.249267578125,13.488768577575684,6.591796398162842,6.591796398162842
1314307,-0.063720703125,0.0267333984375,-1.1427001953125,10.986327171325684,6.469726085662842,6.835937023162842
1314323,-0.0692138671875,0.0394287109375,-1.105224609375,8.97216796875,6.164550304412842,7.263183116912842
1314339,-0.075439453125,0.0390625,-1.0787353515625,7.385253429412842,6.103515148162842,7.507323741912842
1314371,-0.0770263671875,0.0340576171875,-1.0469970703125,5.493163585662842,6.286620616912842,7.812499523162842
1314419,-0.0694580078125,0.037841796875,-0.8707275390625,0.3662109076976776,6.225585460662842,8.4228515625
1314441,-0.0699462890625,0.02392578125,-0.8099365234375,-0.54931640625,6.103515148162842,8.48388671875
1314458,-0.07080078125,0.0206298828125,-0.7889404296875,-2.25830078125,5.859374523162842,8.60595703125
1314491,-0.0670166015625,0.0233154296875,-0.668701171875,-4.8828125,5.798339366912842,8.60595703125
1314564,-0.0582275390625,-0.001220703125,-0.5157470703125,-8.36181640625,4.08935546875,8.544921875
1314581,-0.0548095703125,0.0020751953125,-0.49658203125,-8.6669921875,3.906249761581421,8.48388671875
1314598,-0.052490234375,0.0023193359375,-0.4898681640625,-9.033203125,3.479003667831421,8.48388671875
1314618,-0.05126953125,-0.005615234375,-0.4635009765625,-9.1552734375,3.234863042831421,8.48388671875
1314635,-0.0478515625,-0.0074462890625,-0.4385986328125,-8.97216796875,2.929687261581421,8.4228515625
1314651,-0.0433349609375,-0.007080078125,-0.4205322265625,-9.033203125,1.9531248807907104,8.4228515625
1314667,-0.0419921875,-0.0068359375,-0.4283447265625,-8.97216796875,1.4038084745407104,8.4228515625
1314684,-0.0452880859375,-0.0123291015625,-0.4913330078125,-8.544921875,0.8544921278953552,8.30078125
1314700,-0.0450439453125,-0.0206298828125,-0.5413818359375,-7.995604991912842,0.4882812201976776,8.23974609375
1314735,-0.0504150390625,-0.0313720703125,-0.64208984375,-6.530761241912842,-0.1831054538488388,7.873534679412842
1314757,-0.0555419921875,-0.0311279296875,-0.7332763671875,-5.065917491912842,-0.0610351525247097,7.568358898162842
1314773,-0.0535888671875,-0.036865234375,-0.8048095703125,-4.08935546875,0.0,7.568358898162842
1314794,-0.050537109375,-0.0548095703125,-0.86669921875,-1.7700194120407104,0.1220703050494194,7.446288585662842
1314811,-0.05908203125,-0.0704345703125,-0.9453125,1.5258787870407104,0.1831054538488388,7.019042491912842
1314827,-0.06005859375,-0.0615234375,-0.9508056640625,4.94384765625,0.6713866591453552,6.469726085662842
1314844,-0.0679931640625,-0.0555419921875,-0.99853515625,8.30078125,0.7324218153953552,6.347655773162842
1314861,-0.0726318359375,-0.0511474609375,-1.0418701171875,11.169432640075684,1.15966796875,5.981444835662842
1314877,-0.07666015625,-0.0469970703125,-1.0595703125,12.695311546325684,1.4038084745407104,5.859374523162842
1314909,-0.0811767578125,-0.0260009765625,-1.0225830078125,16.4794921875,1.9531248807907104,5.371093273162842
1314973,-0.089599609375,0.02294921875,-0.961181640625,19.83642578125,1.5869139432907104,4.57763671875
1314989,-0.0936279296875,0.0279541015625,-0.9576416015625,19.8974609375,1.7089842557907104,4.45556640625
1315005,-0.0938720703125,0.0347900390625,-0.943603515625,19.8974609375,1.6479490995407104,4.21142578125
1315021,-0.095458984375,0.03857421875,-0.9239501953125,19.4091796875,1.3427733182907104,4.0283203125
1315038,-0.09716796875,0.0394287109375,-0.9166259765625,18.98193359375,1.15966796875,3.906249761581421
1315059,-0.0987548828125,0.041748046875,-0.90869140625,18.1884765625,0.6103515625,3.662109136581421
1315075,-0.100830078125,0.043212890625,-0.923095703125,17.822265625,0.2441406100988388,3.540038824081421
1315096,-0.103759765625,0.042236328125,-0.9547119140625,16.845703125,-0.3662109076976776,3.112792730331421
1315112,-0.1043701171875,0.044677734375,-0.96533203125,16.4794921875,-0.4272460639476776,2.929687261581421
1315133,-0.10302734375,0.0396728515625,-0.9599609375,15.380858421325684,-0.6713866591453552,2.44140625
1315150,-0.100341796875,0.033203125,-0.9542236328125,15.014647483825684,-0.9765624403953552,2.25830078125
1315167,-0.10107421875,0.033203125,-0.963623046875,14.282225608825684,-1.4648436307907104,1.7700194120407104
1315187,-0.0992431640625,0.0379638671875,-0.9693603515625,13.549803733825684,-1.5258787870407104,1.5258787870407104
1315207,-0.095947265625,0.0408935546875,-0.960205078125,12.573241233825684,-1.8310545682907104,1.220703125
1315223,-0.096435546875,0.03857421875,-0.9666748046875,11.413573265075684,-2.01416015625,0.9155272841453552
1315239,-0.094970703125,0.038330078125,-0.9678955078125,10.803221702575684,-2.01416015625,0.7324218153953552
1315271,-0.0875244140625,0.041259765625,-0.9600830078125,8.85009765625,-2.01416015625,0.1220703050494194
1315287,-0.0867919921875,0.04052734375,-0.95751953125,7.629394054412842,-2.13623046875,-0.0610351525247097
1315303,-0.08203125,0.043701171875,-0.96337890625,6.408690929412842,-2.197265625,-0.4272460639476776
1315319,-0.081787109375,0.043701171875,-0.9710693359375,5.798339366912842,-2.13623046875,-0.6103515625
1315339,-0.08056640625,0.048095703125,-0.9736328125,4.45556640625,-1.8920897245407104,-0.9155272841453552
1315355,-0.0811767578125,0.0499267578125,-0.9718017578125,3.112792730331421,-1.8310545682907104,-1.15966796875
1315387,-0.0794677734375,0.058349609375,-0.9830322265625,1.0986328125,-1.7089842557907104,-1.6479490995407104
1315403,-0.0794677734375,0.07763671875,-0.9920654296875,-0.6103515625,-1.5258787870407104,-1.8920897245407104
1315419,-0.0792236328125,0.081298828125,-0.99609375,-1.4648436307907104,-1.3427733182907104,-1.9531248807907104
1315450,-0.0738525390625,0.0718994140625,-0.9742431640625,-1.4038084745407104,-1.0986328125,-2.685546636581421
1315472,-0.07373046875,0.0848388671875,-0.9747314453125,-3.417968511581421,-1.0986328125,-2.807616949081421
1315488,-0.0745849609375,0.08251953125,-0.9786376953125,-4.08935546875,-1.03759765625,-3.051757574081421
1315505,-0.073486328125,0.0833740234375,-0.9803466796875,-4.638671875,-0.9765624403953552,-3.234863042831421
1315522,-0.0738525390625,0.0865478515625,-0.9786376953125,-5.432128429412842,-0.7934569716453552,-3.417968511581421
1315538,-0.0733642578125,0.08251953125,-0.9638671875,-6.164550304412842,-0.6713866591453552,-3.601073980331421
1315588,-0.071044921875,0.07373046875,-0.98095703125,-7.446288585662842,-0.8544921278953552,-4.08935546875
1315640,-0.0716552734375,0.0596923828125,-0.977294921875,-7.629394054412842,-0.30517578125,-4.5166015625
1315657,-0.0755615234375,0.0496826171875,-0.99462890625,-7.507323741912842,-0.3662109076976776,-4.57763671875
1315690,-0.07861328125,0.046630859375,-0.9910888671875,-6.591796398162842,0.2441406100988388,-4.8828125
1315707,-0.082275390625,0.0452880859375,-0.9871826171875,-5.920409679412842,0.1831054538488388,-4.94384765625
1315723,-0.08642578125,0.041015625,-0.9915771484375,-5.0048828125,0.1220703050494194,-4.94384765625
1315740,-0.08740234375,0.0399169921875,-0.9937744140625,-4.5166015625,0.1220703050494194,-4.94384765625
1315760,-0.0877685546875,0.0399169921875,-0.991943359375,-3.601073980331421,0.0610351525247097,-5.0048828125
1315776,-0.088623046875,0.0426025390625,-0.980712890625,-2.929687261581421,0.0,-5.0048828125
1315792,-0.0906982421875,0.050048828125,-0.9669189453125,-2.624511480331421,0.0,-5.0048828125
1315809,-0.0904541015625,0.05126953125,-0.9642333984375,-2.0751953125,-0.2441406100988388,-4.82177734375
1315830,-0.089599609375,0.0537109375,-0.9619140625,-1.5258787870407104,-0.3662109076976776,-4.82177734375
1315846,-0.0859375,0.0599365234375,-0.95166015625,-1.2817381620407104,-0.4272460639476776,-4.82177734375
1315863,-0.0848388671875,0.0623779296875,-0.94970703125,-0.8544921278953552,-0.6103515625,-4.69970703125
1315880,-0.0836181640625,0.066650390625,-0.957763671875,-0.54931640625,-0.7934569716453552,-4.638671875
1315896,-0.083984375,0.0728759765625,-0.954345703125,-0.3662109076976776,-0.7934569716453552,-4.57763671875
1315927,-0.08056640625,0.073974609375,-0.953857421875,0.3662109076976776,-1.0986328125,-4.21142578125
1315943,-0.0775146484375,0.0732421875,-0.9669189453125,0.54931640625,-1.15966796875,-4.21142578125
1315959,-0.0771484375,0.0728759765625,-0.97265625,0.9765624403953552,-1.220703125,-4.150390625
1315992,-0.07470703125,0.0667724609375,-0.9873046875,1.7700194120407104,-1.15966796875,-3.967284917831421
1316013,-0.0750732421875,0.0621337890625,-0.9913330078125,2.25830078125,-1.03759765625,-3.845214605331421
1316029,-0.0738525390625,0.060302734375,-0.9879150390625,2.624511480331421,-0.9155272841453552,-3.845214605331421
1316046,-0.0706787109375,0.0606689453125,-0.977783203125,2.807616949081421,-0.8544921278953552,-3.784179449081421
1316112,-0.0694580078125,0.056884765625,-0.9801025390625,4.0283203125,-0.6103515625,-3.295898199081421
1316129,-0.0677490234375,0.0601806640625,-0.9737548828125,4.150390625,-0.6103515625,-3.051757574081421
1316145,-0.066650390625,0.060302734375,-0.9698486328125,4.150390625,-0.6713866591453552,-2.807616949081421
1316161,-0.0670166015625,0.061279296875,-0.9727783203125,4.21142578125,-0.7324218153953552,-2.685546636581421
1316178,-0.06982421875,0.0654296875,-0.983642578125,4.2724609375,-0.6103515625,-2.563476324081421
1316199,-0.070068359375,0.06982421875,-0.97802734375,4.21142578125,-0.4882812201976776,-2.50244140625
1316215,-0.06982421875,0.0706787109375,-0.968505859375,3.967284917831421,-0.4882812201976776,-2.25830078125
1316282,-0.0706787109375,0.0736083984375,-0.9508056640625,2.50244140625,-0.4272460639476776,-1.5258787870407104
1316305,-0.0731201171875,0.0740966796875,-0.9500732421875,1.8310545682907104,-0.4882812201976776,-1.4038084745407104
1316322,-0.0703125,0.071533203125,-0.9451904296875,1.15966796875,-0.4272460639476776,-1.15966796875
1316338,-0.070068359375,0.069091796875,-0.9371337890625,0.7324218153953552,-0.3662109076976776,-1.0986328125
1316359,-0.071044921875,0.067138671875,-0.9239501953125,-0.54931640625,-0.4272460639476776,-0.7324218153953552
1316375,-0.072509765625,0.064697265625,-0.9136962890625,-1.2817381620407104,-0.4882812201976776,-0.6103515625
1316392,-0.0723876953125,0.0635986328125,-0.9072265625,-1.7089842557907104,-0.6103515625,-0.54931640625
1316409,-0.07177734375,0.0587158203125,-0.901611328125,-2.624511480331421,-0.7324218153953552,-0.30517578125
1316430,-0.0704345703125,0.0531005859375,-0.8909912109375,-3.417968511581421,-0.9155272841453552,-0.2441406100988388
1316446,-0.0694580078125,0.052734375,-0.888916015625,-3.906249761581421,-0.9765624403953552,-0.1831054538488388
1316463,-0.0693359375,0.05224609375,-0.8895263671875,-5.0048828125,-0.9155272841453552,-0.0610351525247097
1316480,-0.0665283203125,0.0479736328125,-0.8681640625,-5.615233898162842,-0.7934569716453552,0.0610351525247097
1316496,-0.0634765625,0.04833984375,-0.828369140625,-7.141112804412842,-0.7934569716453552,0.2441406100988388
1316527,-0.0587158203125,0.0474853515625,-0.79052734375,-10.498045921325684,-1.220703125,0.7324218153953552
1316543,-0.0572509765625,0.044921875,-0.7962646484375,-11.352538108825684,-1.4038084745407104,0.8544921278953552
1316559,-0.057373046875,0.044921875,-0.83544921875,-12.695311546325684,-1.4648436307907104,0.9155272841453552
1316591,-0.06494140625,0.0433349609375,-0.908203125,-13.671874046325684,-1.0986328125,1.15966796875
1316607,-0.0679931640625,0.0408935546875,-0.906494140625,-13.793944358825684,-0.1831054538488388,1.3427733182907104
1316623,-0.0657958984375,0.03857421875,-0.8712158203125,-14.038084983825684,0.1220703050494194,1.4038084745407104
1316639,-0.059814453125,0.037353515625,-0.786376953125,-14.953612327575684,-0.2441406100988388,1.4648436307907104
1316664,-0.0570068359375,0.04248046875,-0.77685546875,-16.29638671875,-1.03759765625,1.6479490995407104
1316680,-0.05859375,0.0450439453125,-0.8248291015625,-16.9677734375,-1.15966796875,1.7700194120407104
1316697,-0.06103515625,0.03564453125,-0.847412109375,-17.822265625,-0.6713866591453552,2.0751953125
1316714,-0.0604248046875,0.0323486328125,-0.8369140625,-18.24951171875,-0.0610351525247097,2.197265625
1316730,-0.05419921875,0.0252685546875,-0.7978515625,-18.4326171875,0.0,2.25830078125
1316764,-0.054931640625,0.0164794921875,-0.82958984375,-19.34814453125,-1.03759765625,2.624511480331421
1316781,-0.0638427734375,0.007568359375,-0.901611328125,-18.85986328125,-0.6103515625,2.807616949081421
1316802,-0.0706787109375,-0.0050048828125,-0.9207763671875,-17.63916015625,0.0610351525247097,2.868652105331421
1316818,-0.0679931640625,-0.01953125,-0.8758544921875,-17.02880859375,0.3662109076976776,2.746581792831421
1316835,-0.061767578125,-0.0172119140625,-0.835693359375,-16.29638671875,0.4882812201976776,2.624511480331421
1316852,-0.0557861328125,-0.0157470703125,-0.78759765625,-16.2353515625,-0.54931640625,2.746581792831421
1316885,-0.0653076171875,-0.0245361328125,-0.9097900390625,-15.136717796325684,-1.7089842557907104,2.868652105331421
1316902,-0.0694580078125,-0.050537109375,-0.98974609375,-13.061522483825684,-0.9765624403953552,2.807616949081421
1316918,-0.062744140625,-0.065185546875,-0.982177734375,-10.803221702575684,0.0610351525247097,2.50244140625
1316947,-0.0584716796875,-0.0687255859375,-0.9337158203125,-7.873534679412842,0.0610351525247097,2.50244140625
1316969,-0.06201171875,-0.080810546875,-0.946533203125,-7.080077648162842,0.30517578125,2.3193359375
1316985,-0.0543212890625,-0.08056640625,-0.919189453125,-5.310058116912842,0.4272460639476776,1.9531248807907104
1317002,-0.052734375,-0.0765380859375,-0.923828125,-3.234863042831421,-0.0610351525247097,1.7089842557907104
1317019,-0.0633544921875,-0.073486328125,-0.9742431640625,-2.01416015625,-0.54931640625,1.7089842557907104
1317067,-0.0611572265625,-0.093017578125,-0.9541015625,5.0048828125,0.1831054538488388,1.0986328125
1317083,-0.059326171875,-0.0833740234375,-0.939453125,6.591796398162842,-0.54931640625,0.7324218153953552
1317099,-0.058349609375,-0.06103515625,-0.9639892578125,7.629394054412842,-1.5258787870407104,0.8544921278953552
1317131,-0.0665283203125,-0.08447265625,-1.0245361328125,10.742186546325684,-1.15966796875,0.7324218153953552
1317147,-0.065185546875,-0.087890625,-0.9942626953125,12.023924827575684,-1.0986328125,0.4882812201976776
1317163,-0.060546875,-0.07763671875,-0.9638671875,13.854979515075684,-1.7089842557907104,0.1220703050494194
1317179,-0.0660400390625,-0.0623779296875,-1.0030517578125,14.770506858825684,-2.746581792831421,0.1220703050494194
1317199,-0.0740966796875,-0.0601806640625,-1.0552978515625,15.686034202575684,-2.01416015625,-0.1220703050494194
1317215,-0.07080078125,-0.0523681640625,-1.0347900390625,16.2353515625,-1.8920897245407104,-0.1831054538488388
1317231,-0.0667724609375,-0.05126953125,-1.0084228515625,17.15087890625,-2.50244140625,-0.3662109076976776
1317247,-0.068359375,-0.031982421875,-1.02880859375,17.578125,-2.990722417831421,-0.4272460639476776
1317263,-0.0733642578125,-0.0323486328125,-1.0723876953125,18.24951171875,-3.601073980331421,-0.3662109076976776
1317279,-0.072998046875,-0.03369140625,-1.089111328125,19.22607421875,-2.807616949081421,-0.6103515625
1317311,-0.06689453125,-0.0274658203125,-1.0098876953125,19.95849609375,-4.08935546875,-0.8544921278953552
1317327,-0.0716552734375,-0.005615234375,-1.066650390625,19.95849609375,-4.69970703125,-0.9155272841453552
1317343,-0.07275390625,-0.0037841796875,-1.11376953125,20.080564498901367,-5.126952648162842,-0.9155272841453552
1317359,-0.06884765625,-0.0015869140625,-1.1650390625,20.080564498901367,-4.2724609375,-0.9155272841453552
1317379,-0.0611572265625,-0.00390625,-1.0927734375,20.202634811401367,-3.784179449081421,-1.15966796875
1317395,-0.0565185546875,0.00439453125,-1.0384521484375,20.080564498901367,-4.08935546875,-1.3427733182907104
1317411,-0.0556640625,0.02197265625,-1.0028076171875,18.73779296875,-5.554198741912842,-1.3427733182907104
1317427,-0.0599365234375,0.0322265625,-1.0418701171875,17.9443359375,-5.981444835662842,-1.2817381620407104
1317443,-0.06103515625,0.031494140625,-1.14306640625,17.08984375,-5.676269054412842,-1.220703125
1317459,-0.0576171875,0.0233154296875,-1.1768798828125,16.41845703125,-4.08935546875,-1.2817381620407104
1317489,-0.0487060546875,0.033447265625,-1.0811767578125,15.563963890075684,-4.08935546875,-1.4648436307907104
1317510,-0.0482177734375,0.041015625,-1.0882568359375,14.831542015075684,-4.21142578125,-1.4648436307907104
1317526,-0.0469970703125,0.052001953125,-1.1136474609375,13.244627952575684,-4.0283203125,-1.2817381620407104
1317543,-0.04833984375,0.0460205078125,-1.1044921875,12.634276390075684,-3.662109136581421,-1.15966796875
1317560,-0.0447998046875,0.041748046875,-1.050537109375,11.291502952575684,-3.051757574081421,-1.15966796875
1317576,-0.0447998046875,0.045166015625,-1.039794921875,9.70458984375,-3.479003667831421,-1.4648436307907104
1317610,-0.048095703125,0.057861328125,-1.1483154296875,6.469726085662842,-3.540038824081421,-1.220703125
1317626,-0.047607421875,0.0555419921875,-1.1712646484375,6.103515148162842,-2.929687261581421,-1.2817381620407104
1317642,-0.04638671875,0.0537109375,-1.1405029296875,5.371093273162842,-1.8920897245407104,-1.2817381620407104
1317658,-0.0462646484375,0.0560302734375,-1.06494140625,4.82177734375,-1.7089842557907104,-1.2817381620407104
1317683,-0.045654296875,0.054931640625,-1.0423583984375,3.234863042831421,-2.13623046875,-1.15966796875
1317699,-0.0439453125,0.06103515625,-1.059814453125,1.3427733182907104,-2.44140625,-1.15966796875
1317716,-0.0418701171875,0.059326171875,-1.0653076171875,-0.1220703050494194,-2.0751953125,-0.9765624403953552
1317736,-0.036376953125,0.0572509765625,-1.0675048828125,-1.3427733182907104,-1.7700194120407104,-0.8544921278953552
1317753,-0.03662109375,0.0435791015625,-1.0679931640625,-2.01416015625,-1.5258787870407104,-0.7934569716453552
1317770,-0.036376953125,0.040771484375,-1.0648193359375,-2.746581792831421,-1.4038084745407104,-0.9155272841453552
1317786,-0.038818359375,0.04150390625,-1.070068359375,-2.990722417831421,-1.15966796875,-0.9765624403953552
1317850,-0.061767578125,0.03271484375,-0.894775390625,-6.042479991912842,-4.08935546875,-0.9155272841453552
1317920,-0.014892578125,0.0350341796875,-0.884521484375,2.197265625,2.50244140625,0.1831054538488388
1317937,-0.033935546875,0.0064697265625,-0.8031005859375,-2.929687261581421,0.4272460639476776,0.30517578125
1317970,-0.0345458984375,0.0433349609375,-0.9666748046875,-0.54931640625,1.5258787870407104,0.1831054538488388
1317986,-0.029296875,0.045654296875,-0.9345703125,-1.3427733182907104,1.5258787870407104,0.30517578125
1318003,-0.0125732421875,0.02734375,-0.86376953125,1.0986328125,-0.4272460639476776,-0.3662109076976776
1318035,-0.0367431640625,0.0352783203125,-0.8780517578125,1.5869139432907104,-2.25830078125,-0.6103515625
1318098,-0.0013427734375,0.0360107421875,-0.7755126953125,2.868652105331421,1.0986328125,0.4272460639476776
1318115,-0.0426025390625,0.0596923828125,-0.8704833984375,1.7700194120407104,-0.7934569716453552,0.30517578125
1318148,-0.035400390625,0.06201171875,-1.0570068359375,3.356933355331421,0.54931640625,0.2441406100988388
1318165,-0.01171875,0.04931640625,-0.86279296875,3.051757574081421,-0.3662109076976776,0.30517578125
1318182,-0.0362548828125,0.0592041015625,-1.048095703125,2.929687261581421,-0.30517578125,0.1831054538488388
1318198,-0.037841796875,0.0582275390625,-1.04345703125,3.051757574081421,0.1831054538488388,0.1831054538488388
1318218,-0.029541015625,0.0576171875,-0.923828125,2.990722417831421,-0.1220703050494194,0.0
1318240,-0.0367431640625,0.069580078125,-1.006591796875,2.197265625,-0.4272460639476776,0.1831054538488388
1318256,-0.0321044921875,0.0694580078125,-0.9798583984375,1.4648436307907104,-0.1220703050494194,0.4272460639476776
1318306,-0.0321044921875,0.0552978515625,-0.9853515625,1.0986328125,0.0,0.2441406100988388
1318340,-0.036376953125,0.068115234375,-0.97705078125,0.54931640625,-0.2441406100988388,0.2441406100988388
1318361,-0.031494140625,0.070068359375,-0.9774169921875,-0.1831054538488388,-0.1220703050494194,0.3662109076976776
1318377,-0.0281982421875,0.0635986328125,-0.97412109375,-0.7324218153953552,-0.2441406100988388,0.4272460639476776
1318398,-0.031005859375,0.0562744140625,-0.98681640625,-0.8544921278953552,-0.1831054538488388,0.30517578125
1318414,-0.0325927734375,0.060546875,-0.974365234375,-1.03759765625,-0.1220703050494194,0.1831054538488388
1318430,-0.034912109375,0.0634765625,-0.9779052734375,-1.3427733182907104,-0.0610351525247097,0.2441406100988388
1318446,-0.0340576171875,0.06640625,-0.978271484375,-1.9531248807907104,-0.0610351525247097,0.3662109076976776
1318463,-0.029541015625,0.0628662109375,-0.9771728515625,-2.44140625,-0.1831054538488388,0.4882812201976776
1318484,-0.0306396484375,0.0587158203125,-0.979736328125,-2.563476324081421,-0.1220703050494194,0.4882812201976776
1318500,-0.0333251953125,0.0518798828125,-0.9771728515625,-2.624511480331421,-0.1220703050494194,0.4272460639476776
1318517,-0.034423828125,0.048828125,-0.982177734375,-2.563476324081421,-0.0610351525247097,0.3662109076976776
1318534,-0.0321044921875,0.0537109375,-0.97705078125,-2.624511480331421,0.0,0.3662109076976776
1318564,-0.03173828125,0.05908203125,-0.9801025390625,-3.051757574081421,-0.0610351525247097,0.4882812201976776
1318628,-0.0316162109375,0.0421142578125,-0.9820556640625,-2.685546636581421,-0.0610351525247097,0.3662109076976776
1318649,-0.0311279296875,0.0482177734375,-0.9765625,-2.624511480331421,0.0,0.30517578125
1318665,-0.033935546875,0.0504150390625,-0.981201171875,-2.685546636581421,-0.0610351525247097,0.3662109076976776
1318682,-0.0352783203125,0.046875,-0.9810791015625,-2.685546636581421,-0.1220703050494194,0.4882812201976776
1318699,-0.036376953125,0.0390625,-0.97900390625,-2.563476324081421,-0.1220703050494194,0.4882812201976776
1318715,-0.0335693359375,0.03564453125,-0.9810791015625,-2.44140625,-0.0610351525247097,0.4272460639476776
1318781,-0.0361328125,0.0421142578125,-0.982421875,-2.38037109375,-0.1220703050494194,0.4882812201976776
1318823,-0.0322265625,0.03564453125,-0.9813232421875,-2.38037109375,-0.1831054538488388,0.4272460639476776
1318840,-0.0308837890625,0.0335693359375,-0.97802734375,-2.13623046875,-0.2441406100988388,0.3662109076976776
1318856,-0.029052734375,0.0301513671875,-0.9676513671875,-1.9531248807907104,-0.4272460639476776,0.3662109076976776
1318877,-0.0303955078125,0.0294189453125,-0.981689453125,-1.7700194120407104,-1.4648436307907104,0.3662109076976776
1318893,-0.0361328125,0.0272216796875,-0.9854736328125,-1.4648436307907104,-2.44140625,0.30517578125
1318909,-0.0361328125,0.0262451171875,-0.98828125,-1.03759765625,-3.173827886581421,0.1220703050494194
1318926,-0.0384521484375,0.034423828125,-1.1107177734375,-1.15966796875,-4.0283203125,0.1831054538488388
1318942,-0.0347900390625,0.032958984375,-1.225341796875,-1.4648436307907104,-3.601073980331421,0.4882812201976776
1318958,-0.0196533203125,0.0135498046875,-1.385009765625,-0.9155272841453552,-2.807616949081421,0.6103515625
1318990,-0.0225830078125,0.01171875,-1.410888671875,1.5258787870407104,-1.3427733182907104,-0.0610351525247097
1319006,-0.0263671875,0.0511474609375,-1.3228759765625,1.3427733182907104,-2.0751953125,0.2441406100988388
1319022,-0.0325927734375,0.0599365234375,-1.3409423828125,0.9155272841453552,-2.685546636581421,0.4272460639476776
1319038,-0.039794921875,0.0604248046875,-1.4010009765625,0.1220703050494194,-2.25830078125,0.7934569716453552
1319058,-0.036865234375,0.0263671875,-1.412841796875,0.4882812201976776,-2.50244140625,0.8544921278953552
1319080,-0.034912109375,0.0078125,-1.464111328125,2.3193359375,-2.25830078125,0.6103515625
1319096,-0.0360107421875,0.024658203125,-1.4754638671875,2.990722417831421,-1.8310545682907104,0.3662109076976776
1319113,-0.0380859375,0.04443359375,-1.4417724609375,3.662109136581421,-1.220703125,0.1831054538488388
1319162,-0.0418701171875,0.04931640625,-1.5323486328125,5.187987804412842,-1.15966796875,0.8544921278953552
1319179,-0.034423828125,0.026123046875,-1.513427734375,7.263183116912842,-0.2441406100988388,0.54931640625
1319196,-0.035400390625,0.03369140625,-1.4830322265625,9.033203125,0.4272460639476776,0.1831054538488388
1319228,-0.02978515625,0.0653076171875,-1.354248046875,9.09423828125,1.7089842557907104,0.1831054538488388
1319276,-0.029052734375,0.0601806640625,-1.1953125,6.896972179412842,1.8310545682907104,0.6103515625
1319305,-0.040771484375,0.0711669921875,-1.15087890625,5.981444835662842,2.13623046875,0.4272460639476776
1319322,-0.0430908203125,0.075439453125,-1.1129150390625,4.638671875,2.990722417831421,0.6103515625
1319339,-0.04052734375,0.081298828125,-0.9893798828125,3.784179449081421,3.417968511581421,0.6713866591453552
1319389,-0.034912109375,0.0589599609375,-0.8038330078125,-1.9531248807907104,2.50244140625,1.03759765625
1319421,-0.0364990234375,0.0477294921875,-0.739990234375,-3.723144292831421,3.173827886581421,1.4038084745407104
1319442,-0.0330810546875,0.02783203125,-0.6529541015625,-4.69970703125,3.601073980331421,1.4038084745407104
1319462,-0.027099609375,0.0235595703125,-0.5703125,-5.798339366912842,3.784179449081421,1.5258787870407104
1319516,-0.016845703125,0.013671875,-0.39501953125,-9.8876953125,3.356933355331421,1.3427733182907104
1319545,-0.015869140625,0.0103759765625,-0.3875732421875,-10.803221702575684,3.601073980331421,1.2817381620407104
1319566,-0.0147705078125,0.005615234375,-0.36865234375,-11.169432640075684,3.417968511581421,1.4038084745407104
