tMillis,ax,ay,az,gx,gy,gz
522877,-0.0078125,-0.705322265625,0.7303466796875,0.7324218153953552,-0.30517578125,0.30517578125
522894,-0.008056640625,-0.705322265625,0.7291259765625,0.6713866591453552,-0.2441406100988388,0.30517578125
522910,-0.0081787109375,-0.7064208984375,0.7313232421875,0.6713866591453552,-0.2441406100988388,0.30517578125
522926,-0.0081787109375,-0.706298828125,0.7325439453125,0.6713866591453552,-0.2441406100988388,0.30517578125
522943,-0.0081787109375,-0.7060546875,0.7314453125,0.6713866591453552,-0.30517578125,0.3662109076976776
522959,-0.0076904296875,-0.7061767578125,0.731689453125,0.6713866591453552,-0.30517578125,0.3662109076976776
522995,-0.0079345703125,-0.705078125,0.7325439453125,0.7324218153953552,-0.1831054538488388,0.30517578125
523011,-0.008544921875,-0.70458984375,0.7322998046875,0.6713866591453552,-0.2441406100988388,0.30517578125
523027,-0.0087890625,-0.7054443359375,0.73193359375,0.6713866591453552,-0.2441406100988388,0.30517578125
523043,-0.0081787109375,-0.706787109375,0.7332763671875,0.7324218153953552,-0.30517578125,0.30517578125
523060,-0.0079345703125,-0.7059326171875,0.7315673828125,0.7324218153953552,-0.2441406100988388,0.30517578125
523081,-0.008056640625,-0.7078857421875,0.7335205078125,0.7324218153953552,-0.2441406100988388,0.30517578125
523097,-0.0084228515625,-0.70556640625,0.7314453125,0.7324218153953552,-0.2441406100988388,0.30517578125
523115,-0.00830078125,-0.7037353515625,0.72998046875,0.6103515625,-0.1831054538488388,0.2441406100988388
523132,-0.007568359375,-0.702880859375,0.7291259765625,0.6713866591453552,-0.2441406100988388,0.30517578125
523165,-0.0072021484375,-0.708984375,0.7342529296875,0.6713866591453552,-0.30517578125,0.2441406100988388
523181,-0.0076904296875,-0.7041015625,0.7296142578125,0.7324218153953552,-0.30517578125,0.30517578125
523197,-0.0069580078125,-0.7069091796875,0.7327880859375,0.6713866591453552,-0.1831054538488388,0.30517578125
523230,-0.0086669921875,-0.701904296875,0.727783203125,0.7324218153953552,-0.2441406100988388,0.30517578125
523251,-0.00830078125,-0.7066650390625,0.73388671875,0.7324218153953552,-0.30517578125,0.30517578125
523267,-0.0078125,-0.708740234375,0.7362060546875,0.7324218153953552,-0.30517578125,0.3662109076976776
523284,-0.0089111328125,-0.7060546875,0.732666015625,0.6713866591453552,-0.30517578125,0.30517578125
523301,-0.0076904296875,-0.7032470703125,0.728759765625,0.7324218153953552,-0.30517578125,0.30517578125
523317,-0.00732421875,-0.703369140625,0.7291259765625,0.7934569716453552,-0.2441406100988388,0.30517578125
523355,-0.0086669921875,-0.7059326171875,0.7330322265625,0.6713866591453552,-0.30517578125,0.3662109076976776
523371,-0.0089111328125,-0.7032470703125,0.729248046875,0.7324218153953552,-0.2441406100988388,0.30517578125
523387,-0.0068359375,-0.70751953125,0.732421875,0.7324218153953552,-0.30517578125,0.30517578125
523403,-0.0067138671875,-0.7056884765625,0.73046875,0.7324218153953552,-0.2441406100988388,0.30517578125
523421,-0.0087890625,-0.7054443359375,0.7301025390625,0.6713866591453552,-0.2441406100988388,0.3662109076976776
523442,-0.0076904296875,-0.7056884765625,0.7330322265625,0.6713866591453552,-0.30517578125,0.30517578125
523458,-0.0079345703125,-0.7076416015625,0.7332763671875,0.6713866591453552,-0.2441406100988388,0.30517578125
523525,-0.007568359375,-0.704833984375,0.7314453125,0.6713866591453552,-0.2441406100988388,0.30517578125
523541,-0.0078125,-0.706787109375,0.732666015625,0.6713866591453552,-0.2441406100988388,0.3662109076976776
523562,-0.008544921875,-0.7066650390625,0.7313232421875,0.6713866591453552,-0.2441406100988388,0.30517578125
523582,-0.0079345703125,-0.704833984375,0.730224609375,0.6713866591453552,-0.2441406100988388,0.30517578125
523599,-0.0067138671875,-0.7041015625,0.731689453125,0.6713866591453552,-0.30517578125,0.30517578125
523620,-0.0064697265625,-0.7060546875,0.7327880859375,0.6713866591453552,-0.2441406100988388,0.2441406100988388
523636,-0.0086669921875,-0.707763671875,0.7315673828125,0.6713866591453552,-0.1831054538488388,0.30517578125
523653,-0.0084228515625,-0.7041015625,0.7305908203125,0.7324218153953552,-0.2441406100988388,0.3662109076976776
523670,-0.0074462890625,-0.705322265625,0.732177734375,0.6713866591453552,-0.2441406100988388,0.30517578125
523703,-0.00830078125,-0.7047119140625,0.7305908203125,0.7324218153953552,-0.2441406100988388,0.30517578125
523720,-0.0076904296875,-0.70703125,0.7332763671875,0.6713866591453552,-0.2441406100988388,0.3662109076976776
523736,-0.0081787109375,-0.7059326171875,0.7325439453125,0.6713866591453552,-0.2441406100988388,0.2441406100988388
523768,-0.0074462890625,-0.7080078125,0.7349853515625,0.6713866591453552,-0.2441406100988388,0.30517578125
523784,-0.00830078125,-0.7076416015625,0.7342529296875,0.7324218153953552,-0.30517578125,0.30517578125
523800,-0.00830078125,-0.703857421875,0.7296142578125,0.6713866591453552,-0.2441406100988388,0.30517578125
523836,-0.006103515625,-0.7056884765625,0.7315673828125,0.6713866591453552,-0.30517578125,0.30517578125
523852,-0.0079345703125,-0.7049560546875,0.72998046875,0.7324218153953552,-0.2441406100988388,0.30517578125
523868,-0.0086669921875,-0.7073974609375,0.7337646484375,0.7324218153953552,-0.1831054538488388,0.3662109076976776
523884,-0.0081787109375,-0.7049560546875,0.73095703125,0.6713866591453552,-0.30517578125,0.30517578125
523948,-0.0076904296875,-0.70654296875,0.7335205078125,0.7324218153953552,-0.2441406100988388,0.30517578125
523964,-0.00732421875,-0.707763671875,0.734130859375,0.8544921278953552,-0.30517578125,0.30517578125
523980,-0.0089111328125,-0.702392578125,0.7315673828125,0.9155272841453552,-0.2441406100988388,0.2441406100988388
523996,-0.009033203125,-0.7041015625,0.732177734375,0.9155272841453552,-0.1831054538488388,0.30517578125
524016,-0.0076904296875,-0.7034912109375,0.7308349609375,0.9765624403953552,-0.2441406100988388,0.30517578125
524038,-0.0078125,-0.7061767578125,0.732666015625,0.9765624403953552,-0.2441406100988388,0.2441406100988388
524054,-0.0087890625,-0.70654296875,0.7333984375,1.03759765625,-0.30517578125,0.2441406100988388
524071,-0.0078125,-0.703369140625,0.7291259765625,1.15966796875,-0.2441406100988388,0.2441406100988388
524088,-0.007568359375,-0.7066650390625,0.732177734375,1.220703125,-0.30517578125,0.2441406100988388
524121,-0.0078125,-0.7054443359375,0.730712890625,1.0986328125,-0.30517578125,0.30517578125
524138,-0.0081787109375,-0.7078857421875,0.732666015625,1.15966796875,-0.30517578125,0.2441406100988388
524154,-0.0079345703125,-0.705810546875,0.72998046875,1.15966796875,-0.30517578125,0.2441406100988388
524184,-0.0084228515625,-0.7088623046875,0.7342529296875,1.15966796875,-0.30517578125,0.30517578125
524238,-0.00830078125,-0.7095947265625,0.7322998046875,1.220703125,-0.30517578125,0.1831054538488388
524255,-0.0084228515625,-0.7044677734375,0.7252197265625,1.2817381620407104,-0.30517578125,0.2441406100988388
524272,-0.007568359375,-0.7127685546875,0.734619140625,1.220703125,-0.2441406100988388,0.30517578125
524305,-0.0089111328125,-0.7049560546875,0.725830078125,0.9765624403953552,-0.30517578125,0.2441406100988388
524322,-0.0096435546875,-0.7159423828125,0.7322998046875,0.7934569716453552,-0.4272460639476776,0.2441406100988388
524338,-0.009033203125,-0.708984375,0.7249755859375,0.6713866591453552,-0.4272460639476776,0.2441406100988388
524370,-0.00732421875,-0.7158203125,0.7266845703125,-0.1220703050494194,-0.30517578125,0.2441406100988388
524386,-0.0074462890625,-0.7091064453125,0.723388671875,-0.6713866591453552,-0.30517578125,0.1831054538488388
524402,-0.0086669921875,-0.71142578125,0.7288818359375,-1.15966796875,-0.3662109076976776,0.2441406100988388
524418,-0.0103759765625,-0.7108154296875,0.72607421875,-1.3427733182907104,-0.30517578125,0.2441406100988388
524442,-0.0115966796875,-0.7109375,0.7288818359375,-1.7700194120407104,-0.1831054538488388,0.30517578125
524458,-0.0074462890625,-0.7054443359375,0.7325439453125,-1.8310545682907104,-0.1831054538488388,0.30517578125
524475,-0.0045166015625,-0.7039794921875,0.733154296875,-1.8310545682907104,-0.2441406100988388,0.3662109076976776
524492,-0.0091552734375,-0.703857421875,0.7318115234375,-1.7700194120407104,-0.30517578125,0.2441406100988388
524542,-0.0067138671875,-0.6961669921875,0.7291259765625,0.7324218153953552,0.0,0.4882812201976776
524559,-0.005126953125,-0.6912841796875,0.7420654296875,1.15966796875,0.0,0.54931640625
524580,-0.009033203125,-0.7076416015625,0.7379150390625,2.01416015625,0.0,0.6103515625
524596,-0.008056640625,-0.6885986328125,0.7451171875,2.563476324081421,-0.2441406100988388,0.4272460639476776
524663,-0.008056640625,-0.704833984375,0.736083984375,3.845214605331421,-0.4272460639476776,0.1220703050494194
524679,-0.0108642578125,-0.7069091796875,0.7354736328125,4.0283203125,-0.3662109076976776,0.0610351525247097
524696,-0.009033203125,-0.693115234375,0.7369384765625,4.69970703125,-0.4272460639476776,0.0610351525247097
524726,-0.0062255859375,-0.697998046875,0.737548828125,5.981444835662842,-0.54931640625,0.1220703050494194
524747,-0.0113525390625,-0.7030029296875,0.7288818359375,6.713866710662842,-0.3662109076976776,0.0610351525247097
524763,-0.00830078125,-0.70361328125,0.7325439453125,7.080077648162842,-0.4272460639476776,0.0610351525247097
524780,-0.0072021484375,-0.70751953125,0.7296142578125,7.812499523162842,-0.4882812201976776,0.1220703050494194
524797,-0.006103515625,-0.7098388671875,0.7264404296875,8.11767578125,-0.4882812201976776,0.1220703050494194
524817,-0.00830078125,-0.7178955078125,0.7186279296875,8.11767578125,-0.54931640625,0.1220703050494194
524838,-0.0123291015625,-0.7242431640625,0.712890625,7.812499523162842,-0.4882812201976776,0.1831054538488388
524855,-0.010498046875,-0.7242431640625,0.7130126953125,7.202147960662842,-0.4882812201976776,0.1220703050494194
524875,-0.0096435546875,-0.7279052734375,0.71044921875,6.652831554412842,-0.4272460639476776,0.1220703050494194
524907,-0.010498046875,-0.7305908203125,0.7078857421875,5.554198741912842,-0.4882812201976776,0.1220703050494194
524923,-0.01171875,-0.732177734375,0.705810546875,4.7607421875,-0.4272460639476776,0.0610351525247097
524939,-0.01025390625,-0.7315673828125,0.703857421875,4.33349609375,-0.3662109076976776,0.0610351525247097
524975,-0.0113525390625,-0.735595703125,0.69970703125,2.685546636581421,-0.30517578125,0.3662109076976776
524991,-0.0106201171875,-0.736328125,0.69970703125,2.13623046875,-0.1831054538488388,0.4272460639476776
525007,-0.009033203125,-0.7392578125,0.703125,1.0986328125,-0.1831054538488388,0.4272460639476776
525023,-0.010009765625,-0.7353515625,0.701416015625,0.0,-0.1831054538488388,0.3662109076976776
525040,-0.0106201171875,-0.7359619140625,0.700927734375,-0.6103515625,-0.2441406100988388,0.4272460639476776
525061,-0.0103759765625,-0.739990234375,0.700927734375,-1.8310545682907104,-0.1831054538488388,0.54931640625
525077,-0.0087890625,-0.73779296875,0.69970703125,-2.44140625,-0.1831054538488388,0.4882812201976776
525144,-0.00927734375,-0.72509765625,0.7132568359375,-6.042479991912842,-0.1220703050494194,0.4882812201976776
525160,-0.00927734375,-0.72412109375,0.71337890625,-6.286620616912842,-0.0610351525247097,0.54931640625
525176,-0.010009765625,-0.7213134765625,0.715087890625,-6.530761241912842,0.0610351525247097,0.6103515625
525207,-0.00830078125,-0.712158203125,0.7239990234375,-6.408690929412842,0.1220703050494194,0.6103515625
525228,-0.0068359375,-0.7066650390625,0.7281494140625,-6.225585460662842,0.1220703050494194,0.6103515625
525244,-0.007080078125,-0.7025146484375,0.7344970703125,-5.676269054412842,0.1220703050494194,0.6103515625
525261,-0.0079345703125,-0.701171875,0.7347412109375,-4.7607421875,0.0,0.6103515625
525278,-0.008544921875,-0.7027587890625,0.7337646484375,-4.33349609375,-0.0610351525247097,0.6103515625
525294,-0.0093994140625,-0.7015380859375,0.7369384765625,-3.417968511581421,-0.0610351525247097,0.54931640625
525327,-0.0076904296875,-0.699462890625,0.7388916015625,-1.6479490995407104,-0.1220703050494194,0.4272460639476776
525376,-0.0081787109375,-0.702392578125,0.7335205078125,0.30517578125,-0.30517578125,0.3662109076976776
525398,-0.009033203125,-0.7012939453125,0.7337646484375,0.54931640625,-0.30517578125,0.30517578125
525415,-0.0079345703125,-0.7022705078125,0.7330322265625,0.9765624403953552,-0.30517578125,0.2441406100988388
525448,-0.0072021484375,-0.706787109375,0.725341796875,1.0986328125,-0.30517578125,0.2441406100988388
525465,-0.007080078125,-0.707763671875,0.724853515625,0.7934569716453552,-0.2441406100988388,0.4272460639476776
525482,-0.0062255859375,-0.7113037109375,0.724853515625,0.4882812201976776,-0.1220703050494194,0.54931640625
525498,-0.0079345703125,-0.714111328125,0.707763671875,-0.54931640625,0.30517578125,1.2817381620407104
525518,-0.0103759765625,-0.739013671875,0.703125,-3.234863042831421,1.3427733182907104,2.624511480331421
525534,-0.0042724609375,-0.80078125,0.6986083984375,-5.126952648162842,1.9531248807907104,3.601073980331421
525550,0.00537109375,-0.8465576171875,0.7069091796875,-9.82666015625,3.906249761581421,5.065917491912842
525582,0.04541015625,-1.2310791015625,1.0943603515625,-13.000487327575684,4.08935546875,3.295898199081421
525635,0.0,-1.2587890625,1.30517578125,-1.03759765625,-4.69970703125,-5.981444835662842
525651,-0.007568359375,-1.02294921875,1.1566162109375,2.990722417831421,-5.0048828125,-6.469726085662842
525682,-0.0125732421875,-0.8778076171875,1.076171875,8.97216796875,-4.8828125,-5.065917491912842
525732,-0.026611328125,-1.0233154296875,1.1265869140625,18.49365234375,-5.065917491912842,-5.798339366912842
525764,-0.0372314453125,-0.9874267578125,1.1055908203125,23.986814498901367,-6.347655773162842,-7.263183116912842
525781,-0.0457763671875,-0.9097900390625,1.0029296875,26.367185592651367,-6.652831554412842,-7.690429210662842
525798,-0.0533447265625,-0.8486328125,0.9068603515625,27.282712936401367,-6.164550304412842,-7.385253429412842
525814,-0.0537109375,-0.8333740234375,0.88720703125,27.770994186401367,-5.0048828125,-6.530761241912842
525831,-0.0556640625,-0.796630859375,0.8309326171875,27.832029342651367,-3.906249761581421,-5.615233898162842
525864,-0.05517578125,-0.8109130859375,0.792236328125,26.123044967651367,-2.38037109375,-4.150390625
525881,-0.049560546875,-0.7891845703125,0.7276611328125,23.925779342651367,-1.220703125,-3.051757574081421
525902,-0.040283203125,-0.796630859375,0.6925048828125,21.423337936401367,0.4882812201976776,-1.8310545682907104
525918,-0.0250244140625,-0.8150634765625,0.7078857421875,19.95849609375,1.0986328125,-1.3427733182907104
525935,-0.0184326171875,-0.8209228515625,0.714111328125,16.66259765625,1.7700194120407104,-0.7934569716453552
525952,-0.012451171875,-0.8057861328125,0.68115234375,13.061522483825684,2.0751953125,-0.30517578125
525985,-0.0123291015625,-0.7568359375,0.6002197265625,7.751464366912842,3.356933355331421,1.15966796875
526002,-0.0103759765625,-0.757080078125,0.61083984375,4.2724609375,3.906249761581421,1.5258787870407104
526018,-0.000244140625,-0.7347412109375,0.596923828125,1.220703125,3.662109136581421,1.5869139432907104
526050,0.0,-0.6505126953125,0.5052490234375,-2.807616949081421,3.479003667831421,1.4038084745407104
526098,-0.0096435546875,-0.3792724609375,0.3082275390625,-7.324218273162842,3.112792730331421,0.9765624403953552
526119,-0.0111083984375,-0.271484375,0.21875,-8.11767578125,3.173827886581421,1.03759765625
526136,-0.0130615234375,-0.2130126953125,0.166259765625,-9.58251953125,3.540038824081421,1.2817381620407104
526169,-0.015625,-0.0819091796875,0.0621337890625,-12.451170921325684,4.5166015625,2.624511480331421
526202,-0.0194091796875,-0.07275390625,0.04150390625,-13.427733421325684,5.554198741912842,3.906249761581421
526244,-0.007080078125,-0.2030029296875,0.181640625,-12.695311546325684,6.774901866912842,4.8828125
526261,0.0003662109375,-0.2972412109375,0.326171875,-12.145995140075684,7.019042491912842,5.126952648162842
526278,0.0042724609375,-0.4649658203125,0.525146484375,-10.925292015075684,7.385253429412842,5.798339366912842
526294,0.0067138671875,-0.5450439453125,0.6441650390625,-9.1552734375,7.019042491912842,5.493163585662842
526311,0.013916015625,-0.677001953125,0.84619140625,-6.103515148162842,5.859374523162842,4.69970703125
526344,0.0230712890625,-0.8560791015625,1.073486328125,-0.1220703050494194,3.051757574081421,3.906249761581421
526360,0.01171875,-0.962890625,1.108154296875,3.967284917831421,-0.1831054538488388,2.563476324081421
526376,-0.001953125,-0.9969482421875,1.0438232421875,5.798339366912842,-1.6479490995407104,1.8310545682907104
526406,-0.0618896484375,-1.0150146484375,0.630126953125,9.27734375,-3.540038824081421,-0.9765624403953552
526427,-0.06982421875,-0.97265625,0.5556640625,10.070799827575684,-2.746581792831421,-3.173827886581421
526443,-0.0706787109375,-0.8609619140625,0.522705078125,10.314940452575684,-1.5869139432907104,-4.57763671875
526464,-0.055908203125,-0.767578125,0.5950927734375,10.070799827575684,-1.7700194120407104,-5.249022960662842
526481,-0.047607421875,-0.6865234375,0.621337890625,9.8876953125,-2.25830078125,-5.493163585662842
526497,-0.0435791015625,-0.6396484375,0.6451416015625,8.97216796875,-2.685546636581421,-5.737304210662842
526518,-0.0450439453125,-0.6170654296875,0.676025390625,8.4228515625,-2.868652105331421,-5.737304210662842
526535,-0.04638671875,-0.614501953125,0.6951904296875,8.11767578125,-2.868652105331421,-5.432128429412842
526555,-0.0479736328125,-0.6368408203125,0.7445068359375,8.60595703125,-2.868652105331421,-5.187987804412842
526595,-0.0413818359375,-0.7264404296875,0.80126953125,10.742186546325684,-3.479003667831421,-5.126952648162842
526611,-0.0413818359375,-0.751953125,0.7724609375,11.596678733825684,-3.662109136581421,-4.94384765625
526627,-0.0390625,-0.77880859375,0.7164306640625,12.023924827575684,-3.540038824081421,-4.82177734375
526647,-0.0362548828125,-0.7974853515625,0.686767578125,12.268065452575684,-3.234863042831421,-4.7607421875
526663,-0.0257568359375,-0.810302734375,0.63671875,11.840819358825684,-2.624511480331421,-4.8828125
526679,-0.012939453125,-0.8072509765625,0.6114501953125,10.681151390075684,-1.8920897245407104,-5.0048828125
526699,-0.0035400390625,-0.780517578125,0.607666015625,9.3994140625,-1.3427733182907104,-4.94384765625
526719,0.0037841796875,-0.75146484375,0.622802734375,7.568358898162842,-0.9155272841453552,-4.69970703125
526740,0.0074462890625,-0.732421875,0.6490478515625,6.713866710662842,-0.7934569716453552,-4.5166015625
526757,0.0076904296875,-0.7249755859375,0.661376953125,5.0048828125,-0.7934569716453552,-4.150390625
526774,0.0032958984375,-0.710693359375,0.6685791015625,3.417968511581421,-0.7324218153953552,-3.723144292831421
526791,-0.0035400390625,-0.7156982421875,0.67041015625,1.6479490995407104,-0.7324218153953552,-3.051757574081421
526823,-0.0169677734375,-0.732177734375,0.6573486328125,-1.2817381620407104,-0.54931640625,-2.3193359375
526840,-0.0223388671875,-0.7401123046875,0.6434326171875,-2.990722417831421,-0.1831054538488388,-1.5869139432907104
526856,-0.02392578125,-0.7496337890625,0.642578125,-3.784179449081421,-0.0610351525247097,-1.220703125
526885,-0.02734375,-0.7713623046875,0.6160888671875,-6.286620616912842,0.4272460639476776,-0.1831054538488388
526907,-0.02783203125,-0.7701416015625,0.61083984375,-7.934569835662842,0.9765624403953552,0.3662109076976776
526923,-0.0283203125,-0.7606201171875,0.6112060546875,-8.48388671875,1.3427733182907104,0.6713866591453552
526940,-0.029541015625,-0.7528076171875,0.62744140625,-8.97216796875,1.8920897245407104,1.2817381620407104
526957,-0.0303955078125,-0.7464599609375,0.6328125,-9.21630859375,2.197265625,1.8310545682907104
526973,-0.0330810546875,-0.7374267578125,0.6339111328125,-9.1552734375,2.3193359375,2.01416015625
527007,-0.0362548828125,-0.72509765625,0.650146484375,-8.36181640625,3.051757574081421,2.929687261581421
527023,-0.036376953125,-0.7261962890625,0.6617431640625,-7.507323741912842,3.112792730331421,3.173827886581421
527039,-0.0350341796875,-0.723876953125,0.663818359375,-6.958007335662842,3.173827886581421,3.295898199081421
527075,-0.03173828125,-0.74267578125,0.6710205078125,-4.33349609375,3.234863042831421,3.662109136581421
527091,-0.026611328125,-0.753662109375,0.6719970703125,-3.051757574081421,3.051757574081421,3.662109136581421
527107,-0.0238037109375,-0.756591796875,0.674072265625,-2.3193359375,3.051757574081421,3.723144292831421
527123,-0.021484375,-0.7669677734375,0.67529296875,-0.9155272841453552,3.051757574081421,3.723144292831421
527145,-0.0185546875,-0.7711181640625,0.6829833984375,0.2441406100988388,2.807616949081421,3.479003667831421
527161,-0.01611328125,-0.76123046875,0.6806640625,0.7934569716453552,2.563476324081421,3.295898199081421
527178,-0.0146484375,-0.75634765625,0.6806640625,1.4648436307907104,2.25830078125,3.173827886581421
527196,-0.01025390625,-0.7469482421875,0.6796875,1.9531248807907104,1.9531248807907104,2.990722417831421
527213,-0.005615234375,-0.73388671875,0.6842041015625,1.6479490995407104,1.5869139432907104,2.807616949081421
527245,-0.0008544921875,-0.7125244140625,0.676025390625,0.1831054538488388,0.7934569716453552,2.38037109375
527262,0.00244140625,-0.7076416015625,0.6834716796875,-1.4038084745407104,0.2441406100988388,2.0751953125
527278,0.00341796875,-0.703369140625,0.68017578125,-2.197265625,-0.0610351525247097,2.01416015625
527310,0.0003662109375,-0.700439453125,0.7138671875,-4.0283203125,-0.8544921278953552,1.4038084745407104
527326,-0.0006103515625,-0.68505859375,0.7135009765625,-4.7607421875,-1.8310545682907104,0.9155272841453552
527342,-0.00146484375,-0.655517578125,0.690185546875,-5.249022960662842,-2.563476324081421,0.7934569716453552
527358,-0.0030517578125,-0.649169921875,0.6768798828125,-5.554198741912842,-2.868652105331421,0.7324218153953552
527382,-0.009521484375,-0.64697265625,0.6634521484375,-6.164550304412842,-3.295898199081421,0.54931640625
527398,-0.017822265625,-0.6446533203125,0.6497802734375,-6.835937023162842,-3.479003667831421,0.4272460639476776
527415,-0.0228271484375,-0.6533203125,0.6536865234375,-7.141112804412842,-3.540038824081421,0.4272460639476776
527436,-0.029052734375,-0.6551513671875,0.6492919921875,-7.385253429412842,-3.723144292831421,0.2441406100988388
527452,-0.0345458984375,-0.6591796875,0.642333984375,-7.690429210662842,-3.723144292831421,0.2441406100988388
527486,-0.035400390625,-0.6527099609375,0.6221923828125,-8.60595703125,-3.784179449081421,-0.0610351525247097
527502,-0.035400390625,-0.6185302734375,0.5784912109375,-9.6435546875,-3.662109136581421,0.0
527518,-0.0347900390625,-0.600830078125,0.5589599609375,-10.375975608825684,-3.479003667831421,0.2441406100988388
527550,-0.031494140625,-0.60205078125,0.55029296875,-13.061522483825684,-2.563476324081421,0.9155272841453552
527566,-0.0284423828125,-0.6134033203125,0.5635986328125,-14.892577171325684,-2.3193359375,1.03759765625
527582,-0.0289306640625,-0.6190185546875,0.5804443359375,-16.4794921875,-2.0751953125,1.15966796875
527598,-0.0299072265625,-0.624755859375,0.593994140625,-17.02880859375,-1.8920897245407104,1.2817381620407104
527618,-0.0345458984375,-0.6412353515625,0.6204833984375,-17.822265625,-1.8310545682907104,1.3427733182907104
527634,-0.0389404296875,-0.6490478515625,0.630615234375,-18.37158203125,-1.9531248807907104,1.4038084745407104
527650,-0.0408935546875,-0.6522216796875,0.632568359375,-18.5546875,-1.8920897245407104,1.4648436307907104
527664,-0.0400390625,-0.665283203125,0.648681640625,-18.73779296875,-1.6479490995407104,1.5869139432907104
527719,-0.0369873046875,-0.6790771484375,0.6878662109375,-17.27294921875,-1.5258787870407104,1.7089842557907104
527737,-0.037109375,-0.6763916015625,0.689697265625,-16.7236328125,-1.5258787870407104,1.7089842557907104
527753,-0.03564453125,-0.677001953125,0.7030029296875,-14.953612327575684,-1.0986328125,1.9531248807907104
527786,-0.03076171875,-0.6761474609375,0.7340087890625,-12.084959983825684,-1.220703125,1.7089842557907104
527802,-0.0267333984375,-0.6597900390625,0.7354736328125,-10.986327171325684,-1.0986328125,1.7089842557907104
527818,-0.0245361328125,-0.6602783203125,0.7373046875,-8.97216796875,-1.0986328125,1.8920897245407104
527850,-0.01806640625,-0.6627197265625,0.7559814453125,-6.103515148162842,-1.220703125,1.7700194120407104
527898,-0.0179443359375,-0.684326171875,0.77880859375,-0.54931640625,-1.3427733182907104,1.8920897245407104
527919,-0.014892578125,-0.6871337890625,0.78857421875,1.7700194120407104,-1.6479490995407104,1.7089842557907104
527936,-0.0152587890625,-0.6893310546875,0.7711181640625,2.807616949081421,-1.8310545682907104,1.5869139432907104
527969,-0.0147705078125,-0.6741943359375,0.7347412109375,5.615233898162842,-1.7700194120407104,1.5869139432907104
527986,-0.01513671875,-0.68701171875,0.7392578125,6.286620616912842,-1.5258787870407104,1.7089842557907104
528002,-0.0135498046875,-0.6982421875,0.759033203125,6.530761241912842,-1.4648436307907104,1.6479490995407104
528018,-0.0120849609375,-0.6954345703125,0.764404296875,7.385253429412842,-1.6479490995407104,1.5258787870407104
528072,-0.007568359375,-0.6815185546875,0.733154296875,8.1787109375,-1.7700194120407104,1.5258787870407104
528098,-0.0086669921875,-0.6798095703125,0.7420654296875,8.1787109375,-1.3427733182907104,1.7700194120407104
528115,-0.0087890625,-0.7010498046875,0.7723388671875,8.30078125,-1.3427733182907104,1.8920897245407104
528148,-0.0111083984375,-0.7034912109375,0.77685546875,9.3994140625,-1.7089842557907104,1.4648436307907104
528165,-0.0142822265625,-0.6849365234375,0.751220703125,9.70458984375,-1.5869139432907104,1.6479490995407104
528182,-0.015625,-0.6815185546875,0.74462890625,9.765625,-1.4038084745407104,1.8310545682907104
528198,-0.01708984375,-0.69189453125,0.7489013671875,9.58251953125,-1.0986328125,2.01416015625
528222,-0.015380859375,-0.7059326171875,0.759033203125,9.27734375,-0.9155272841453552,1.9531248807907104
528238,-0.0120849609375,-0.709716796875,0.75927734375,9.1552734375,-0.9765624403953552,1.9531248807907104
528255,-0.017578125,-0.697509765625,0.7420654296875,8.72802734375,-0.8544921278953552,1.9531248807907104
528275,-0.0191650390625,-0.6998291015625,0.74365234375,8.30078125,-0.4272460639476776,2.3193359375
528292,-0.020751953125,-0.7332763671875,0.7623291015625,7.507323741912842,-0.1831054538488388,2.44140625
528325,-0.0186767578125,-0.7584228515625,0.778076171875,5.798339366912842,-0.0610351525247097,2.25830078125
528341,-0.0181884765625,-0.7642822265625,0.7794189453125,5.249022960662842,0.0,2.3193359375
528357,-0.0179443359375,-0.785400390625,0.781982421875,4.150390625,0.1220703050494194,2.197265625
528389,-0.012939453125,-0.7906494140625,0.7841796875,2.929687261581421,0.1831054538488388,1.8310545682907104
528437,-0.0172119140625,-0.779541015625,0.780029296875,1.7089842557907104,0.0610351525247097,0.7324218153953552
528459,-0.017578125,-0.744873046875,0.7589111328125,1.4038084745407104,0.1831054538488388,0.7324218153953552
528476,-0.016845703125,-0.7481689453125,0.761474609375,0.7934569716453552,0.3662109076976776,0.9155272841453552
528508,-0.015380859375,-0.738525390625,0.7684326171875,-0.6103515625,0.54931640625,0.54931640625
528525,-0.0152587890625,-0.734619140625,0.775634765625,-0.7324218153953552,0.7324218153953552,0.6103515625
528541,-0.0152587890625,-0.742919921875,0.78857421875,-0.6103515625,0.7934569716453552,0.6713866591453552
528557,-0.0150146484375,-0.760498046875,0.8131103515625,-0.2441406100988388,0.7934569716453552,0.54931640625
528577,-0.01416015625,-0.767578125,0.8280029296875,0.3662109076976776,0.6103515625,0.1831054538488388
528625,-0.0201416015625,-0.7576904296875,0.8243408203125,2.746581792831421,0.7934569716453552,-0.0610351525247097
528641,-0.02294921875,-0.7506103515625,0.820068359375,3.295898199081421,0.8544921278953552,-0.1220703050494194
528657,-0.026123046875,-0.7279052734375,0.7998046875,3.967284917831421,1.03759765625,0.0610351525247097
528686,-0.0224609375,-0.7286376953125,0.79248046875,4.45556640625,1.7700194120407104,0.2441406100988388
528708,-0.021484375,-0.7288818359375,0.78955078125,4.5166015625,1.7700194120407104,0.30517578125
528724,-0.02197265625,-0.7205810546875,0.77197265625,4.2724609375,2.01416015625,0.4882812201976776
528741,-0.02099609375,-0.7200927734375,0.7559814453125,3.601073980331421,2.746581792831421,0.6103515625
528758,-0.0194091796875,-0.72509765625,0.770263671875,3.234863042831421,2.929687261581421,0.6103515625
528774,-0.01953125,-0.7230224609375,0.7685546875,2.624511480331421,2.990722417831421,0.7324218153953552
528805,-0.0225830078125,-0.7269287109375,0.7503662109375,1.4038084745407104,3.417968511581421,1.0986328125
528827,-0.0220947265625,-0.7276611328125,0.7501220703125,-0.0610351525247097,3.723144292831421,1.15966796875
528843,-0.019287109375,-0.7313232421875,0.7498779296875,-1.5258787870407104,3.967284917831421,1.4038084745407104
528860,-0.0140380859375,-0.7347412109375,0.7679443359375,-2.25830078125,4.0283203125,1.4038084745407104
528877,-0.015380859375,-0.736083984375,0.7664794921875,-3.417968511581421,3.967284917831421,1.220703125
528893,-0.016357421875,-0.7391357421875,0.7646484375,-4.2724609375,3.784179449081421,1.03759765625
528926,-0.010986328125,-0.7353515625,0.7587890625,-5.615233898162842,3.479003667831421,0.6103515625
528943,-0.0103759765625,-0.7310791015625,0.7540283203125,-5.920409679412842,3.295898199081421,0.4882812201976776
528959,-0.009765625,-0.717041015625,0.73974609375,-6.408690929412842,3.173827886581421,0.3662109076976776
528995,0.017578125,-0.846435546875,0.8787841796875,-6.652831554412842,2.990722417831421,0.1831054538488388
529011,0.071044921875,-1.2369384765625,1.27490234375,-6.164550304412842,0.1831054538488388,-2.685546636581421
529027,0.0631103515625,-1.061767578125,1.10302734375,-5.432128429412842,-6.713866710662842,-9.521484375
529043,-0.0299072265625,-0.4881591796875,0.5797119140625,-1.4648436307907104,-5.554198741912842,-7.629394054412842
529065,-0.112060546875,-0.2213134765625,0.3067626953125,12.329100608825684,2.13623046875,1.5869139432907104
529081,-0.0115966796875,-0.6015625,0.6690673828125,12.268065452575684,3.723144292831421,3.906249761581421
529098,0.0626220703125,-1.0736083984375,1.211669921875,1.7089842557907104,1.8310545682907104,2.25830078125
529115,0.0479736328125,-0.99267578125,1.087158203125,-3.723144292831421,-3.662109136581421,-2.44140625
529132,-0.0396728515625,-0.4755859375,0.47314453125,-0.6713866591453552,-1.7700194120407104,-0.1220703050494194
529165,-0.00048828125,-0.850830078125,0.8370361328125,-2.38037109375,0.1831054538488388,0.6713866591453552
529181,0.0162353515625,-0.79345703125,0.814453125,-3.479003667831421,-2.0751953125,-2.01416015625
529197,-0.015869140625,-0.5521240234375,0.617919921875,-2.807616949081421,-0.0610351525247097,0.2441406100988388
529226,-0.00732421875,-0.7486572265625,0.822021484375,-2.868652105331421,-0.30517578125,0.4272460639476776
529248,-0.0062255859375,-0.67333984375,0.7208251953125,-2.929687261581421,-1.220703125,-0.0610351525247097
529264,-0.004150390625,-0.6929931640625,0.7044677734375,-3.662109136581421,-0.1220703050494194,0.54931640625
529281,-0.0040283203125,-0.7430419921875,0.7706298828125,-4.0283203125,-0.1831054538488388,0.4272460639476776
529298,-0.0091552734375,-0.6553955078125,0.7200927734375,-4.33349609375,-0.3662109076976776,0.0
529314,-0.00927734375,-0.67236328125,0.7427978515625,-4.39453125,-0.0610351525247097,0.4882812201976776
529345,-0.005615234375,-0.6754150390625,0.723388671875,-4.2724609375,-0.4272460639476776,0.4882812201976776
529367,-0.0052490234375,-0.6961669921875,0.7481689453125,-4.2724609375,-0.1220703050494194,0.4882812201976776
529383,-0.0067138671875,-0.6934814453125,0.7518310546875,-4.08935546875,-0.1831054538488388,0.3662109076976776
529400,-0.0074462890625,-0.6666259765625,0.7506103515625,-3.906249761581421,0.0,0.4272460639476776
529417,-0.0057373046875,-0.6778564453125,0.7646484375,-3.356933355331421,-0.0610351525247097,0.4882812201976776
529433,-0.00341796875,-0.6759033203125,0.7628173828125,-2.807616949081421,-0.2441406100988388,0.3662109076976776
529465,-0.005126953125,-0.6796875,0.755859375,-1.9531248807907104,-0.1831054538488388,0.3662109076976776
529487,-0.0054931640625,-0.67724609375,0.759521484375,-1.220703125,-0.2441406100988388,0.30517578125
529503,-0.0064697265625,-0.6658935546875,0.7611083984375,-0.3662109076976776,-0.1831054538488388,0.30517578125
529557,-0.00634765625,-0.6790771484375,0.7578125,1.3427733182907104,-0.2441406100988388,0.3662109076976776
529599,-0.0032958984375,-0.6773681640625,0.7626953125,2.38037109375,-0.2441406100988388,0.30517578125
529616,-0.0035400390625,-0.6790771484375,0.760498046875,2.746581792831421,-0.3662109076976776,0.1831054538488388
529648,-0.006591796875,-0.685302734375,0.7550048828125,3.295898199081421,-0.3662109076976776,0.2441406100988388
529665,-0.0067138671875,-0.684326171875,0.755126953125,3.479003667831421,-0.3662109076976776,0.0610351525247097
529681,-0.00390625,-0.682861328125,0.75439453125,3.723144292831421,-0.4882812201976776,0.1220703050494194
529697,-0.00341796875,-0.679931640625,0.751220703125,3.784179449081421,-0.4272460639476776,0.1220703050494194
529717,-0.0047607421875,-0.6854248046875,0.75439453125,3.906249761581421,-0.4272460639476776,0.1831054538488388
529739,-0.0081787109375,-0.6876220703125,0.750244140625,3.967284917831421,-0.4882812201976776,0.1831054538488388
529755,-0.0074462890625,-0.689208984375,0.7484130859375,3.845214605331421,-0.3662109076976776,0.1831054538488388
529772,-0.0052490234375,-0.6859130859375,0.749267578125,3.845214605331421,-0.3662109076976776,0.1831054538488388
529789,-0.0050048828125,-0.68603515625,0.7484130859375,3.784179449081421,-0.30517578125,0.1831054538488388
529822,-0.009033203125,-0.6923828125,0.744140625,3.601073980331421,-0.4272460639476776,0.1831054538488388
529839,-0.0072021484375,-0.690673828125,0.7418212890625,3.479003667831421,-0.3662109076976776,0.1831054538488388
529855,-0.00634765625,-0.69287109375,0.744873046875,3.295898199081421,-0.30517578125,0.1220703050494194
529886,-0.0064697265625,-0.691650390625,0.7442626953125,3.173827886581421,-0.3662109076976776,0.1831054538488388
529907,-0.008056640625,-0.694580078125,0.7418212890625,2.929687261581421,-0.3662109076976776,0.1831054538488388
529923,-0.0062255859375,-0.6973876953125,0.7396240234375,2.746581792831421,-0.3662109076976776,0.1831054538488388
529940,-0.005859375,-0.69775390625,0.7425537109375,2.50244140625,-0.3662109076976776,0.2441406100988388
530006,-0.007080078125,-0.696533203125,0.7415771484375,1.5869139432907104,-0.30517578125,0.2441406100988388
530022,-0.006103515625,-0.6932373046875,0.740234375,1.3427733182907104,-0.30517578125,0.30517578125
530038,-0.0057373046875,-0.69287109375,0.739013671875,1.220703125,-0.30517578125,0.3662109076976776
530070,-0.009521484375,-0.68505859375,0.7237548828125,0.6103515625,0.6103515625,1.4648436307907104
530086,-0.011962890625,-0.689453125,0.719482421875,0.2441406100988388,1.3427733182907104,2.3193359375
530102,-0.0164794921875,-0.74462890625,0.7215576171875,-1.3427733182907104,3.540038824081421,4.8828125
530118,-0.0150146484375,-0.7987060546875,0.7364501953125,-2.25830078125,5.187987804412842,6.225585460662842
530142,-0.010009765625,-1.096435546875,1.021240234375,-1.4038084745407104,7.263183116912842,6.347655773162842
530158,0.0079345703125,-1.41357421875,1.4853515625,5.371093273162842,0.9765624403953552,-0.54931640625
530175,0.0010986328125,-1.2620849609375,1.4383544921875,13.427733421325684,-2.929687261581421,-4.0283203125
530192,-0.015625,-1.0552978515625,1.2054443359375,16.6015625,-3.845214605331421,-4.150390625
530241,-0.0089111328125,-0.914794921875,1.0950927734375,24.902341842651367,-1.0986328125,-2.25830078125
530264,-0.0111083984375,-0.9744873046875,1.10546875,26.062009811401367,-0.7934569716453552,-1.7700194120407104
530281,-0.0030517578125,-1.069091796875,1.1650390625,28.442380905151367,-0.4882812201976776,-1.7089842557907104
530298,-0.00146484375,-1.0799560546875,1.1497802734375,29.846189498901367,-1.220703125,-2.868652105331421
530314,-0.0069580078125,-1.0106201171875,1.06982421875,30.212400436401367,-1.220703125,-3.356933355331421
530331,-0.0067138671875,-0.95556640625,1.0343017578125,30.395505905151367,-0.54931640625,-3.051757574081421
530364,0.01318359375,-0.9051513671875,0.9544677734375,28.625486373901367,-0.54931640625,-2.25830078125
530381,0.016357421875,-0.901123046875,0.863037109375,27.282712936401367,-0.4882812201976776,-1.9531248807907104
530402,0.013916015625,-0.9205322265625,0.841552734375,24.353025436401367,0.3662109076976776,-1.5258787870407104
530418,0.0174560546875,-0.9779052734375,0.8763427734375,21.057126998901367,0.4272460639476776,-1.7089842557907104
530435,0.0250244140625,-1.01025390625,0.8721923828125,19.53125,-0.0610351525247097,-2.25830078125
530452,0.031982421875,-0.9554443359375,0.8004150390625,16.17431640625,-1.15966796875,-3.784179449081421
530485,0.01806640625,-0.873291015625,0.6768798828125,8.48388671875,-2.197265625,-4.8828125
530502,0.009765625,-0.8468017578125,0.622314453125,4.45556640625,-2.38037109375,-5.798339366912842
530518,0.0093994140625,-0.810791015625,0.59765625,2.44140625,-2.685546636581421,-6.347655773162842
530550,0.007568359375,-0.6951904296875,0.5174560546875,-2.3193359375,-3.173827886581421,-6.958007335662842
530566,0.0030517578125,-0.6405029296875,0.4664306640625,-4.82177734375,-3.662109136581421,-7.507323741912842
530582,-0.0023193359375,-0.5775146484375,0.421630859375,-6.591796398162842,-4.2724609375,-8.11767578125
530598,-0.0057373046875,-0.5384521484375,0.38720703125,-7.324218273162842,-4.5166015625,-8.4228515625
530618,-0.015380859375,-0.43896484375,0.310791015625,-8.4228515625,-4.69970703125,-8.72802734375
530634,-0.0257568359375,-0.337158203125,0.2265625,-9.27734375,-4.5166015625,-8.6669921875
530650,-0.028564453125,-0.2906494140625,0.195556640625,-9.70458984375,-4.2724609375,-8.48388671875
530666,-0.033447265625,-0.2125244140625,0.1392822265625,-10.437010765075684,-3.784179449081421,-7.751464366912842
530687,-0.035400390625,-0.1488037109375,0.0914306640625,-10.925292015075684,-3.051757574081421,-6.896972179412842
530703,-0.0399169921875,-0.115478515625,0.0589599609375,-11.169432640075684,-2.563476324081421,-6.408690929412842
530720,-0.0406494140625,-0.113525390625,0.059326171875,-11.474608421325684,-1.4648436307907104,-5.310058116912842
530737,-0.039794921875,-0.113525390625,0.068359375,-11.535643577575684,-1.03759765625,-4.82177734375
530753,-0.0447998046875,-0.1358642578125,0.0855712890625,-11.474608421325684,-0.0610351525247097,-3.540038824081421
530787,-0.062744140625,-0.1995849609375,0.1712646484375,-11.596678733825684,2.929687261581421,0.30517578125
530807,-0.084716796875,-0.3570556640625,0.27099609375,-12.207030296325684,4.33349609375,2.929687261581421
530823,-0.1103515625,-0.6048583984375,0.377197265625,-12.573241233825684,6.103515148162842,4.7607421875
530839,-0.1119384765625,-0.7366943359375,0.4642333984375,-12.390135765075684,6.774901866912842,4.8828125
530859,-0.10546875,-0.92236328125,0.62060546875,-10.803221702575684,7.751464366912842,4.150390625
530880,-0.0972900390625,-1.0076904296875,0.79833984375,-7.568358898162842,8.056640625,3.173827886581421
530896,-0.0810546875,-1.0152587890625,0.9228515625,-5.676269054412842,7.324218273162842,2.44140625
530960,-0.001708984375,-0.7034912109375,0.7806396484375,7.019042491912842,3.479003667831421,0.1220703050494194
530978,0.000732421875,-0.6610107421875,0.7373046875,9.765625,2.807616949081421,-0.2441406100988388
530994,0.00341796875,-0.6063232421875,0.6644287109375,11.901854515075684,2.624511480331421,-0.0610351525247097
531026,0.00390625,-0.6121826171875,0.6282958984375,14.709471702575684,2.38037109375,0.4272460639476776
531042,0.000732421875,-0.6544189453125,0.6378173828125,15.747069358825684,2.25830078125,0.3662109076976776
531058,-0.002197265625,-0.6827392578125,0.6395263671875,17.88330078125,1.7089842557907104,0.1831054538488388
531091,-0.0103759765625,-0.7689208984375,0.6341552734375,21.301267623901367,1.0986328125,-0.2441406100988388
531112,-0.014404296875,-0.8197021484375,0.6673583984375,23.498533248901367,0.8544921278953552,-0.8544921278953552
531128,-0.0185546875,-0.8353271484375,0.7142333984375,25.878904342651367,0.2441406100988388,-1.6479490995407104
531145,-0.02197265625,-0.8243408203125,0.74658203125,26.916501998901367,-0.0610351525247097,-1.7700194120407104
531215,-0.0423583984375,-0.7625732421875,0.698974609375,29.418943405151367,-2.807616949081421,-2.38037109375
531232,-0.045654296875,-0.75830078125,0.6820068359375,28.869626998901367,-2.929687261581421,-2.25830078125
531248,-0.050048828125,-0.759033203125,0.6468505859375,27.160642623901367,-3.173827886581421,-2.0751953125
531264,-0.051025390625,-0.7681884765625,0.59619140625,24.902341842651367,-3.295898199081421,-1.9531248807907104
531281,-0.050537109375,-0.7728271484375,0.572021484375,23.559568405151367,-3.234863042831421,-1.8310545682907104
531302,-0.0523681640625,-0.7913818359375,0.537841796875,20.812986373901367,-2.624511480331421,-1.6479490995407104
531318,-0.05224609375,-0.8182373046875,0.53369140625,19.4091796875,-2.25830078125,-1.5258787870407104
531335,-0.04931640625,-0.8380126953125,0.5419921875,16.4794921875,-1.8920897245407104,-1.4038084745407104
531352,-0.0467529296875,-0.84033203125,0.54345703125,13.122557640075684,-1.5869139432907104,-1.4648436307907104
531385,-0.038818359375,-0.8302001953125,0.5804443359375,6.469726085662842,-0.7934569716453552,-0.7324218153953552
531402,-0.0379638671875,-0.827392578125,0.5906982421875,4.94384765625,-0.6713866591453552,-0.4882812201976776
531418,-0.0338134765625,-0.8179931640625,0.6053466796875,2.0751953125,-0.6103515625,0.0
531450,-0.0263671875,-0.8092041015625,0.6058349609375,-1.9531248807907104,-0.4272460639476776,0.7324218153953552
531498,-0.016845703125,-0.7965087890625,0.596435546875,-7.202147960662842,-0.1220703050494194,2.13623046875
531519,-0.0157470703125,-0.807373046875,0.5888671875,-7.995604991912842,-0.1220703050494194,2.3193359375
531536,-0.0164794921875,-0.8123779296875,0.5885009765625,-9.27734375,-0.0610351525247097,2.624511480331421
531569,-0.0223388671875,-0.807373046875,0.599853515625,-10.559081077575684,0.0,2.990722417831421
531586,-0.026611328125,-0.81298828125,0.6058349609375,-10.559081077575684,-0.1831054538488388,3.112792730331421
531602,-0.027099609375,-0.815673828125,0.60595703125,-10.437010765075684,-0.30517578125,3.112792730331421
531618,-0.0289306640625,-0.8155517578125,0.60302734375,-10.314940452575684,-0.3662109076976776,2.990722417831421
531638,-0.0328369140625,-0.8087158203125,0.610595703125,-10.009765625,-0.4272460639476776,2.868652105331421
531654,-0.0380859375,-0.8055419921875,0.611083984375,-9.765625,-0.4882812201976776,2.868652105331421
531670,-0.0396728515625,-0.805908203125,0.6138916015625,-9.09423828125,-0.54931640625,2.807616949081421
531686,-0.0400390625,-0.8084716796875,0.6180419921875,-8.1787109375,-0.7324218153953552,2.746581792831421
531702,-0.040771484375,-0.8076171875,0.6119384765625,-7.751464366912842,-0.7934569716453552,2.685546636581421
531718,-0.0408935546875,-0.805419921875,0.608642578125,-6.835937023162842,-0.6713866591453552,2.624511480331421
531751,-0.0382080078125,-0.806884765625,0.6077880859375,-5.126952648162842,-0.54931640625,2.50244140625
531772,-0.0350341796875,-0.8023681640625,0.6097412109375,-3.845214605331421,-0.6103515625,2.3193359375
531788,-0.0350341796875,-0.7911376953125,0.60791015625,-3.234863042831421,-0.6713866591453552,2.25830078125
531805,-0.0343017578125,-0.7901611328125,0.6097412109375,-2.01416015625,-0.54931640625,2.38037109375
531822,-0.031982421875,-0.7935791015625,0.61328125,-0.7934569716453552,-0.4272460639476776,2.50244140625
531838,-0.0325927734375,-0.8040771484375,0.6285400390625,-0.1831054538488388,-0.4272460639476776,2.50244140625
531876,-0.0302734375,-0.8035888671875,0.6383056640625,1.5869139432907104,-0.4272460639476776,2.3193359375
531892,-0.0284423828125,-0.8065185546875,0.641845703125,1.8920897245407104,-0.4272460639476776,2.38037109375
531908,-0.02587890625,-0.81689453125,0.6434326171875,1.7700194120407104,-0.7324218153953552,2.25830078125
531924,-0.0263671875,-0.8154296875,0.6322021484375,1.5869139432907104,-0.8544921278953552,2.197265625
531989,-0.019775390625,-0.783203125,0.601318359375,-0.9155272841453552,-0.6103515625,1.7700194120407104
532010,-0.0194091796875,-0.779541015625,0.59765625,-1.3427733182907104,-0.6713866591453552,1.6479490995407104
532026,-0.0196533203125,-0.7635498046875,0.5916748046875,-2.197265625,-0.6103515625,1.4648436307907104
532043,-0.018798828125,-0.759521484375,0.5916748046875,-2.868652105331421,-0.54931640625,1.4648436307907104
532059,-0.0196533203125,-0.7662353515625,0.61376953125,-3.112792730331421,-0.4272460639476776,1.4648436307907104
532076,-0.024658203125,-0.75732421875,0.62646484375,-3.295898199081421,-0.6103515625,1.03759765625
532106,-0.030029296875,-0.736572265625,0.630126953125,-2.746581792831421,-0.6713866591453552,0.9155272841453552
532128,-0.0302734375,-0.7398681640625,0.6373291015625,-2.13623046875,-0.6103515625,0.9155272841453552
532144,-0.03076171875,-0.7357177734375,0.646484375,-1.4038084745407104,-0.6103515625,0.7934569716453552
532161,-0.032958984375,-0.7242431640625,0.6451416015625,-0.9155272841453552,-0.6103515625,0.8544921278953552
532178,-0.03369140625,-0.7322998046875,0.6484375,0.3662109076976776,-0.4272460639476776,1.03759765625
532194,-0.03369140625,-0.7286376953125,0.642822265625,1.6479490995407104,-0.4882812201976776,1.03759765625
532226,-0.0289306640625,-0.7149658203125,0.6234130859375,2.807616949081421,-0.1220703050494194,1.4648436307907104
532248,-0.027099609375,-0.718017578125,0.62255859375,2.868652105331421,0.0610351525247097,1.6479490995407104
532264,-0.0247802734375,-0.720458984375,0.6114501953125,2.25830078125,0.0610351525247097,1.7700194120407104
532281,-0.024658203125,-0.7313232421875,0.605712890625,1.7700194120407104,0.1220703050494194,1.8920897245407104
532302,-0.0211181640625,-0.7445068359375,0.61083984375,0.6713866591453552,0.1220703050494194,2.01416015625
532318,-0.0184326171875,-0.741943359375,0.602783203125,-0.8544921278953552,-0.1220703050494194,1.7700194120407104
532356,-0.0184326171875,-0.7320556640625,0.5740966796875,-4.82177734375,-0.3662109076976776,1.6479490995407104
532376,-0.0189208984375,-0.7227783203125,0.560546875,-7.019042491912842,-0.30517578125,1.7700194120407104
532392,-0.0181884765625,-0.7261962890625,0.5599365234375,-9.21630859375,-0.2441406100988388,1.8920897245407104
532409,-0.01904296875,-0.7373046875,0.5682373046875,-11.230467796325684,-0.1831054538488388,1.8920897245407104
532431,-0.0179443359375,-0.7427978515625,0.572998046875,-12.084959983825684,-0.2441406100988388,1.8310545682907104
532447,-0.0150146484375,-0.7445068359375,0.5728759765625,-13.732909202575684,-0.3662109076976776,1.7089842557907104
532463,-0.015625,-0.7451171875,0.5745849609375,-14.953612327575684,-0.30517578125,1.7700194120407104
532530,-0.021728515625,-0.728759765625,0.5947265625,-16.41845703125,-1.0986328125,0.9155272841453552
532546,-0.0205078125,-0.7149658203125,0.585693359375,-16.54052734375,-1.03759765625,1.03759765625
532562,-0.02099609375,-0.71142578125,0.588134765625,-16.7236328125,-0.8544921278953552,1.4648436307907104
532578,-0.019287109375,-0.732421875,0.6204833984375,-16.6015625,-0.7934569716453552,1.5869139432907104
532603,-0.01708984375,-0.7598876953125,0.65576171875,-15.380858421325684,-1.220703125,1.2817381620407104
532619,-0.01416015625,-0.7664794921875,0.670166015625,-14.709471702575684,-1.5258787870407104,1.03759765625
532636,-0.013916015625,-0.7603759765625,0.663330078125,-13.183592796325684,-2.01416015625,0.6103515625
532653,-0.0140380859375,-0.7508544921875,0.653076171875,-12.390135765075684,-2.197265625,0.4882812201976776
532669,-0.0146484375,-0.74609375,0.6494140625,-10.620116233825684,-2.44140625,0.30517578125
532702,-0.01806640625,-0.7327880859375,0.6591796875,-6.530761241912842,-2.929687261581421,-0.1220703050494194
532719,-0.019775390625,-0.716796875,0.64892578125,-4.39453125,-3.112792730331421,-0.1220703050494194
532735,-0.0206298828125,-0.7125244140625,0.642333984375,-3.234863042831421,-3.173827886581421,-0.1220703050494194
532766,-0.0262451171875,-0.71875,0.64794921875,0.0610351525247097,-3.112792730331421,-0.1831054538488388
532787,-0.025146484375,-0.7183837890625,0.654541015625,2.3193359375,-3.173827886581421,-0.2441406100988388
532803,-0.0269775390625,-0.713134765625,0.6517333984375,3.417968511581421,-3.234863042831421,-0.2441406100988388
532820,-0.0308837890625,-0.7130126953125,0.650634765625,5.310058116912842,-3.234863042831421,-0.2441406100988388
532837,-0.0323486328125,-0.7156982421875,0.6534423828125,6.835937023162842,-3.234863042831421,-0.30517578125
532853,-0.036376953125,-0.706787109375,0.636962890625,7.507323741912842,-3.295898199081421,-0.30517578125
532885,-0.041015625,-0.70751953125,0.629150390625,9.6435546875,-2.807616949081421,-0.0610351525247097
532907,-0.0467529296875,-0.6968994140625,0.62548828125,10.192870140075684,-2.563476324081421,0.0
532923,-0.0501708984375,-0.695556640625,0.6224365234375,10.437010765075684,-2.38037109375,0.1220703050494194
532940,-0.0496826171875,-0.7110595703125,0.64306640625,10.803221702575684,-1.8310545682907104,0.54931640625
532957,-0.0496826171875,-0.724365234375,0.65478515625,11.047362327575684,-1.6479490995407104,0.7934569716453552
532973,-0.0506591796875,-0.7384033203125,0.666748046875,11.108397483825684,-1.5869139432907104,0.7324218153953552
533007,-0.0517578125,-0.7257080078125,0.649169921875,11.108397483825684,-1.03759765625,1.03759765625
533074,-0.040283203125,-0.7646484375,0.6922607421875,10.925292015075684,0.0,1.8920897245407104
533096,-0.0369873046875,-0.759765625,0.685546875,11.169432640075684,-0.0610351525247097,2.01416015625
533112,-0.037109375,-0.7484130859375,0.6676025390625,11.169432640075684,0.1220703050494194,2.197265625
533133,-0.0367431640625,-0.74951171875,0.665283203125,10.986327171325684,0.4882812201976776,2.563476324081421
533150,-0.0311279296875,-0.745361328125,0.66748046875,10.803221702575684,0.8544921278953552,2.807616949081421
533166,-0.02099609375,-0.7503662109375,0.6766357421875,10.986327171325684,1.03759765625,3.112792730331421
533183,-0.01318359375,-0.7606201171875,0.6868896484375,11.535643577575684,0.9765624403953552,3.295898199081421
533199,-0.010986328125,-0.767578125,0.69091796875,11.901854515075684,0.9765624403953552,3.356933355331421
533215,-0.0062255859375,-0.8004150390625,0.70703125,12.268065452575684,0.6713866591453552,3.295898199081421
533247,-0.0048828125,-0.8221435546875,0.6837158203125,12.023924827575684,0.4882812201976776,2.990722417831421
533268,-0.0059814453125,-0.8218994140625,0.6737060546875,11.352538108825684,0.54931640625,2.746581792831421
533284,-0.00244140625,-0.828857421875,0.677978515625,10.986327171325684,0.54931640625,2.746581792831421
533305,0.0035400390625,-0.8431396484375,0.689208984375,10.070799827575684,0.4882812201976776,2.50244140625
533322,0.00537109375,-0.844970703125,0.689453125,9.1552734375,0.1831054538488388,2.13623046875
533338,0.0040283203125,-0.8504638671875,0.6865234375,8.30078125,-0.1220703050494194,1.8310545682907104
533359,0.00048828125,-0.859375,0.6822509765625,7.202147960662842,-0.3662109076976776,1.4038084745407104
533424,-0.0081787109375,-0.87060546875,0.638427734375,2.685546636581421,-0.6713866591453552,0.6713866591453552
533441,-0.0196533203125,-0.907958984375,0.583251953125,2.13623046875,-0.7934569716453552,0.54931640625
533462,-0.018310546875,-0.891357421875,0.59765625,0.9765624403953552,0.3662109076976776,-0.4882812201976776
533478,-0.0150146484375,-0.8450927734375,0.6441650390625,0.0610351525247097,0.0610351525247097,-0.4882812201976776
533545,-0.0179443359375,-0.8057861328125,0.6336669921875,-2.3193359375,-0.1220703050494194,-0.4882812201976776
533561,-0.0208740234375,-0.795166015625,0.6490478515625,-2.38037109375,0.0,-0.54931640625
533577,-0.0238037109375,-0.8031005859375,0.6463623046875,-2.50244140625,-0.1831054538488388,-0.4882812201976776
533610,-0.0225830078125,-0.8055419921875,0.660888671875,-2.44140625,-0.1831054538488388,-0.3662109076976776
533627,-0.0244140625,-0.816650390625,0.66650390625,-2.0751953125,-0.1831054538488388,-0.1831054538488388
533648,-0.0289306640625,-0.827880859375,0.672119140625,-1.5258787870407104,-0.1220703050494194,-0.2441406100988388
533663,-0.0303955078125,-0.8323974609375,0.6883544921875,-1.15966796875,-0.1220703050494194,-0.1831054538488388
533680,-0.0321044921875,-0.8385009765625,0.68115234375,-0.4272460639476776,-0.2441406100988388,-0.1220703050494194
533696,-0.0322265625,-0.8460693359375,0.6922607421875,-0.1831054538488388,-0.1220703050494194,0.0
533729,-0.0389404296875,-0.86328125,0.6934814453125,1.03759765625,0.0,0.30517578125
533746,-0.0408935546875,-0.8826904296875,0.7052001953125,1.8920897245407104,-0.1831054538488388,0.2441406100988388
533762,-0.0357666015625,-0.8826904296875,0.697998046875,2.0751953125,-0.1831054538488388,0.1831054538488388
533778,-0.03271484375,-0.885986328125,0.697021484375,2.3193359375,-0.1220703050494194,0.1220703050494194
533798,-0.031005859375,-0.86669921875,0.686767578125,2.44140625,-0.1220703050494194,0.0610351525247097
533814,-0.028564453125,-0.8472900390625,0.6671142578125,2.25830078125,-0.3662109076976776,0.0
533830,-0.025146484375,-0.8304443359375,0.65283203125,1.8920897245407104,-0.30517578125,0.0
533846,-0.018310546875,-0.8021240234375,0.619873046875,0.7934569716453552,-0.1220703050494194,0.30517578125
533867,-0.01416015625,-0.7900390625,0.607177734375,0.1220703050494194,0.0610351525247097,0.4882812201976776
533883,-0.0130615234375,-0.798828125,0.6162109375,-1.3427733182907104,0.30517578125,0.7324218153953552
533900,-0.01220703125,-0.7969970703125,0.6136474609375,-2.50244140625,0.2441406100988388,0.54931640625
533917,-0.0098876953125,-0.7967529296875,0.6153564453125,-3.051757574081421,0.30517578125,0.4882812201976776
533933,-0.007568359375,-0.8018798828125,0.626708984375,-3.662109136581421,0.30517578125,0.3662109076976776
533967,-0.0443115234375,-0.68994140625,0.5426025390625,-5.0048828125,1.2817381620407104,1.4038084745407104
534034,0.093017578125,-1.6689453125,1.3394775390625,-13.549803733825684,-6.591796398162842,-9.46044921875
534056,0.00244140625,-0.5084228515625,0.41455078125,-13.366698265075684,-6.042479991912842,-8.23974609375
534072,-0.07177734375,-0.059814453125,0.1519775390625,-7.812499523162842,-0.1220703050494194,0.0
534093,-0.036376953125,-0.4608154296875,0.410400390625,-3.112792730331421,4.2724609375,6.835937023162842
534110,-0.009521484375,-1.566650390625,1.3045654296875,-7.812499523162842,0.0610351525247097,0.7324218153953552
534126,-0.015380859375,-0.7061767578125,0.5972900390625,-9.33837890625,-3.662109136581421,-3.784179449081421
534143,-0.05419921875,-0.37158203125,0.3101806640625,-7.812499523162842,-1.03759765625,-0.54931640625
534160,-0.01025390625,-0.7998046875,0.69287109375,-6.896972179412842,1.6479490995407104,2.746581792831421
534176,0.0286865234375,-1.036376953125,0.864990234375,-7.507323741912842,-1.6479490995407104,-1.6479490995407104
534208,-0.0211181640625,-0.6480712890625,0.5712890625,-7.263183116912842,0.9155272841453552,1.7089842557907104
534224,-0.0250244140625,-0.9273681640625,0.7957763671875,-7.385253429412842,-0.6713866591453552,0.0610351525247097
534240,-0.0272216796875,-0.759033203125,0.647705078125,-7.202147960662842,-0.7324218153953552,-0.1831054538488388
534276,0.0059814453125,-0.821044921875,0.729248046875,-7.080077648162842,-0.1220703050494194,0.3662109076976776
534292,0.0028076171875,-0.7562255859375,0.6712646484375,-6.835937023162842,-0.2441406100988388,0.2441406100988388
534308,-0.0123291015625,-0.7315673828125,0.6590576171875,-6.530761241912842,-0.0610351525247097,0.6103515625
534324,-0.0233154296875,-0.7850341796875,0.697021484375,-6.591796398162842,-0.1220703050494194,0.4882812201976776
534341,-0.0223388671875,-0.755859375,0.6689453125,-6.591796398162842,-0.0610351525247097,0.4272460639476776
534362,-0.0096435546875,-0.7501220703125,0.6661376953125,-6.652831554412842,0.0610351525247097,0.6713866591453552
534378,-0.0035400390625,-0.7672119140625,0.69140625,-6.774901866912842,0.0,0.54931640625
534395,-0.0089111328125,-0.73876953125,0.670654296875,-6.774901866912842,-0.2441406100988388,0.3662109076976776
534412,-0.0123291015625,-0.7431640625,0.6778564453125,-6.713866710662842,-0.1220703050494194,0.54931640625
534445,-0.0111083984375,-0.7432861328125,0.6832275390625,-6.469726085662842,0.0,0.54931640625
534461,-0.0078125,-0.7481689453125,0.68896484375,-6.347655773162842,-0.0610351525247097,0.4882812201976776
534477,-0.0079345703125,-0.740234375,0.6895751953125,-5.981444835662842,-0.1220703050494194,0.3662109076976776
534507,-0.010986328125,-0.7352294921875,0.698486328125,-5.126952648162842,-0.1220703050494194,0.4882812201976776
534528,-0.011474609375,-0.7388916015625,0.6932373046875,-4.82177734375,-0.1831054538488388,0.54931640625
534545,-0.008056640625,-0.7423095703125,0.69775390625,-4.45556640625,-0.1220703050494194,0.6103515625
534562,-0.0084228515625,-0.732421875,0.68994140625,-4.08935546875,-0.1220703050494194,0.4882812201976776
534578,-0.009521484375,-0.7388916015625,0.7021484375,-3.845214605331421,-0.1220703050494194,0.4272460639476776
534599,-0.0118408203125,-0.7298583984375,0.700439453125,-3.051757574081421,-0.1220703050494194,0.3662109076976776
534620,-0.009765625,-0.731689453125,0.7049560546875,-2.44140625,-0.1831054538488388,0.3662109076976776
534636,-0.007080078125,-0.7313232421875,0.6993408203125,-2.01416015625,-0.2441406100988388,0.30517578125
534656,-0.00927734375,-0.7347412109375,0.7022705078125,-1.4648436307907104,-0.2441406100988388,0.3662109076976776
534701,-0.0101318359375,-0.728271484375,0.69775390625,-0.7324218153953552,-0.1831054538488388,0.30517578125
534717,-0.007568359375,-0.7274169921875,0.7001953125,-0.4882812201976776,-0.1831054538488388,0.4272460639476776
534734,-0.0087890625,-0.728759765625,0.6966552734375,-0.2441406100988388,-0.0610351525247097,0.6103515625
534753,-0.0108642578125,-0.7352294921875,0.6876220703125,-0.54931640625,0.6103515625,1.6479490995407104
534770,-0.014404296875,-0.7548828125,0.6724853515625,-2.0751953125,1.7089842557907104,3.479003667831421
534786,-0.0220947265625,-0.822509765625,0.64599609375,-5.493163585662842,4.21142578125,5.981444835662842
534803,-0.02294921875,-0.9241943359375,0.7086181640625,-6.958007335662842,5.798339366912842,7.019042491912842
534820,-0.0242919921875,-1.3570556640625,1.12646484375,-6.103515148162842,5.126952648162842,4.08935546875
534841,-0.0234375,-1.4407958984375,1.361083984375,-0.4272460639476776,1.0986328125,-1.5869139432907104
534857,-0.0240478515625,-1.28271484375,1.3533935546875,2.929687261581421,-0.30517578125,-2.624511480331421
534874,-0.03076171875,-1.2022705078125,1.2647705078125,8.72802734375,-1.8310545682907104,-2.868652105331421
534891,-0.0384521484375,-1.1221923828125,1.1357421875,10.803221702575684,-1.4648436307907104,-2.50244140625
534924,-0.02734375,-1.0318603515625,1.1397705078125,15.380858421325684,0.4882812201976776,-1.7089842557907104
534941,-0.025390625,-1.063720703125,1.145751953125,17.88330078125,0.0610351525247097,-1.15966796875
534957,-0.0223388671875,-1.0894775390625,1.0863037109375,20.01953125,0.30517578125,-1.03759765625
534986,0.004150390625,-1.1746826171875,1.111328125,21.789548873901367,0.9765624403953552,-1.8920897245407104
535008,0.0107421875,-1.155517578125,1.1094970703125,22.277830123901367,0.6713866591453552,-2.50244140625
535024,0.015625,-1.0740966796875,1.0670166015625,22.766111373901367,0.0610351525247097,-2.685546636581421
535041,0.010009765625,-1.02099609375,0.970703125,22.583005905151367,0.0,-2.50244140625
535058,0.0152587890625,-1.0321044921875,0.9405517578125,21.118162155151367,0.4272460639476776,-2.197265625
535074,0.0184326171875,-1.0330810546875,0.91015625,18.73779296875,0.1831054538488388,-2.563476324081421
535105,0.019287109375,-0.9927978515625,0.82958984375,14.404295921325684,0.0,-3.295898199081421
535121,0.0137939453125,-0.970458984375,0.801513671875,11.230467796325684,-0.8544921278953552,-4.150390625
535137,0.0028076171875,-0.879638671875,0.6998291015625,7.385253429412842,-1.5258787870407104,-4.94384765625
535172,-0.0069580078125,-0.6680908203125,0.4947509765625,1.5869139432907104,-1.4648436307907104,-5.249022960662842
535188,-0.0048828125,-0.546875,0.396240234375,-0.1831054538488388,-1.2817381620407104,-5.065917491912842
535205,-0.0035400390625,-0.4976806640625,0.3614501953125,-3.295898199081421,-0.9155272841453552,-4.7607421875
535221,-0.0045166015625,-0.4012451171875,0.2913818359375,-4.7607421875,-0.7934569716453552,-4.5166015625
535286,-0.00927734375,-0.2047119140625,0.1439208984375,-8.97216796875,0.4272460639476776,-2.929687261581421
535307,-0.0086669921875,-0.1849365234375,0.1322021484375,-9.33837890625,0.8544921278953552,-2.25830078125
535340,-0.0045166015625,-0.1473388671875,0.100830078125,-9.6435546875,1.5869139432907104,-1.5869139432907104
535357,-0.0042724609375,-0.14453125,0.10107421875,-9.6435546875,2.13623046875,-0.9155272841453552
535373,-0.0032958984375,-0.165283203125,0.125,-9.33837890625,2.990722417831421,0.1220703050494194
535407,0.001708984375,-0.2978515625,0.2391357421875,-8.11767578125,3.662109136581421,1.15966796875
535423,0.0010986328125,-0.3970947265625,0.3375244140625,-6.530761241912842,3.906249761581421,1.03759765625
535439,-0.0003662109375,-0.463134765625,0.44287109375,-4.8828125,3.723144292831421,1.3427733182907104
535471,0.0010986328125,-0.6650390625,0.5936279296875,-1.6479490995407104,2.868652105331421,2.0751953125
535487,0.0050048828125,-0.8101806640625,0.6290283203125,-0.1831054538488388,2.38037109375,1.5869139432907104
535503,0.0072021484375,-0.840087890625,0.6263427734375,3.845214605331421,1.8920897245407104,0.2441406100988388
535519,0.01220703125,-0.8585205078125,0.69091796875,8.60595703125,1.5869139432907104,-0.8544921278953552
535543,0.0078125,-0.83203125,0.7449951171875,13.671874046325684,0.30517578125,-1.7700194120407104
535559,0.0003662109375,-0.7801513671875,0.7362060546875,15.930174827575684,-0.3662109076976776,-1.9531248807907104
535576,-0.0050048828125,-0.7552490234375,0.718505859375,20.324705123901367,-1.220703125,-2.197265625
535593,-0.01416015625,-0.7340087890625,0.702392578125,22.399900436401367,-1.4648436307907104,-2.13623046875
535642,-0.029541015625,-0.7158203125,0.6746826171875,32.1044921875,-2.685546636581421,-2.746581792831421
535659,-0.037841796875,-0.724609375,0.6531982421875,34.0576171875,-3.051757574081421,-2.746581792831421
535675,-0.0401611328125,-0.7357177734375,0.6365966796875,34.85107421875,-3.112792730331421,-2.685546636581421
535707,-0.043212890625,-0.79638671875,0.606689453125,36.68212890625,-2.868652105331421,-2.563476324081421
535728,-0.04638671875,-0.8406982421875,0.5902099609375,37.29248046875,-2.624511480331421,-2.746581792831421
535748,-0.0489501953125,-0.8609619140625,0.561279296875,37.17041015625,-2.3193359375,-2.807616949081421
535764,-0.0499267578125,-0.8670654296875,0.540283203125,36.2548828125,-1.8920897245407104,-2.685546636581421
535781,-0.052001953125,-0.8697509765625,0.5306396484375,35.400390625,-1.6479490995407104,-2.563476324081421
535798,-0.0517578125,-0.8642578125,0.52880859375,33.0810546875,-1.03759765625,-2.3193359375
535835,-0.039306640625,-0.83935546875,0.5341796875,26.916501998901367,-0.3662109076976776,-1.7089842557907104
535884,-0.0279541015625,-0.8199462890625,0.524658203125,17.4560546875,0.6103515625,-0.30517578125
535901,-0.022216796875,-0.845458984375,0.5294189453125,13.671874046325684,0.6103515625,0.0610351525247097
535922,-0.019775390625,-0.850341796875,0.52294921875,11.657713890075684,0.7324218153953552,0.1220703050494194
535938,-0.0179443359375,-0.84912109375,0.5123291015625,7.873534679412842,0.9765624403953552,0.4272460639476776
535955,-0.018310546875,-0.8729248046875,0.524169921875,4.45556640625,1.2817381620407104,0.7324218153953552
535972,-0.017333984375,-0.891845703125,0.5238037109375,2.868652105331421,1.220703125,0.7324218153953552
536005,-0.0186767578125,-0.8876953125,0.527099609375,-2.990722417831421,1.3427733182907104,0.9765624403953552
536021,-0.0238037109375,-0.8817138671875,0.5313720703125,-5.554198741912842,1.4038084745407104,0.9765624403953552
536037,-0.0264892578125,-0.8753662109375,0.53076171875,-6.713866710662842,1.3427733182907104,1.03759765625
536069,-0.0302734375,-0.8533935546875,0.5369873046875,-9.8876953125,1.4038084745407104,1.15966796875
536085,-0.031982421875,-0.8485107421875,0.53857421875,-11.291502952575684,1.3427733182907104,1.2817381620407104
536101,-0.0350341796875,-0.8399658203125,0.539306640625,-12.329100608825684,1.2817381620407104,1.4038084745407104
536117,-0.035888671875,-0.8355712890625,0.5379638671875,-12.756346702575684,1.3427733182907104,1.4038084745407104
536142,-0.033203125,-0.833984375,0.5377197265625,-13.122557640075684,1.3427733182907104,1.5258787870407104
536158,-0.03076171875,-0.844970703125,0.5447998046875,-13.000487327575684,1.2817381620407104,1.5258787870407104
536175,-0.030517578125,-0.850830078125,0.5472412109375,-12.817381858825684,1.220703125,1.4038084745407104
536196,-0.0281982421875,-0.8564453125,0.5557861328125,-11.901854515075684,1.03759765625,1.220703125
536212,-0.026123046875,-0.8648681640625,0.56982421875,-11.474608421325684,0.9765624403953552,1.15966796875
536244,-0.0247802734375,-0.8604736328125,0.5853271484375,-9.27734375,0.4882812201976776,0.7324218153953552
536308,-0.0257568359375,-0.8428955078125,0.576416015625,-4.7607421875,-0.0610351525247097,0.0610351525247097
536329,-0.0245361328125,-0.83203125,0.57373046875,-3.173827886581421,-0.1831054538488388,-0.0610351525247097
536345,-0.0225830078125,-0.82470703125,0.562744140625,-2.38037109375,-0.2441406100988388,-0.1220703050494194
536362,-0.022216796875,-0.8216552734375,0.55615234375,-0.7324218153953552,-0.2441406100988388,-0.1831054538488388
536379,-0.021484375,-0.81982421875,0.5548095703125,0.8544921278953552,-0.2441406100988388,-0.30517578125
536395,-0.018798828125,-0.8187255859375,0.55859375,1.7089842557907104,-0.2441406100988388,-0.30517578125
536429,-0.01708984375,-0.8284912109375,0.568115234375,4.94384765625,-0.2441406100988388,-0.30517578125
536445,-0.01611328125,-0.830810546875,0.5679931640625,6.408690929412842,-0.30517578125,-0.4882812201976776
536461,-0.013916015625,-0.8262939453125,0.5672607421875,7.141112804412842,-0.30517578125,-0.4882812201976776
536477,-0.013916015625,-0.8255615234375,0.5628662109375,8.36181640625,-0.30517578125,-0.4272460639476776
536502,-0.0126953125,-0.82666015625,0.562744140625,9.27734375,-0.1831054538488388,-0.2441406100988388
536518,-0.0140380859375,-0.8385009765625,0.5731201171875,10.009765625,-0.2441406100988388,-0.2441406100988388
536535,-0.015380859375,-0.8416748046875,0.5714111328125,10.314940452575684,-0.3662109076976776,-0.30517578125
536585,-0.020263671875,-0.8416748046875,0.54736328125,10.742186546325684,-0.4882812201976776,-0.0610351525247097
536618,-0.026123046875,-0.8548583984375,0.536865234375,10.131834983825684,-0.54931640625,-0.0610351525247097
536635,-0.02490234375,-0.8524169921875,0.5240478515625,9.70458984375,-0.4882812201976776,-0.0610351525247097
536668,-0.025634765625,-0.854736328125,0.5244140625,7.751464366912842,-0.1831054538488388,0.0610351525247097
536701,-0.0245361328125,-0.8651123046875,0.53857421875,6.225585460662842,-0.0610351525247097,0.0610351525247097
536743,-0.0257568359375,-0.871337890625,0.547607421875,4.45556640625,-0.1220703050494194,-0.1220703050494194
536760,-0.02734375,-0.8701171875,0.547119140625,3.723144292831421,-0.1831054538488388,-0.1220703050494194
536776,-0.0262451171875,-0.88037109375,0.5516357421875,3.479003667831421,-0.1831054538488388,-0.1220703050494194
536797,-0.0235595703125,-0.8895263671875,0.5523681640625,2.624511480331421,-0.3662109076976776,-0.30517578125
536813,-0.0208740234375,-0.90380859375,0.552490234375,1.8920897245407104,-0.3662109076976776,-0.6713866591453552
536830,-0.0172119140625,-0.9100341796875,0.56005859375,1.5869139432907104,-0.4272460639476776,-0.7934569716453552
536846,-0.0133056640625,-0.916259765625,0.5753173828125,1.0986328125,-0.7934569716453552,-1.15966796875
536867,-0.0142822265625,-0.912841796875,0.57275390625,0.9155272841453552,-1.03759765625,-1.4038084745407104
536883,-0.0146484375,-0.914306640625,0.568603515625,0.6103515625,-1.4648436307907104,-1.8920897245407104
536902,-0.0152587890625,-0.9053955078125,0.56201171875,0.4272460639476776,-1.8920897245407104,-2.563476324081421
536919,-0.0155029296875,-0.88037109375,0.5555419921875,0.3662109076976776,-2.13623046875,-2.990722417831421
536936,-0.0181884765625,-0.8699951171875,0.5618896484375,0.54931640625,-2.25830078125,-3.173827886581421
536967,-0.0264892578125,-0.8619384765625,0.5543212890625,1.4648436307907104,-2.868652105331421,-3.662109136581421
536983,-0.0328369140625,-0.8587646484375,0.5413818359375,2.38037109375,-2.868652105331421,-3.601073980331421
536999,-0.0357666015625,-0.866455078125,0.5423583984375,2.990722417831421,-2.868652105331421,-3.662109136581421
537035,-0.0533447265625,-0.828125,0.4935302734375,5.798339366912842,-2.807616949081421,-3.784179449081421
537083,-0.0721435546875,-0.8004150390625,0.4393310546875,7.934569835662842,-2.3193359375,-3.601073980331421
537105,-0.0791015625,-0.779541015625,0.4349365234375,8.85009765625,-1.4648436307907104,-2.868652105331421
537122,-0.0806884765625,-0.797119140625,0.452880859375,9.765625,-0.7934569716453552,-2.01416015625
537139,-0.0814208984375,-0.806884765625,0.458740234375,10.437010765075684,-0.7324218153953552,-1.8310545682907104
537155,-0.0780029296875,-0.781982421875,0.43896484375,10.559081077575684,-0.4272460639476776,-1.5869139432907104
537172,-0.0753173828125,-0.781005859375,0.4443359375,10.559081077575684,0.4272460639476776,-0.6713866591453552
537205,-0.061279296875,-0.8218994140625,0.521240234375,10.620116233825684,1.0986328125,0.4882812201976776
537227,-0.0565185546875,-0.8314208984375,0.53515625,10.681151390075684,1.0986328125,0.6713866591453552
537243,-0.0478515625,-0.8326416015625,0.541748046875,10.620116233825684,1.0986328125,0.9155272841453552
537260,-0.0369873046875,-0.8291015625,0.5401611328125,10.253905296325684,1.15966796875,1.4648436307907104
537277,-0.0291748046875,-0.8216552734375,0.53173828125,9.94873046875,1.220703125,1.6479490995407104
537293,-0.026123046875,-0.835205078125,0.5269775390625,8.97216796875,1.3427733182907104,2.197265625
537325,-0.0169677734375,-0.8255615234375,0.51025390625,5.615233898162842,1.4038084745407104,2.624511480331421
537347,-0.01318359375,-0.8182373046875,0.5045166015625,4.638671875,1.4038084745407104,2.807616949081421
537363,-0.0123291015625,-0.8153076171875,0.4921875,2.563476324081421,1.4648436307907104,3.356933355331421
537380,-0.017333984375,-0.834228515625,0.4884033203125,0.1220703050494194,1.4648436307907104,3.601073980331421
537397,-0.017822265625,-0.8416748046875,0.48828125,-1.15966796875,1.4648436307907104,3.540038824081421
537413,-0.01708984375,-0.8319091796875,0.4886474609375,-3.601073980331421,1.2817381620407104,3.356933355331421
537445,-0.024169921875,-0.8084716796875,0.488525390625,-6.713866710662842,0.9765624403953552,3.662109136581421
537467,-0.0250244140625,-0.812255859375,0.4891357421875,-7.324218273162842,0.9765624403953552,3.784179449081421
537483,-0.0228271484375,-0.8509521484375,0.5196533203125,-8.4228515625,0.6713866591453552,3.662109136581421
537500,-0.02099609375,-0.865234375,0.533203125,-9.09423828125,0.1831054538488388,3.234863042831421
537517,-0.02490234375,-0.8663330078125,0.528564453125,-9.27734375,-0.1220703050494194,3.051757574081421
537533,-0.026123046875,-0.86181640625,0.52490234375,-9.765625,-0.4882812201976776,2.685546636581421
537567,-0.026123046875,-0.8365478515625,0.494140625,-11.108397483825684,-1.220703125,2.0751953125
537583,-0.02685546875,-0.81982421875,0.4794921875,-11.535643577575684,-1.220703125,1.8920897245407104
537599,-0.0269775390625,-0.7955322265625,0.462646484375,-12.512206077575684,-1.220703125,2.01416015625
537631,-0.025390625,-0.7921142578125,0.4598388671875,-14.099120140075684,-1.3427733182907104,1.8310545682907104
537679,-0.02734375,-0.8082275390625,0.4771728515625,-16.29638671875,-1.7700194120407104,1.0986328125
537701,-0.0279541015625,-0.7869873046875,0.4722900390625,-16.7236328125,-1.9531248807907104,1.03759765625
537718,-0.02734375,-0.804443359375,0.4906005859375,-16.90673828125,-1.8920897245407104,1.15966796875
537735,-0.0277099609375,-0.8157958984375,0.501708984375,-16.9677734375,-2.13623046875,0.7934569716453552
537784,-0.0343017578125,-0.795654296875,0.51171875,-15.563963890075684,-2.624511480331421,0.3662109076976776
537824,-0.036865234375,-0.783203125,0.5233154296875,-13.244627952575684,-3.173827886581421,0.0
537841,-0.041259765625,-0.78662109375,0.5330810546875,-11.779784202575684,-3.173827886581421,0.0610351525247097
537858,-0.0404052734375,-0.799560546875,0.55322265625,-10.925292015075684,-3.234863042831421,0.0
537875,-0.038330078125,-0.7996826171875,0.5595703125,-9.1552734375,-3.540038824081421,-0.30517578125
537891,-0.0355224609375,-0.7647705078125,0.5543212890625,-7.141112804412842,-3.784179449081421,-0.6103515625
537924,-0.0399169921875,-0.7210693359375,0.54296875,-4.08935546875,-3.723144292831421,0.0
537946,-0.0419921875,-0.7269287109375,0.5443115234375,-2.13623046875,-3.601073980331421,0.4882812201976776
537962,-0.0440673828125,-0.7568359375,0.55419921875,-0.2441406100988388,-3.356933355331421,0.7934569716453552
537979,-0.0389404296875,-0.810791015625,0.5848388671875,0.6713866591453552,-3.417968511581421,0.7934569716453552
537996,-0.03759765625,-0.8203125,0.583984375,2.13623046875,-3.784179449081421,0.1831054538488388
538012,-0.038330078125,-0.8043212890625,0.568603515625,3.356933355331421,-3.723144292831421,0.1220703050494194
538045,-0.044921875,-0.809814453125,0.5562744140625,4.2724609375,-3.906249761581421,0.1220703050494194
538067,-0.0479736328125,-0.8033447265625,0.5443115234375,4.21142578125,-3.845214605331421,0.1831054538488388
538083,-0.051513671875,-0.8092041015625,0.5389404296875,4.08935546875,-3.540038824081421,0.3662109076976776
538100,-0.049072265625,-0.822509765625,0.550048828125,3.906249761581421,-3.417968511581421,0.3662109076976776
538117,-0.0455322265625,-0.8277587890625,0.5491943359375,3.417968511581421,-3.356933355331421,0.4882812201976776
538133,-0.0386962890625,-0.841552734375,0.55078125,2.746581792831421,-3.356933355331421,0.4882812201976776
538167,-0.0477294921875,-0.8382568359375,0.547119140625,1.5258787870407104,-3.112792730331421,0.54931640625
538183,-0.0465087890625,-0.8402099609375,0.55126953125,0.8544921278953552,-2.868652105331421,0.6713866591453552
538199,-0.0416259765625,-0.84033203125,0.556884765625,0.4272460639476776,-2.746581792831421,0.8544921278953552
538231,-0.04248046875,-0.8406982421875,0.5623779296875,0.2441406100988388,-2.624511480331421,0.9765624403953552
538247,-0.044677734375,-0.84423828125,0.5606689453125,0.2441406100988388,-2.50244140625,1.03759765625
538263,-0.0438232421875,-0.8460693359375,0.562255859375,0.2441406100988388,-2.25830078125,1.0986328125
538279,-0.04150390625,-0.8367919921875,0.555908203125,0.3662109076976776,-2.13623046875,1.220703125
538299,-0.0399169921875,-0.8262939453125,0.5540771484375,0.7324218153953552,-1.8310545682907104,1.3427733182907104
538320,-0.0396728515625,-0.8236083984375,0.5535888671875,0.9155272841453552,-1.7700194120407104,1.3427733182907104
538336,-0.0360107421875,-0.811767578125,0.553955078125,1.4038084745407104,-1.4648436307907104,1.5258787870407104
538353,-0.03466796875,-0.812744140625,0.55419921875,2.13623046875,-1.2817381620407104,1.7089842557907104
538374,-0.035400390625,-0.8118896484375,0.5560302734375,3.051757574081421,-0.9155272841453552,1.8310545682907104
538407,-0.0360107421875,-0.84375,0.585205078125,4.57763671875,-0.7324218153953552,1.9531248807907104
538423,-0.03515625,-0.84033203125,0.5828857421875,5.676269054412842,-0.7324218153953552,1.7089842557907104
538443,-0.036376953125,-0.8209228515625,0.5654296875,6.530761241912842,-0.4272460639476776,1.7700194120407104
538459,-0.03515625,-0.8125,0.5655517578125,7.263183116912842,0.0610351525247097,2.13623046875
538478,-0.033447265625,-0.8197021484375,0.5794677734375,7.629394054412842,0.2441406100988388,2.3193359375
538499,-0.0347900390625,-0.82275390625,0.5849609375,8.48388671875,0.3662109076976776,2.25830078125
538516,-0.03466796875,-0.8187255859375,0.5843505859375,9.521484375,0.4882812201976776,2.3193359375
538533,-0.033935546875,-0.8162841796875,0.5826416015625,9.8876953125,0.7324218153953552,2.50244140625
538549,-0.0333251953125,-0.8372802734375,0.586669921875,10.498045921325684,1.03759765625,2.807616949081421
538583,-0.037353515625,-0.83203125,0.572998046875,11.047362327575684,1.5258787870407104,3.051757574081421
538647,-0.0350341796875,-0.850341796875,0.5731201171875,10.559081077575684,2.25830078125,3.540038824081421
538663,-0.0338134765625,-0.853515625,0.5740966796875,9.8876953125,2.38037109375,3.723144292831421
538679,-0.033203125,-0.8638916015625,0.568115234375,9.09423828125,2.563476324081421,3.784179449081421
538711,-0.034423828125,-0.8670654296875,0.56494140625,7.873534679412842,2.685546636581421,3.784179449081421
538727,-0.03466796875,-0.8681640625,0.5609130859375,7.324218273162842,2.807616949081421,3.784179449081421
538743,-0.032958984375,-0.8818359375,0.5614013671875,6.042479991912842,3.051757574081421,3.906249761581421
538759,-0.030517578125,-0.9068603515625,0.5732421875,4.8828125,2.990722417831421,3.601073980331421
538778,-0.0303955078125,-0.9073486328125,0.5733642578125,4.45556640625,2.929687261581421,3.356933355331421
538799,-0.035400390625,-0.8948974609375,0.5645751953125,3.662109136581421,2.868652105331421,3.234863042831421
538816,-0.0367431640625,-0.8912353515625,0.5576171875,2.807616949081421,2.990722417831421,3.112792730331421
538833,-0.0367431640625,-0.898193359375,0.555908203125,2.3193359375,3.051757574081421,3.112792730331421
538849,-0.036376953125,-0.9068603515625,0.5609130859375,1.5869139432907104,2.990722417831421,2.929687261581421
538883,-0.0357666015625,-0.900146484375,0.55859375,0.7934569716453552,2.746581792831421,2.624511480331421
538900,-0.0377197265625,-0.91064453125,0.5531005859375,0.6713866591453552,2.563476324081421,2.624511480331421
538921,-0.040771484375,-0.9183349609375,0.5479736328125,0.4882812201976776,2.685546636581421,2.624511480331421
538937,-0.041015625,-0.9532470703125,0.5784912109375,0.54931640625,2.685546636581421,2.3193359375
538954,-0.038330078125,-0.9647216796875,0.589111328125,0.7934569716453552,2.44140625,2.0751953125
538971,-0.0316162109375,-0.9539794921875,0.5897216796875,1.7089842557907104,2.01416015625,1.6479490995407104
539004,-0.02880859375,-0.91845703125,0.55810546875,3.051757574081421,1.7089842557907104,1.5869139432907104
539069,-0.002685546875,-0.9285888671875,0.560791015625,4.94384765625,0.9765624403953552,1.0986328125
539085,0.0028076171875,-0.94287109375,0.578369140625,5.554198741912842,0.8544921278953552,1.220703125
539101,0.00634765625,-0.9423828125,0.574951171875,6.347655773162842,0.2441406100988388,0.6713866591453552
539117,0.0057373046875,-0.9324951171875,0.5701904296875,6.835937023162842,0.0,0.4882812201976776
539137,0.0006103515625,-0.9249267578125,0.5577392578125,7.751464366912842,-0.30517578125,0.1831054538488388
539159,0.0389404296875,-1.3443603515625,0.8275146484375,6.042479991912842,-1.220703125,-0.9155272841453552
539175,0.1546630859375,-1.939208984375,1.225830078125,-7.202147960662842,-8.7890625,-11.779784202575684
539192,-0.0479736328125,-0.5272216796875,0.3072509765625,-9.6435546875,-10.559081077575684,-14.160155296325684
539209,-0.053955078125,-0.4632568359375,0.2529296875,-2.3193359375,-7.141112804412842,-9.94873046875
539242,-0.042724609375,-0.51171875,0.375244140625,-9.33837890625,4.2724609375,9.33837890625
539259,-0.0235595703125,-0.6932373046875,0.47216796875,-8.36181640625,2.868652105331421,8.30078125
539307,-0.008544921875,-0.4501953125,0.2730712890625,-4.45556640625,-2.44140625,-4.150390625
539328,-0.0574951171875,-0.556396484375,0.400634765625,-5.432128429412842,2.563476324081421,4.33349609375
539361,-0.0057373046875,-0.9720458984375,0.60498046875,-4.150390625,-1.9531248807907104,-2.807616949081421
539378,-0.0133056640625,-0.5848388671875,0.382568359375,-4.150390625,0.6713866591453552,1.7700194120407104
539394,-0.0181884765625,-1.076171875,0.6746826171875,-4.2724609375,0.7324218153953552,1.8920897245407104
539428,-0.0218505859375,-0.7523193359375,0.4739990234375,-3.662109136581421,0.0610351525247097,0.7324218153953552
539444,-0.01953125,-0.924072265625,0.6019287109375,-3.417968511581421,-0.1831054538488388,0.3662109076976776
539460,-0.012939453125,-0.800048828125,0.525146484375,-3.295898199081421,-0.4882812201976776,0.0
539494,-0.0203857421875,-0.8897705078125,0.572998046875,-2.990722417831421,-0.3662109076976776,0.2441406100988388
539548,-0.0159912109375,-0.8702392578125,0.5714111328125,-2.563476324081421,-0.2441406100988388,0.3662109076976776
539565,-0.01904296875,-0.82861328125,0.543212890625,-2.44140625,-0.30517578125,0.3662109076976776
539581,-0.02197265625,-0.85107421875,0.5567626953125,-2.13623046875,-0.1220703050494194,0.4882812201976776
539598,-0.020751953125,-0.8544921875,0.5587158203125,-1.8310545682907104,-0.1220703050494194,0.30517578125
539619,-0.0172119140625,-0.8370361328125,0.5577392578125,-1.4038084745407104,-0.1831054538488388,0.30517578125
539635,-0.01708984375,-0.8448486328125,0.560546875,-0.7934569716453552,-0.2441406100988388,0.30517578125
539651,-0.0167236328125,-0.8363037109375,0.558349609375,-0.6103515625,-0.2441406100988388,0.30517578125
539668,-0.01708984375,-0.8310546875,0.5533447265625,-0.1831054538488388,-0.2441406100988388,0.30517578125
539689,-0.0184326171875,-0.8509521484375,0.5635986328125,0.30517578125,-0.2441406100988388,0.30517578125
539705,-0.01904296875,-0.833984375,0.552490234375,0.4882812201976776,-0.2441406100988388,0.2441406100988388
539722,-0.0177001953125,-0.832275390625,0.5516357421875,0.9155272841453552,-0.1831054538488388,0.30517578125
539739,-0.01806640625,-0.851318359375,0.56396484375,1.3427733182907104,-0.30517578125,0.2441406100988388
539755,-0.018798828125,-0.8333740234375,0.55322265625,1.5258787870407104,-0.3662109076976776,0.2441406100988388
539788,-0.016845703125,-0.850830078125,0.55810546875,2.01416015625,-0.3662109076976776,0.1831054538488388
539805,-0.017578125,-0.8406982421875,0.5509033203125,2.25830078125,-0.30517578125,0.2441406100988388
539821,-0.0186767578125,-0.8438720703125,0.5523681640625,2.3193359375,-0.30517578125,0.2441406100988388
539837,-0.019775390625,-0.845947265625,0.552978515625,2.3193359375,-0.3662109076976776,0.1831054538488388
539857,-0.018310546875,-0.8458251953125,0.55126953125,2.38037109375,-0.30517578125,0.1220703050494194
539879,-0.0174560546875,-0.846435546875,0.5528564453125,2.38037109375,-0.3662109076976776,0.1831054538488388
539895,-0.017333984375,-0.8463134765625,0.54931640625,2.38037109375,-0.3662109076976776,0.1831054538488388
539912,-0.0185546875,-0.84716796875,0.550537109375,2.44140625,-0.3662109076976776,0.2441406100988388
539929,-0.019775390625,-0.84814453125,0.5506591796875,2.3193359375,-0.3662109076976776,0.2441406100988388
539962,-0.017333984375,-0.845703125,0.54638671875,2.3193359375,-0.3662109076976776,0.2441406100988388
539980,-0.0201416015625,-0.85205078125,0.5445556640625,2.0751953125,-0.2441406100988388,0.3662109076976776
540000,-0.01953125,-0.8526611328125,0.544677734375,1.7700194120407104,-0.2441406100988388,0.4272460639476776
540020,-0.01708984375,-0.849853515625,0.5416259765625,1.4648436307907104,-0.30517578125,0.3662109076976776
540042,-0.0196533203125,-0.85302734375,0.5421142578125,0.9765624403953552,-0.2441406100988388,0.30517578125
540058,-0.021240234375,-0.8536376953125,0.5419921875,0.3662109076976776,-0.2441406100988388,0.4272460639476776
540079,-0.01806640625,-0.85107421875,0.5418701171875,-0.1831054538488388,-0.1220703050494194,0.4272460639476776
540096,-0.0164794921875,-0.856201171875,0.5419921875,-0.4882812201976776,-0.1831054538488388,0.4272460639476776
540112,-0.0167236328125,-0.85595703125,0.542724609375,-1.220703125,-0.2441406100988388,0.30517578125
540146,-0.0203857421875,-0.8514404296875,0.54541015625,-2.25830078125,-0.1831054538488388,0.3662109076976776
540162,-0.01953125,-0.8482666015625,0.5440673828125,-2.44140625,-0.1831054538488388,0.3662109076976776
540178,-0.0179443359375,-0.850830078125,0.5513916015625,-2.807616949081421,-0.1831054538488388,0.3662109076976776
540209,-0.01904296875,-0.8468017578125,0.548095703125,-3.173827886581421,-0.1831054538488388,0.3662109076976776
540231,-0.0172119140625,-0.8477783203125,0.5528564453125,-3.417968511581421,-0.2441406100988388,0.30517578125
540247,-0.0177001953125,-0.8447265625,0.5531005859375,-3.540038824081421,-0.1831054538488388,0.30517578125
540264,-0.0186767578125,-0.845703125,0.5550537109375,-3.723144292831421,-0.1831054538488388,0.3662109076976776
540280,-0.0185546875,-0.8385009765625,0.5526123046875,-3.784179449081421,-0.1831054538488388,0.4272460639476776
540297,-0.0181884765625,-0.8377685546875,0.5576171875,-3.845214605331421,0.0,0.6713866591453552
540330,-0.01513671875,-0.831298828125,0.5498046875,-4.0283203125,0.54931640625,1.8920897245407104
540346,-0.0177001953125,-0.8502197265625,0.5438232421875,-5.310058116912842,1.4038084745407104,3.845214605331421
540362,-0.022216796875,-0.8804931640625,0.5379638671875,-6.591796398162842,2.13623046875,5.310058116912842
540378,-0.040771484375,-1.011962890625,0.566650390625,-9.27734375,5.0048828125,9.033203125
540403,-0.0377197265625,-1.6234130859375,0.97900390625,-6.164550304412842,3.845214605331421,6.164550304412842
540419,-0.0174560546875,-1.808837890625,1.2158203125,-2.13623046875,1.6479490995407104,1.4038084745407104
540436,-0.0196533203125,-1.5343017578125,1.1309814453125,5.920409679412842,-2.868652105331421,-4.150390625
540453,-0.030517578125,-1.4080810546875,1.015625,12.268065452575684,-4.45556640625,-4.2724609375
540519,-0.0484619140625,-1.1690673828125,0.801513671875,19.287109375,-1.5869139432907104,-0.30517578125
540640,-0.022216796875,-1.06689453125,0.7056884765625,26.611326217651367,-0.54931640625,0.6103515625
540657,-0.0123291015625,-1.0673828125,0.6724853515625,26.184080123901367,-0.54931640625,0.54931640625
540694,0.0020751953125,-1.0992431640625,0.6375732421875,22.888181686401367,0.4272460639476776,0.9155272841453552
540711,-0.0003662109375,-1.1142578125,0.6375732421875,20.935056686401367,0.0,-0.2441406100988388
540727,-0.0064697265625,-1.0223388671875,0.56689453125,18.85986328125,-0.4882812201976776,-1.15966796875
540744,-0.0076904296875,-0.968994140625,0.52294921875,17.63916015625,-0.54931640625,-1.3427733182907104
540761,-0.0050048828125,-0.8472900390625,0.4508056640625,15.014647483825684,-0.6103515625,-1.7089842557907104
540782,-0.00244140625,-0.7120361328125,0.3599853515625,11.413573265075684,-0.3662109076976776,-1.5869139432907104
540798,-0.0030517578125,-0.60205078125,0.2841796875,9.521484375,-0.2441406100988388,-1.4038084745407104
540816,-0.00390625,-0.5560302734375,0.2569580078125,6.164550304412842,0.1220703050494194,-1.2817381620407104
540833,-0.000732421875,-0.4576416015625,0.21240234375,3.295898199081421,0.1220703050494194,-1.2817381620407104
540866,0.001708984375,-0.2884521484375,0.1295166015625,-0.6713866591453552,0.4272460639476776,-0.7324218153953552
540882,-0.002197265625,-0.2545166015625,0.1090087890625,-2.50244140625,0.4882812201976776,-0.6713866591453552
540898,-0.0101318359375,-0.19482421875,0.0684814453125,-3.356933355331421,0.9765624403953552,-0.30517578125
540930,-0.0064697265625,-0.1602783203125,0.06103515625,-5.859374523162842,1.7089842557907104,0.7934569716453552
540946,-0.0015869140625,-0.1690673828125,0.0726318359375,-6.347655773162842,1.8310545682907104,1.03759765625
540962,0.0003662109375,-0.1912841796875,0.0863037109375,-7.202147960662842,2.25830078125,1.6479490995407104
540978,0.0050048828125,-0.255859375,0.13671875,-7.324218273162842,2.50244140625,1.9531248807907104
540998,0.0107421875,-0.3321533203125,0.1795654296875,-7.202147960662842,2.38037109375,2.197265625
541014,0.0111083984375,-0.365234375,0.2015380859375,-7.141112804412842,2.50244140625,2.50244140625
541030,0.0030517578125,-0.507080078125,0.2967529296875,-6.530761241912842,2.868652105331421,3.234863042831421
541046,-0.0001220703125,-0.700439453125,0.4346923828125,-5.981444835662842,2.868652105331421,3.112792730331421
541068,0.003662109375,-0.7821044921875,0.4952392578125,-4.45556640625,1.8310545682907104,2.3193359375
541084,0.0045166015625,-0.922119140625,0.54541015625,-2.25830078125,0.4272460639476776,1.4648436307907104
541101,-0.002197265625,-1.044921875,0.5557861328125,-1.0986328125,-0.1831054538488388,0.9155272841453552
541118,-0.018310546875,-1.0869140625,0.517333984375,1.7089842557907104,-1.0986328125,-0.7934569716453552
541134,-0.0235595703125,-1.0767822265625,0.5113525390625,4.21142578125,-1.3427733182907104,-2.44140625
541200,-0.0328369140625,-0.8675537109375,0.4517822265625,11.596678733825684,-2.25830078125,-4.2724609375
541242,-0.0416259765625,-0.7955322265625,0.4229736328125,14.038084983825684,-1.8310545682907104,-3.906249761581421
541259,-0.0411376953125,-0.8070068359375,0.4268798828125,14.465331077575684,-1.6479490995407104,-3.723144292831421
541276,-0.0411376953125,-0.8228759765625,0.427001953125,15.136717796325684,-1.5258787870407104,-3.479003667831421
541326,-0.0430908203125,-0.905029296875,0.424072265625,16.4794921875,-0.6713866591453552,-3.479003667831421
541368,-0.0447998046875,-0.9542236328125,0.441650390625,16.29638671875,-0.0610351525247097,-3.234863042831421
541384,-0.0406494140625,-0.9415283203125,0.4273681640625,15.686034202575684,0.0,-3.173827886581421
541403,-0.034423828125,-0.9217529296875,0.41259765625,14.709471702575684,0.3662109076976776,-2.746581792831421
541420,-0.0263671875,-0.912109375,0.406982421875,14.038084983825684,0.54931640625,-2.50244140625
541436,-0.021728515625,-0.9044189453125,0.406982421875,12.084959983825684,0.7324218153953552,-2.01416015625
541469,-0.01416015625,-0.8690185546875,0.3892822265625,7.629394054412842,1.03759765625,-0.7324218153953552
541486,-0.01416015625,-0.8741455078125,0.3900146484375,6.469726085662842,1.0986328125,-0.4272460639476776
541502,-0.0166015625,-0.8846435546875,0.390625,4.0283203125,1.2817381620407104,0.0
541518,-0.0179443359375,-0.888427734375,0.3885498046875,2.807616949081421,1.2817381620407104,0.2441406100988388
541543,-0.02197265625,-0.9039306640625,0.3968505859375,0.7324218153953552,1.4038084745407104,0.7934569716453552
541559,-0.029052734375,-0.9200439453125,0.4130859375,-1.03759765625,1.5258787870407104,1.03759765625
541576,-0.0316162109375,-0.9163818359375,0.416015625,-2.38037109375,1.4038084745407104,0.9765624403953552
541593,-0.0341796875,-0.916015625,0.4215087890625,-2.868652105331421,1.3427733182907104,1.0986328125
541610,-0.037841796875,-0.9354248046875,0.4320068359375,-4.2724609375,1.2817381620407104,1.4038084745407104
541642,-0.0457763671875,-0.9398193359375,0.43701171875,-5.0048828125,1.0986328125,1.0986328125
541659,-0.0465087890625,-0.929931640625,0.434326171875,-5.554198741912842,0.9765624403953552,1.0986328125
541675,-0.047119140625,-0.926025390625,0.43212890625,-5.737304210662842,0.9765624403953552,1.0986328125
541707,-0.046630859375,-0.9093017578125,0.422607421875,-6.286620616912842,0.9155272841453552,1.03759765625
541771,-0.0360107421875,-0.8992919921875,0.421875,-6.042479991912842,0.9765624403953552,1.2817381620407104
541787,-0.03564453125,-0.9033203125,0.428466796875,-5.798339366912842,0.9155272841453552,1.220703125
541803,-0.0345458984375,-0.909423828125,0.4398193359375,-5.249022960662842,0.8544921278953552,1.0986328125
541819,-0.0306396484375,-0.90771484375,0.4464111328125,-5.0048828125,0.8544921278953552,1.0986328125
541839,-0.028076171875,-0.9071044921875,0.4478759765625,-4.39453125,0.54931640625,1.03759765625
541855,-0.0281982421875,-0.904541015625,0.4488525390625,-3.784179449081421,0.54931640625,1.03759765625
541871,-0.0301513671875,-0.9068603515625,0.4552001953125,-2.868652105331421,0.4272460639476776,1.03759765625
541887,-0.0323486328125,-0.90771484375,0.4539794921875,-2.44140625,0.3662109076976776,1.03759765625
541903,-0.031005859375,-0.9080810546875,0.45263671875,-1.7700194120407104,0.2441406100988388,0.9765624403953552
541919,-0.0277099609375,-0.907470703125,0.4534912109375,-1.4648436307907104,0.1220703050494194,0.9765624403953552
541951,-0.0263671875,-0.910400390625,0.441650390625,-0.4272460639476776,-0.0610351525247097,0.7934569716453552
541967,-0.0260009765625,-0.91357421875,0.440673828125,-0.2441406100988388,-0.1220703050494194,0.6713866591453552
541983,-0.0225830078125,-0.9100341796875,0.441162109375,0.1220703050494194,-0.30517578125,0.3662109076976776
541999,-0.019287109375,-0.89697265625,0.4415283203125,0.30517578125,-0.4272460639476776,0.1831054538488388
542019,-0.0194091796875,-0.8853759765625,0.4398193359375,0.6103515625,-0.6103515625,0.0610351525247097
542035,-0.0203857421875,-0.8839111328125,0.44140625,0.7934569716453552,-0.7324218153953552,-0.1220703050494194
542051,-0.023193359375,-0.875,0.4439697265625,0.7934569716453552,-0.9155272841453552,-0.4272460639476776
542067,-0.023193359375,-0.865234375,0.444580078125,0.7324218153953552,-0.9155272841453552,-0.4882812201976776
542088,-0.02197265625,-0.8558349609375,0.451416015625,0.6713866591453552,-0.9155272841453552,-0.54931640625
542104,-0.0245361328125,-0.8409423828125,0.4576416015625,0.6103515625,-1.03759765625,-0.6103515625
542121,-0.03125,-0.81982421875,0.455078125,0.6103515625,-1.220703125,-0.6713866591453552
542187,-0.03564453125,-0.83447265625,0.4654541015625,0.4272460639476776,-1.15966796875,-0.0610351525247097
542204,-0.03857421875,-0.8453369140625,0.46533203125,0.3662109076976776,-1.15966796875,0.0
542221,-0.041259765625,-0.8427734375,0.4627685546875,0.30517578125,-1.15966796875,0.0
542241,-0.0400390625,-0.842529296875,0.458251953125,0.0,-1.0986328125,0.3662109076976776
542291,-0.0391845703125,-0.853271484375,0.444580078125,-2.44140625,-0.8544921278953552,0.7934569716453552
542325,-0.033447265625,-0.87109375,0.442626953125,-4.5166015625,-0.7324218153953552,1.0986328125
542342,-0.0291748046875,-0.876953125,0.4398193359375,-6.042479991912842,-0.6103515625,1.15966796875
542359,-0.0272216796875,-0.8768310546875,0.438720703125,-7.324218273162842,-0.54931640625,1.2817381620407104
542375,-0.0260009765625,-0.8817138671875,0.4368896484375,-7.995604991912842,-0.6103515625,1.3427733182907104
542392,-0.022705078125,-0.8702392578125,0.43359375,-9.3994140625,-0.6103515625,1.5869139432907104
542425,-0.021240234375,-0.8800048828125,0.4376220703125,-10.681151390075684,-0.6103515625,1.4648436307907104
542447,-0.0224609375,-0.87548828125,0.4251708984375,-11.962889671325684,-0.54931640625,1.2817381620407104
542463,-0.021728515625,-0.8544921875,0.414306640625,-12.634276390075684,-0.54931640625,1.2817381620407104
542480,-0.0216064453125,-0.8521728515625,0.41357421875,-13.854979515075684,-0.3662109076976776,1.5869139432907104
542497,-0.02099609375,-0.8502197265625,0.4169921875,-15.075682640075684,-0.3662109076976776,1.6479490995407104
542513,-0.01904296875,-0.8470458984375,0.4178466796875,-15.624999046325684,-0.2441406100988388,1.7089842557907104
542543,-0.01806640625,-0.848876953125,0.432861328125,-17.02880859375,-0.2441406100988388,1.7089842557907104
542607,-0.0257568359375,-0.8516845703125,0.462646484375,-15.014647483825684,-0.4882812201976776,1.5258787870407104
542623,-0.031005859375,-0.8443603515625,0.47412109375,-13.488768577575684,-0.7324218153953552,1.4038084745407104
542639,-0.0338134765625,-0.8419189453125,0.4803466796875,-12.512206077575684,-0.7934569716453552,1.4038084745407104
542672,-0.035888671875,-0.801025390625,0.47998046875,-9.033203125,-1.2817381620407104,1.15966796875
542693,-0.03515625,-0.7933349609375,0.4755859375,-6.774901866912842,-1.220703125,1.5258787870407104
542709,-0.03564453125,-0.809326171875,0.4813232421875,-4.45556640625,-1.15966796875,1.8310545682907104
542726,-0.034912109375,-0.8248291015625,0.4974365234375,-3.112792730331421,-1.220703125,1.8920897245407104
542743,-0.0283203125,-0.8321533203125,0.504150390625,-0.4882812201976776,-1.5258787870407104,1.7700194120407104
542759,-0.024658203125,-0.833251953125,0.503662109375,1.9531248807907104,-1.7089842557907104,1.7700194120407104
542813,-0.0208740234375,-0.866943359375,0.5133056640625,9.94873046875,-2.38037109375,1.220703125
542855,-0.016357421875,-0.8665771484375,0.4927978515625,13.366698265075684,-2.563476324081421,1.15966796875
542872,-0.0145263671875,-0.86767578125,0.492919921875,14.892577171325684,-2.685546636581421,0.8544921278953552
542905,-0.013916015625,-0.8763427734375,0.484375,16.6015625,-2.929687261581421,0.6713866591453552
542922,-0.0137939453125,-0.8935546875,0.484619140625,17.08984375,-3.051757574081421,0.6103515625
542939,-0.0123291015625,-0.9022216796875,0.486083984375,17.08984375,-3.173827886581421,0.1831054538488388
542970,-0.0152587890625,-0.9044189453125,0.4754638671875,16.29638671875,-3.356933355331421,-0.2441406100988388
543024,-0.035888671875,-0.861328125,0.4227294921875,10.253905296325684,-2.990722417831421,-0.30517578125
543041,-0.0390625,-0.856201171875,0.4189453125,7.202147960662842,-2.624511480331421,0.0
543058,-0.040283203125,-0.8770751953125,0.4329833984375,5.737304210662842,-2.3193359375,0.1831054538488388
543095,-0.041259765625,-0.8912353515625,0.452880859375,-0.1831054538488388,-1.7700194120407104,0.4272460639476776
543112,-0.0416259765625,-0.890869140625,0.455810546875,-0.9765624403953552,-1.6479490995407104,0.4272460639476776
543128,-0.0418701171875,-0.8909912109375,0.4658203125,-2.44140625,-1.5258787870407104,0.3662109076976776
543160,-0.0377197265625,-0.8668212890625,0.4671630859375,-4.150390625,-1.2817381620407104,0.4272460639476776
543222,-0.0364990234375,-0.869384765625,0.4835205078125,-4.7607421875,-0.8544921278953552,0.7324218153953552
543239,-0.036376953125,-0.8436279296875,0.466552734375,-4.45556640625,-0.54931640625,1.03759765625
543256,-0.0345458984375,-0.8358154296875,0.4658203125,-4.2724609375,-0.30517578125,1.2817381620407104
543276,-0.0352783203125,-0.8465576171875,0.4610595703125,-3.479003667831421,-0.0610351525247097,1.7700194120407104
543293,-0.0361328125,-0.8572998046875,0.4688720703125,-1.8920897245407104,0.3662109076976776,2.13623046875
543309,-0.037109375,-0.8787841796875,0.4722900390625,-0.3662109076976776,0.30517578125,1.8310545682907104
543326,-0.03369140625,-0.83203125,0.4490966796875,0.7324218153953552,0.6103515625,2.0751953125
543342,-0.03125,-0.8199462890625,0.4443359375,1.15966796875,0.9155272841453552,2.44140625
543358,-0.0262451171875,-0.8270263671875,0.4503173828125,2.197265625,1.3427733182907104,3.051757574081421
543390,-0.0225830078125,-0.8817138671875,0.479736328125,3.784179449081421,1.5258787870407104,3.051757574081421
543406,-0.0159912109375,-0.8834228515625,0.4908447265625,5.187987804412842,1.4648436307907104,2.807616949081421
543422,-0.0113525390625,-0.883056640625,0.497802734375,5.920409679412842,1.5258787870407104,2.807616949081421
543438,-0.006103515625,-0.8984375,0.5142822265625,7.324218273162842,1.4648436307907104,2.746581792831421
543463,-0.0010986328125,-0.9337158203125,0.542236328125,8.97216796875,1.4038084745407104,2.3193359375
543479,-0.002685546875,-0.9412841796875,0.543212890625,9.82666015625,1.03759765625,1.8920897245407104
543496,-0.00537109375,-0.91015625,0.5216064453125,11.230467796325684,0.54931640625,1.15966796875
543513,-0.0064697265625,-0.911376953125,0.5166015625,11.962889671325684,0.4882812201976776,0.9765624403953552
543529,-0.005615234375,-0.9090576171875,0.5196533203125,12.084959983825684,0.4272460639476776,0.8544921278953552
543563,-0.0068359375,-0.9205322265625,0.5126953125,12.573241233825684,0.1220703050494194,0.1831054538488388
543580,-0.011962890625,-0.9346923828125,0.5164794921875,12.817381858825684,-0.1220703050494194,-0.1831054538488388
543617,-0.020263671875,-0.9324951171875,0.4935302734375,12.512206077575684,-0.54931640625,-0.9155272841453552
543634,-0.0211181640625,-0.9278564453125,0.489501953125,11.718749046325684,-0.6713866591453552,-1.15966796875
543651,-0.026611328125,-0.9056396484375,0.4642333984375,10.681151390075684,-0.54931640625,-1.15966796875
543682,-0.0328369140625,-0.921875,0.459716796875,8.544921875,-0.3662109076976776,-1.03759765625
543743,-0.043212890625,-0.9576416015625,0.347412109375,3.234863042831421,-0.7934569716453552,-1.15966796875
543825,-0.035888671875,-0.932861328125,0.4658203125,-1.4648436307907104,0.4882812201976776,-0.6713866591453552
543842,-0.03662109375,-0.948486328125,0.46630859375,-1.4038084745407104,0.54931640625,-0.7934569716453552
543875,-0.035888671875,-0.9578857421875,0.4796142578125,-0.7934569716453552,0.4882812201976776,-0.6713866591453552
543939,-0.035888671875,-0.9716796875,0.4892578125,1.220703125,0.30517578125,-0.6713866591453552
543956,-0.035888671875,-0.9718017578125,0.488037109375,2.3193359375,0.1220703050494194,-0.6713866591453552
543989,-0.03662109375,-0.9781494140625,0.4765625,3.417968511581421,0.0610351525247097,-0.9155272841453552
544023,-0.0401611328125,-0.96826171875,0.4686279296875,4.5166015625,0.0,-1.03759765625
544065,-0.0421142578125,-0.9427490234375,0.448486328125,4.94384765625,0.0,-1.15966796875
544082,-0.0380859375,-0.9404296875,0.4541015625,4.82177734375,0.0610351525247097,-1.15966796875
544099,-0.0364990234375,-0.9356689453125,0.446533203125,4.82177734375,0.0,-1.15966796875
544116,-0.03662109375,-0.9281005859375,0.4422607421875,4.8828125,-0.0610351525247097,-1.15966796875
544132,-0.0386962890625,-0.912109375,0.430419921875,4.7607421875,0.0,-0.9765624403953552
544165,-0.037353515625,-0.9185791015625,0.4254150390625,4.2724609375,0.30517578125,-0.4882812201976776
544182,-0.03564453125,-0.9217529296875,0.425048828125,3.906249761581421,0.3662109076976776,-0.1220703050494194
544203,-0.0369873046875,-0.92578125,0.4237060546875,3.234863042831421,0.54931640625,-0.2441406100988388
544219,-0.0400390625,-0.9161376953125,0.41259765625,2.807616949081421,0.4882812201976776,-0.1831054538488388
544236,-0.0421142578125,-0.90869140625,0.4039306640625,1.5869139432907104,0.6713866591453552,0.0
544253,-0.0428466796875,-0.9039306640625,0.4022216796875,0.4882812201976776,0.7934569716453552,0.1831054538488388
544286,-0.0274658203125,-0.66845703125,0.3109130859375,1.6479490995407104,2.685546636581421,4.69970703125
544302,-0.019775390625,-0.6488037109375,0.30224609375,3.417968511581421,6.225585460662842,13.610838890075684
544318,-0.002685546875,-1.69873046875,0.807373046875,-0.0610351525247097,4.150390625,8.97216796875
544366,-0.0584716796875,-0.1629638671875,0.1319580078125,-8.1787109375,-2.990722417831421,-5.981444835662842
544418,-0.0013427734375,-1.417724609375,0.6151123046875,-3.784179449081421,-1.5258787870407104,-0.8544921278953552
544435,0.0125732421875,-0.64208984375,0.275634765625,-6.713866710662842,-1.6479490995407104,-2.746581792831421
544456,-0.0616455078125,-0.7099609375,0.2850341796875,-5.920409679412842,1.15966796875,2.624511480331421
544507,0.004150390625,-0.7410888671875,0.3929443359375,-5.981444835662842,0.1831054538488388,1.2817381620407104
544543,-0.03466796875,-0.7943115234375,0.3824462890625,-5.798339366912842,-0.6713866591453552,-0.30517578125
544559,-0.0362548828125,-0.9716796875,0.468505859375,-5.493163585662842,0.1831054538488388,1.03759765625
544580,-0.02587890625,-0.9581298828125,0.484375,-5.493163585662842,0.0,0.30517578125
544597,-0.0101318359375,-0.8446044921875,0.4454345703125,-4.57763671875,0.0610351525247097,0.54931640625
544613,-0.0218505859375,-0.9293212890625,0.484375,-4.150390625,-0.1220703050494194,0.54931640625
544646,-0.0299072265625,-0.8780517578125,0.4403076171875,-2.929687261581421,-0.0610351525247097,0.54931640625
544663,-0.0234375,-0.9163818359375,0.46240234375,-2.44140625,-0.0610351525247097,0.2441406100988388
544679,-0.0185546875,-0.87890625,0.46435546875,-1.5258787870407104,-0.1220703050494194,0.1831054538488388
544711,-0.0238037109375,-0.8917236328125,0.4635009765625,-0.4272460639476776,-0.4272460639476776,0.3662109076976776
544732,-0.0269775390625,-0.900146484375,0.4530029296875,-0.30517578125,-0.3662109076976776,0.3662109076976776
544749,-0.0257568359375,-0.896240234375,0.4532470703125,0.0610351525247097,-0.2441406100988388,0.2441406100988388
544766,-0.0218505859375,-0.898681640625,0.4627685546875,0.54931640625,-0.1831054538488388,0.1831054538488388
544782,-0.019775390625,-0.8878173828125,0.4622802734375,0.7324218153953552,-0.2441406100988388,0.1831054538488388
544799,-0.0238037109375,-0.9012451171875,0.4669189453125,1.15966796875,-0.30517578125,0.2441406100988388
544836,-0.0264892578125,-0.9005126953125,0.4486083984375,1.3427733182907104,-0.3662109076976776,0.30517578125
544852,-0.0216064453125,-0.904296875,0.455078125,1.220703125,-0.30517578125,0.2441406100988388
544868,-0.0211181640625,-0.8936767578125,0.4547119140625,1.220703125,-0.2441406100988388,0.30517578125
544881,-0.0244140625,-0.90234375,0.4580078125,1.15966796875,-0.30517578125,0.30517578125
544905,-0.0245361328125,-0.8956298828125,0.452392578125,0.9155272841453552,-0.3662109076976776,0.3662109076976776
544921,-0.02197265625,-0.907958984375,0.451416015625,0.7934569716453552,-0.30517578125,0.3662109076976776
544938,-0.021728515625,-0.9013671875,0.4488525390625,0.4882812201976776,-0.2441406100988388,0.30517578125
544955,-0.024169921875,-0.898193359375,0.4508056640625,0.2441406100988388,-0.2441406100988388,0.3662109076976776
544971,-0.02392578125,-0.90087890625,0.4583740234375,0.0610351525247097,-0.2441406100988388,0.30517578125
545004,-0.0238037109375,-0.9019775390625,0.4508056640625,-0.4272460639476776,-0.2441406100988388,0.4272460639476776
545021,-0.02294921875,-0.899169921875,0.4495849609375,-0.8544921278953552,-0.1831054538488388,0.4272460639476776
545037,-0.023193359375,-0.901123046875,0.453857421875,-0.9765624403953552,-0.1831054538488388,0.3662109076976776
545068,-0.0234375,-0.892333984375,0.4556884765625,-1.15966796875,-0.2441406100988388,0.2441406100988388
545090,-0.02490234375,-0.897705078125,0.4549560546875,-1.2817381620407104,-0.2441406100988388,0.30517578125
545106,-0.025390625,-0.9051513671875,0.4564208984375,-1.5258787870407104,-0.1831054538488388,0.4272460639476776
545123,-0.02490234375,-0.895751953125,0.455322265625,-1.6479490995407104,-0.1831054538488388,0.4272460639476776
545140,-0.02392578125,-0.896728515625,0.458251953125,-1.7700194120407104,-0.1220703050494194,0.4272460639476776
545156,-0.020751953125,-0.8966064453125,0.46044921875,-1.8310545682907104,-0.1831054538488388,0.30517578125
545189,-0.0242919921875,-0.9005126953125,0.461181640625,-1.7700194120407104,-0.1831054538488388,0.30517578125
545206,-0.0235595703125,-0.89453125,0.460205078125,-1.8310545682907104,-0.2441406100988388,0.3662109076976776
545222,-0.023193359375,-0.8953857421875,0.4647216796875,-1.7089842557907104,-0.1831054538488388,0.30517578125
545238,-0.022216796875,-0.891845703125,0.46533203125,-1.7089842557907104,-0.1831054538488388,0.2441406100988388
545258,-0.0220947265625,-0.89013671875,0.46533203125,-1.5869139432907104,-0.30517578125,0.1831054538488388
545274,-0.0240478515625,-0.892578125,0.4656982421875,-1.4038084745407104,-0.2441406100988388,0.2441406100988388
545290,-0.0240478515625,-0.88134765625,0.4580078125,-1.4038084745407104,-0.1831054538488388,0.3662109076976776
545306,-0.0235595703125,-0.8773193359375,0.4552001953125,-1.4648436307907104,0.1831054538488388,1.220703125
545322,-0.026123046875,-0.8936767578125,0.4715576171875,-1.8310545682907104,0.7934569716453552,3.173827886581421
545338,-0.0291748046875,-0.9080810546875,0.4608154296875,-2.563476324081421,0.7934569716453552,4.21142578125
545370,-0.0833740234375,-1.342529296875,0.5858154296875,-7.629394054412842,4.21142578125,9.27734375
545386,-0.0950927734375,-1.6522216796875,0.740966796875,-8.36181640625,2.868652105331421,4.8828125
545402,-0.0784912109375,-1.692138671875,0.857421875,-5.676269054412842,0.6103515625,-0.6713866591453552
545418,-0.0679931640625,-1.6468505859375,0.875732421875,-3.784179449081421,-0.1831054538488388,-1.3427733182907104
545438,-0.058837890625,-1.5296630859375,0.832275390625,-0.54931640625,-1.220703125,-2.13623046875
545460,-0.056396484375,-1.3948974609375,0.760498046875,1.2817381620407104,-1.03759765625,-2.624511480331421
545476,-0.0513916015625,-1.2574462890625,0.7132568359375,1.9531248807907104,-0.7324218153953552,-2.50244140625
545493,-0.04150390625,-1.2144775390625,0.7310791015625,3.173827886581421,0.1831054538488388,-1.15966796875
545510,-0.0374755859375,-1.235595703125,0.7462158203125,4.57763671875,0.6103515625,-0.2441406100988388
545543,-0.01123046875,-1.32421875,0.7696533203125,6.896972179412842,0.0,-1.7700194120407104
545560,-0.0078125,-1.283935546875,0.7596435546875,7.141112804412842,0.0,-2.13623046875
545576,-0.0115966796875,-1.2244873046875,0.744140625,7.629394054412842,0.2441406100988388,-2.197265625
545607,-0.0042724609375,-1.1756591796875,0.7200927734375,7.507323741912842,-0.3662109076976776,-2.25830078125
545628,0.0052490234375,-1.1693115234375,0.69140625,6.652831554412842,0.0,-2.01416015625
545644,0.0050048828125,-1.203125,0.6953125,5.920409679412842,0.0610351525247097,-2.25830078125
545661,0.0030517578125,-1.19580078125,0.6923828125,4.39453125,-0.4882812201976776,-3.234863042831421
545678,-0.0013427734375,-1.1634521484375,0.6529541015625,2.197265625,-0.8544921278953552,-3.662109136581421
545694,0.0009765625,-1.1331787109375,0.605224609375,0.9765624403953552,-1.0986328125,-4.150390625
545726,-0.004638671875,-0.9976806640625,0.50341796875,-3.845214605331421,-1.5869139432907104,-5.920409679412842
545748,-0.010009765625,-0.8857421875,0.4388427734375,-5.554198741912842,-1.6479490995407104,-5.920409679412842
545764,-0.00732421875,-0.802734375,0.3931884765625,-6.347655773162842,-1.7089842557907104,-5.981444835662842
545781,-0.005126953125,-0.7496337890625,0.3642578125,-7.873534679412842,-1.9531248807907104,-6.469726085662842
545799,-0.0050048828125,-0.597900390625,0.2796630859375,-9.09423828125,-2.0751953125,-6.469726085662842
545815,-0.0096435546875,-0.458740234375,0.19921875,-9.6435546875,-1.8310545682907104,-6.103515148162842
545848,-0.0076904296875,-0.3287353515625,0.1512451171875,-11.474608421325684,-0.9155272841453552,-4.5166015625
545865,-0.000732421875,-0.242431640625,0.1175537109375,-12.573241233825684,-0.6103515625,-3.906249761581421
545881,0.000244140625,-0.20703125,0.0950927734375,-13.244627952575684,-0.4272460639476776,-3.479003667831421
545897,-0.001708984375,-0.143310546875,0.0494384765625,-14.648436546325684,0.0,-2.563476324081421
545917,-0.0057373046875,-0.0960693359375,0.0146484375,-16.2353515625,0.7324218153953552,-1.5258787870407104
545939,-0.0074462890625,-0.069580078125,-0.000244140625,-18.00537109375,1.6479490995407104,-0.3662109076976776
545955,-0.006103515625,-0.0787353515625,0.0238037109375,-18.61572265625,2.13623046875,0.4272460639476776
545972,-0.0040283203125,-0.1197509765625,0.0604248046875,-19.34814453125,2.990722417831421,2.25830078125
545989,-0.0081787109375,-0.235595703125,0.134033203125,-18.49365234375,3.723144292831421,3.173827886581421
546022,-0.0244140625,-0.4383544921875,0.2149658203125,-17.63916015625,4.21142578125,4.45556640625
546039,-0.0382080078125,-0.5867919921875,0.3094482421875,-15.380858421325684,4.21142578125,5.676269054412842
546055,-0.0433349609375,-0.807373046875,0.383544921875,-12.573241233825684,4.39453125,6.103515148162842
546087,-0.0416259765625,-1.0081787109375,0.4658203125,-6.042479991912842,4.8828125,3.601073980331421
546103,-0.04345703125,-0.9991455078125,0.547607421875,-3.662109136581421,4.7607421875,3.051757574081421
546119,-0.04443359375,-0.9931640625,0.5797119140625,1.7700194120407104,4.21142578125,2.38037109375
546154,-0.0302734375,-0.8848876953125,0.6083984375,11.596678733825684,2.746581792831421,1.220703125
546176,-0.0257568359375,-0.8509521484375,0.607666015625,14.221190452575684,2.50244140625,1.15966796875
546192,-0.0250244140625,-0.8114013671875,0.58544921875,19.6533203125,2.197265625,1.03759765625
546213,-0.0208740234375,-0.788818359375,0.575927734375,21.484373092651367,1.8310545682907104,1.3427733182907104
546230,-0.01904296875,-0.790771484375,0.5650634765625,25.207517623901367,1.5258787870407104,1.2817381620407104
546250,-0.0164794921875,-0.802978515625,0.55712890625,27.526853561401367,0.9765624403953552,1.220703125
546265,-0.017822265625,-0.829833984375,0.540283203125,29.052732467651367,0.7324218153953552,1.2817381620407104
546281,-0.020263671875,-0.856201171875,0.52392578125,31.738279342651367,0.2441406100988388,1.2817381620407104
546301,-0.0264892578125,-0.9078369140625,0.460693359375,33.203125,-0.1831054538488388,0.9765624403953552
546322,-0.023193359375,-0.9215087890625,0.43310546875,34.66796875,0.0,0.7324218153953552
546338,-0.0208740234375,-0.95556640625,0.43017578125,36.19384765625,-0.0610351525247097,0.4272460639476776
546354,-0.02490234375,-0.9735107421875,0.4156494140625,36.68212890625,-0.1831054538488388,0.1831054538488388
546390,-0.0360107421875,-0.9447021484375,0.4183349609375,37.29248046875,-0.3662109076976776,-0.7324218153953552
546438,-0.0369873046875,-0.9044189453125,0.4195556640625,35.5224609375,-0.9155272841453552,-0.7934569716453552
546458,-0.0396728515625,-0.908203125,0.409912109375,33.99658203125,-1.03759765625,-0.7934569716453552
546506,-0.0428466796875,-0.967041015625,0.364990234375,30.029294967651367,-1.15966796875,-0.9155272841453552
546522,-0.041748046875,-0.981689453125,0.3612060546875,28.808591842651367,-1.15966796875,-1.03759765625
546538,-0.04052734375,-0.9951171875,0.3519287109375,27.282712936401367,-1.220703125,-1.3427733182907104
546570,-0.0404052734375,-0.9822998046875,0.3309326171875,24.169919967651367,-1.03759765625,-1.5869139432907104
546618,-0.026611328125,-0.96044921875,0.336181640625,20.690916061401367,-0.8544921278953552,-1.7700194120407104
546639,-0.0289306640625,-0.9466552734375,0.328369140625,19.59228515625,-0.7934569716453552,-1.7089842557907104
546656,-0.0303955078125,-0.9359130859375,0.3258056640625,16.66259765625,-0.7934569716453552,-1.4648436307907104
546689,-0.0262451171875,-0.945068359375,0.3173828125,11.962889671325684,-0.6713866591453552,-1.0986328125
546706,-0.02392578125,-0.955078125,0.310546875,9.765625,-0.6713866591453552,-0.9765624403953552
546722,-0.023681640625,-0.9586181640625,0.305419921875,8.30078125,-0.6103515625,-0.9155272841453552
546738,-0.02490234375,-0.9691162109375,0.2974853515625,6.164550304412842,-0.3662109076976776,-0.7934569716453552
546758,-0.0277099609375,-0.977294921875,0.294189453125,3.723144292831421,-0.3662109076976776,-0.8544921278953552
546774,-0.0279541015625,-0.9693603515625,0.292236328125,2.685546636581421,-0.2441406100988388,-0.9155272841453552
546790,-0.02783203125,-0.962890625,0.29443359375,0.7324218153953552,0.0,-0.7324218153953552
546806,-0.031005859375,-0.9576416015625,0.3016357421875,-1.03759765625,0.0,-0.6103515625
546822,-0.0325927734375,-0.9534912109375,0.3074951171875,-1.7089842557907104,0.0610351525247097,-0.6103515625
546838,-0.0347900390625,-0.94189453125,0.3116455078125,-3.234863042831421,0.1831054538488388,-0.4882812201976776
546871,-0.03564453125,-0.9522705078125,0.33447265625,-4.8828125,0.2441406100988388,-0.30517578125
546892,-0.0345458984375,-0.9459228515625,0.3426513671875,-5.493163585662842,0.1831054538488388,-0.4272460639476776
546908,-0.03515625,-0.938232421875,0.33984375,-5.676269054412842,0.0610351525247097,-0.30517578125
546924,-0.035888671875,-0.936279296875,0.333740234375,-5.798339366912842,0.0,-0.1831054538488388
546940,-0.036865234375,-0.9385986328125,0.321533203125,-5.737304210662842,0.0,-0.1220703050494194
546957,-0.0361328125,-0.941162109375,0.313232421875,-5.859374523162842,0.0,0.1220703050494194
546990,-0.0335693359375,-0.94677734375,0.3109130859375,-5.493163585662842,0.0,0.1831054538488388
547006,-0.033935546875,-0.9447021484375,0.3079833984375,-5.249022960662842,0.0,0.1831054538488388
547022,-0.0345458984375,-0.9439697265625,0.3052978515625,-5.0048828125,0.0,0.2441406100988388
547038,-0.036376953125,-0.9400634765625,0.3082275390625,-4.82177734375,0.1831054538488388,0.30517578125
547058,-0.0369873046875,-0.9342041015625,0.318603515625,-4.5166015625,0.1220703050494194,0.3662109076976776
547074,-0.0372314453125,-0.931396484375,0.321533203125,-4.2724609375,0.1220703050494194,0.4882812201976776
547090,-0.03662109375,-0.935302734375,0.3282470703125,-3.845214605331421,0.1220703050494194,0.6713866591453552
547106,-0.0345458984375,-0.9425048828125,0.33447265625,-3.784179449081421,0.1220703050494194,0.7324218153953552
547170,-0.0343017578125,-0.9501953125,0.3284912109375,-2.13623046875,-0.0610351525247097,0.6713866591453552
547240,-0.031005859375,-0.94287109375,0.3275146484375,-0.6103515625,-0.1831054538488388,0.6103515625
547257,-0.029541015625,-0.9442138671875,0.3309326171875,-0.30517578125,-0.1831054538488388,0.6103515625
547290,-0.02880859375,-0.9512939453125,0.3367919921875,0.4272460639476776,-0.2441406100988388,0.4882812201976776
547307,-0.02978515625,-0.95263671875,0.338623046875,0.6103515625,-0.30517578125,0.4882812201976776
547323,-0.0294189453125,-0.9537353515625,0.339599609375,0.8544921278953552,-0.4882812201976776,0.4272460639476776
547339,-0.0294189453125,-0.9495849609375,0.3365478515625,0.9765624403953552,-0.54931640625,0.3662109076976776
547359,-0.0301513671875,-0.953125,0.3341064453125,1.220703125,-0.6103515625,0.30517578125
547375,-0.03125,-0.9508056640625,0.3309326171875,1.220703125,-0.6713866591453552,0.30517578125
547391,-0.0318603515625,-0.9522705078125,0.3267822265625,1.220703125,-0.54931640625,0.30517578125
547408,-0.0303955078125,-0.9573974609375,0.330078125,1.15966796875,-0.6103515625,0.2441406100988388
547429,-0.0306396484375,-0.9556884765625,0.32958984375,1.03759765625,-0.7324218153953552,0.0610351525247097
547445,-0.0301513671875,-0.950439453125,0.3287353515625,0.9155272841453552,-0.6713866591453552,-0.1220703050494194
547462,-0.0301513671875,-0.9483642578125,0.330322265625,0.9155272841453552,-0.6713866591453552,-0.1831054538488388
547479,-0.03125,-0.953369140625,0.3358154296875,0.8544921278953552,-0.6713866591453552,-0.30517578125
547495,-0.032470703125,-0.947998046875,0.33203125,0.6103515625,-0.7934569716453552,-0.4272460639476776
547528,-0.0335693359375,-0.9532470703125,0.345947265625,0.6713866591453552,-0.6713866591453552,-0.4272460639476776
547544,-0.0335693359375,-0.9532470703125,0.3505859375,0.9765624403953552,-0.8544921278953552,-0.6103515625
547560,-0.03369140625,-0.9434814453125,0.345947265625,1.15966796875,-0.9765624403953552,-0.7324218153953552
547596,-0.0345458984375,-0.9442138671875,0.3406982421875,1.3427733182907104,-0.9765624403953552,-0.7324218153953552
547612,-0.0343017578125,-0.94677734375,0.3416748046875,1.4648436307907104,-1.03759765625,-0.7934569716453552
547628,-0.0360107421875,-0.9468994140625,0.3370361328125,1.5258787870407104,-1.0986328125,-0.8544921278953552
547644,-0.037109375,-0.9403076171875,0.334716796875,1.5258787870407104,-1.0986328125,-0.8544921278953552
547661,-0.0394287109375,-0.93896484375,0.3328857421875,1.4038084745407104,-0.9765624403953552,-0.7324218153953552
547682,-0.0400390625,-0.9444580078125,0.3321533203125,1.2817381620407104,-0.9765624403953552,-0.6103515625
547698,-0.0386962890625,-0.9610595703125,0.333984375,1.03759765625,-1.03759765625,-0.6103515625
547715,-0.0374755859375,-0.97216796875,0.3363037109375,0.6713866591453552,-0.9765624403953552,-0.7324218153953552
547732,-0.0386962890625,-0.9732666015625,0.337646484375,0.54931640625,-0.9765624403953552,-0.8544921278953552
547765,-0.04052734375,-0.9990234375,0.3515625,0.0,-0.9155272841453552,-0.7934569716453552
547782,-0.0389404296875,-1.0311279296875,0.3658447265625,-0.1831054538488388,-1.220703125,-1.4648436307907104
547798,-0.0374755859375,-1.0194091796875,0.36328125,-0.0610351525247097,-1.3427733182907104,-1.7089842557907104
547830,-0.0413818359375,-1.0233154296875,0.3525390625,1.7700194120407104,-1.8920897245407104,-2.3193359375
547846,-0.0428466796875,-1.012939453125,0.337158203125,2.44140625,-2.01416015625,-2.624511480331421
