tMillis,ax,ay,az,gx,gy,gz
1505141,0.0281982421875,0.794189453125,0.6180419921875,0.7934569716453552,-0.2441406100988388,0.2441406100988388
1505157,0.028076171875,0.7938232421875,0.6180419921875,0.7934569716453552,-0.2441406100988388,0.2441406100988388
1505174,0.028076171875,0.794677734375,0.6187744140625,0.7934569716453552,-0.2441406100988388,0.2441406100988388
1505191,0.02880859375,0.7952880859375,0.6182861328125,0.7934569716453552,-0.2441406100988388,0.2441406100988388
1505212,0.029052734375,0.796142578125,0.6182861328125,0.7934569716453552,-0.2441406100988388,0.2441406100988388
1505228,0.0283203125,0.7943115234375,0.617431640625,0.8544921278953552,-0.2441406100988388,0.1831054538488388
1505245,0.028564453125,0.7940673828125,0.618408203125,0.8544921278953552,-0.2441406100988388,0.1831054538488388
1505262,0.0284423828125,0.7939453125,0.6177978515625,0.7934569716453552,-0.30517578125,0.2441406100988388
1505294,0.0284423828125,0.79443359375,0.6187744140625,0.8544921278953552,-0.2441406100988388,0.2441406100988388
1505359,0.0291748046875,0.7935791015625,0.619140625,0.7934569716453552,-0.30517578125,0.2441406100988388
1505375,0.0283203125,0.79296875,0.616943359375,0.7934569716453552,-0.2441406100988388,0.2441406100988388
1505391,0.028076171875,0.795654296875,0.6185302734375,0.7934569716453552,-0.2441406100988388,0.2441406100988388
1505427,0.0294189453125,0.79296875,0.61865234375,0.8544921278953552,-0.30517578125,0.1831054538488388
1505443,0.0269775390625,0.79345703125,0.6185302734375,0.7934569716453552,-0.2441406100988388,0.1831054538488388
1505459,0.0263671875,0.79443359375,0.619140625,0.7934569716453552,-0.2441406100988388,0.1831054538488388
1505475,0.02783203125,0.794677734375,0.6180419921875,0.7324218153953552,-0.30517578125,0.2441406100988388
1505492,0.0283203125,0.7947998046875,0.619384765625,0.7324218153953552,-0.30517578125,0.2441406100988388
1505513,0.0274658203125,0.795166015625,0.619384765625,0.7324218153953552,-0.2441406100988388,0.30517578125
1505529,0.0281982421875,0.79443359375,0.6192626953125,0.7934569716453552,-0.2441406100988388,0.1831054538488388
1505546,0.029052734375,0.79248046875,0.6187744140625,0.7934569716453552,-0.2441406100988388,0.2441406100988388
1505563,0.029541015625,0.793212890625,0.617919921875,0.7934569716453552,-0.30517578125,0.2441406100988388
1505596,0.0277099609375,0.7947998046875,0.6190185546875,0.6713866591453552,-0.30517578125,0.2441406100988388
1505613,0.029052734375,0.7939453125,0.6192626953125,0.6713866591453552,-0.30517578125,0.2441406100988388
1505629,0.0291748046875,0.7928466796875,0.617919921875,0.7324218153953552,-0.30517578125,0.2441406100988388
1505661,0.0286865234375,0.7933349609375,0.6185302734375,0.7324218153953552,-0.30517578125,0.1831054538488388
1505677,0.0272216796875,0.7945556640625,0.6187744140625,0.6713866591453552,-0.2441406100988388,0.2441406100988388
1505693,0.02880859375,0.7940673828125,0.618408203125,0.7324218153953552,-0.1831054538488388,0.30517578125
1505709,0.029296875,0.7943115234375,0.618408203125,0.6713866591453552,-0.2441406100988388,0.2441406100988388
1505729,0.029052734375,0.7943115234375,0.6180419921875,0.6713866591453552,-0.2441406100988388,0.2441406100988388
1505745,0.02783203125,0.7926025390625,0.6180419921875,0.6713866591453552,-0.2441406100988388,0.2441406100988388
1505761,0.0283203125,0.79345703125,0.618896484375,0.6713866591453552,-0.1831054538488388,0.1831054538488388
1505777,0.0289306640625,0.7908935546875,0.6160888671875,0.6713866591453552,-0.2441406100988388,0.1831054538488388
1505793,0.029541015625,0.796630859375,0.6190185546875,0.6713866591453552,-0.30517578125,0.1831054538488388
1505809,0.029296875,0.7972412109375,0.620361328125,0.7324218153953552,-0.2441406100988388,0.2441406100988388
1505841,0.0272216796875,0.796875,0.6197509765625,0.6713866591453552,-0.2441406100988388,0.1831054538488388
1505857,0.0294189453125,0.792724609375,0.6173095703125,0.6713866591453552,-0.30517578125,0.2441406100988388
1505873,0.0294189453125,0.7939453125,0.6199951171875,0.6713866591453552,-0.30517578125,0.1831054538488388
1505889,0.0284423828125,0.795654296875,0.620849609375,0.7324218153953552,-0.30517578125,0.1831054538488388
1505909,0.0269775390625,0.792724609375,0.6163330078125,0.7324218153953552,-0.2441406100988388,0.1831054538488388
1505925,0.0296630859375,0.7930908203125,0.6180419921875,0.7324218153953552,-0.2441406100988388,0.2441406100988388
1505945,0.030029296875,0.7958984375,0.621337890625,0.7934569716453552,-0.2441406100988388,0.1831054538488388
1505962,0.026123046875,0.7906494140625,0.6162109375,0.7934569716453552,-0.2441406100988388,0.1831054538488388
1505984,0.0267333984375,0.792724609375,0.6177978515625,0.7324218153953552,-0.2441406100988388,0.1831054538488388
1506000,0.0306396484375,0.7958984375,0.619873046875,0.6713866591453552,-0.2441406100988388,0.1831054538488388
1506017,0.028076171875,0.7928466796875,0.6177978515625,0.6713866591453552,-0.2441406100988388,0.2441406100988388
1506034,0.0272216796875,0.793701171875,0.6182861328125,0.7324218153953552,-0.30517578125,0.2441406100988388
1506050,0.0291748046875,0.7943115234375,0.61865234375,0.7324218153953552,-0.2441406100988388,0.2441406100988388
1506067,0.029296875,0.792236328125,0.6175537109375,0.7324218153953552,-0.2441406100988388,0.1831054538488388
1506088,0.0279541015625,0.795654296875,0.619140625,0.7324218153953552,-0.2441406100988388,0.2441406100988388
1506104,0.0272216796875,0.7938232421875,0.6175537109375,0.7324218153953552,-0.2441406100988388,0.2441406100988388
1506120,0.0277099609375,0.79248046875,0.61767578125,0.6713866591453552,-0.2441406100988388,0.2441406100988388
1506136,0.0301513671875,0.7958984375,0.6204833984375,0.7324218153953552,-0.2441406100988388,0.2441406100988388
1506153,0.031005859375,0.794921875,0.61865234375,0.7934569716453552,-0.2441406100988388,0.2441406100988388
1506174,0.027587890625,0.79443359375,0.6190185546875,0.7324218153953552,-0.1831054538488388,0.2441406100988388
1506190,0.027587890625,0.792724609375,0.6165771484375,0.7324218153953552,-0.1831054538488388,0.2441406100988388
1506207,0.029052734375,0.7977294921875,0.6221923828125,0.7934569716453552,-0.2441406100988388,0.2441406100988388
1506224,0.0299072265625,0.796875,0.62255859375,0.7934569716453552,-0.30517578125,0.2441406100988388
1506257,0.0286865234375,0.794921875,0.6195068359375,0.7324218153953552,-0.30517578125,0.1831054538488388
1506322,0.0291748046875,0.7940673828125,0.617431640625,0.7934569716453552,-0.2441406100988388,0.30517578125
1506338,0.0272216796875,0.7938232421875,0.6165771484375,0.7934569716453552,-0.2441406100988388,0.2441406100988388
1506354,0.0277099609375,0.7960205078125,0.6201171875,0.7934569716453552,-0.30517578125,0.2441406100988388
1506370,0.0286865234375,0.794921875,0.6197509765625,0.7934569716453552,-0.30517578125,0.2441406100988388
1506390,0.028076171875,0.792724609375,0.6180419921875,0.7324218153953552,-0.2441406100988388,0.2441406100988388
1506406,0.02783203125,0.79638671875,0.619873046875,0.7324218153953552,-0.2441406100988388,0.2441406100988388
1506422,0.0289306640625,0.7952880859375,0.6185302734375,0.7324218153953552,-0.2441406100988388,0.1831054538488388
1506437,0.0281982421875,0.7921142578125,0.616943359375,0.7324218153953552,-0.2441406100988388,0.1831054538488388
1506458,0.0279541015625,0.7930908203125,0.6182861328125,0.7324218153953552,-0.30517578125,0.2441406100988388
1506474,0.028076171875,0.792724609375,0.619140625,0.7324218153953552,-0.30517578125,0.30517578125
1506491,0.0272216796875,0.7935791015625,0.61767578125,0.7324218153953552,-0.30517578125,0.2441406100988388
1506508,0.0284423828125,0.79443359375,0.6197509765625,0.7324218153953552,-0.2441406100988388,0.2441406100988388
1506524,0.0291748046875,0.791748046875,0.6181640625,0.7934569716453552,-0.30517578125,0.2441406100988388
1506558,0.0286865234375,0.794677734375,0.618408203125,0.7324218153953552,-0.2441406100988388,0.2441406100988388
1506574,0.028564453125,0.7935791015625,0.6171875,0.6713866591453552,-0.2441406100988388,0.1831054538488388
1506590,0.027587890625,0.79345703125,0.6192626953125,0.7324218153953552,-0.2441406100988388,0.1831054538488388
1506623,0.0283203125,0.79345703125,0.6175537109375,0.7324218153953552,-0.30517578125,0.1831054538488388
1506644,0.027587890625,0.7938232421875,0.618408203125,0.7324218153953552,-0.2441406100988388,0.1831054538488388
1506660,0.0281982421875,0.7926025390625,0.6197509765625,0.7324218153953552,-0.2441406100988388,0.1831054538488388
1506677,0.03076171875,0.793212890625,0.6181640625,0.7324218153953552,-0.30517578125,0.2441406100988388
1506694,0.0301513671875,0.79296875,0.61669921875,0.6713866591453552,-0.30517578125,0.2441406100988388
1506710,0.026611328125,0.79638671875,0.619873046875,0.6713866591453552,-0.30517578125,0.1831054538488388
1506727,0.0269775390625,0.792724609375,0.61767578125,0.6713866591453552,-0.1831054538488388,0.1831054538488388
1506748,0.0296630859375,0.79296875,0.6181640625,0.7324218153953552,-0.2441406100988388,0.2441406100988388
1506764,0.0301513671875,0.79296875,0.618408203125,0.7324218153953552,-0.2441406100988388,0.2441406100988388
1506780,0.028564453125,0.794921875,0.6192626953125,0.7324218153953552,-0.1831054538488388,0.2441406100988388
1506796,0.028076171875,0.7933349609375,0.6199951171875,0.7324218153953552,-0.2441406100988388,0.2441406100988388
1506818,0.029052734375,0.7930908203125,0.6190185546875,0.6713866591453552,-0.2441406100988388,0.1831054538488388
1506834,0.030029296875,0.794189453125,0.61767578125,0.7934569716453552,-0.2441406100988388,0.2441406100988388
1506851,0.0281982421875,0.7935791015625,0.61865234375,0.7934569716453552,-0.2441406100988388,0.2441406100988388
1506868,0.027099609375,0.794921875,0.618896484375,0.7324218153953552,-0.2441406100988388,0.1831054538488388
1506885,0.027587890625,0.7947998046875,0.6190185546875,0.7934569716453552,-0.2441406100988388,0.30517578125
1506917,0.029296875,0.793212890625,0.6177978515625,0.7324218153953552,-0.30517578125,0.2441406100988388
1506934,0.02880859375,0.794189453125,0.6173095703125,0.7324218153953552,-0.2441406100988388,0.2441406100988388
1506950,0.02685546875,0.7930908203125,0.619140625,0.7324218153953552,-0.2441406100988388,0.30517578125
1506982,0.029296875,0.7940673828125,0.6195068359375,0.7934569716453552,-0.30517578125,0.2441406100988388
1506998,0.029541015625,0.7939453125,0.619140625,0.7324218153953552,-0.2441406100988388,0.30517578125
1507014,0.02880859375,0.7939453125,0.6182861328125,0.7934569716453552,-0.2441406100988388,0.30517578125
1507030,0.0262451171875,0.79443359375,0.61865234375,0.7934569716453552,-0.30517578125,0.2441406100988388
1507047,0.0289306640625,0.794677734375,0.6197509765625,0.7324218153953552,-0.30517578125,0.1831054538488388
1507084,0.0286865234375,0.7930908203125,0.6171875,0.7934569716453552,-0.2441406100988388,0.1831054538488388
1507104,0.0267333984375,0.7947998046875,0.6180419921875,0.6713866591453552,-0.2441406100988388,0.2441406100988388
1507120,0.0296630859375,0.79638671875,0.61962890625,0.6713866591453552,-0.2441406100988388,0.2441406100988388
1507137,0.03076171875,0.795166015625,0.619140625,0.6713866591453552,-0.2441406100988388,0.2441406100988388
1507154,0.029052734375,0.791748046875,0.6177978515625,0.7324218153953552,-0.2441406100988388,0.2441406100988388
1507217,0.0279541015625,0.7935791015625,0.619140625,0.7324218153953552,-0.30517578125,0.2441406100988388
1507239,0.02880859375,0.7939453125,0.619140625,0.7324218153953552,-0.2441406100988388,0.2441406100988388
1507255,0.0291748046875,0.7940673828125,0.6180419921875,0.6713866591453552,-0.1831054538488388,0.2441406100988388
1507272,0.0274658203125,0.79296875,0.6181640625,0.7324218153953552,-0.1831054538488388,0.30517578125
1507289,0.0264892578125,0.7958984375,0.6204833984375,0.7324218153953552,-0.2441406100988388,0.1831054538488388
1507309,0.0286865234375,0.793212890625,0.617919921875,0.7324218153953552,-0.2441406100988388,0.1831054538488388
1507330,0.0303955078125,0.7921142578125,0.6180419921875,0.7934569716453552,-0.2441406100988388,0.2441406100988388
1507347,0.030029296875,0.793212890625,0.6192626953125,0.7934569716453552,-0.2441406100988388,0.1831054538488388
1507363,0.0281982421875,0.79443359375,0.6190185546875,0.7324218153953552,-0.2441406100988388,0.2441406100988388
1507394,0.0277099609375,0.7933349609375,0.619140625,0.7324218153953552,-0.2441406100988388,0.30517578125
1507449,0.02783203125,0.7940673828125,0.617919921875,0.7324218153953552,-0.30517578125,0.2441406100988388
1507469,0.02783203125,0.7940673828125,0.6177978515625,0.7324218153953552,-0.2441406100988388,0.2441406100988388
1507486,0.02880859375,0.7945556640625,0.6195068359375,0.7934569716453552,-0.2441406100988388,0.1831054538488388
1507502,0.030029296875,0.7938232421875,0.6190185546875,0.8544921278953552,-0.30517578125,0.30517578125
1507517,0.029541015625,0.7947998046875,0.61865234375,0.7934569716453552,-0.2441406100988388,0.30517578125
1507539,0.029541015625,0.795166015625,0.618896484375,0.6713866591453552,-0.2441406100988388,0.1831054538488388
1507555,0.02880859375,0.794189453125,0.6192626953125,0.7324218153953552,-0.30517578125,0.2441406100988388
1507572,0.02734375,0.792236328125,0.617919921875,0.7934569716453552,-0.30517578125,0.30517578125
1507589,0.028076171875,0.792236328125,0.6187744140625,0.7934569716453552,-0.30517578125,0.30517578125
1507605,0.0299072265625,0.794921875,0.61962890625,0.7324218153953552,-0.30517578125,0.1831054538488388
1507637,0.027099609375,0.7928466796875,0.61962890625,0.7324218153953552,-0.2441406100988388,0.30517578125
1507659,0.0279541015625,0.793212890625,0.619140625,0.7324218153953552,-0.30517578125,0.2441406100988388
1507675,0.0291748046875,0.7943115234375,0.619140625,0.7324218153953552,-0.2441406100988388,0.2441406100988388
1507692,0.02880859375,0.794677734375,0.6187744140625,0.7934569716453552,-0.30517578125,0.2441406100988388
1507709,0.0281982421875,0.7933349609375,0.6182861328125,0.7934569716453552,-0.30517578125,0.2441406100988388
1507758,0.0294189453125,0.7935791015625,0.619384765625,0.7324218153953552,-0.2441406100988388,0.30517578125
1507775,0.028076171875,0.7938232421875,0.6190185546875,0.7324218153953552,-0.2441406100988388,0.2441406100988388
1507791,0.0286865234375,0.7926025390625,0.617431640625,0.7324218153953552,-0.30517578125,0.2441406100988388
1507827,0.0289306640625,0.7958984375,0.619384765625,0.7324218153953552,-0.30517578125,0.2441406100988388
1507843,0.027587890625,0.7940673828125,0.6190185546875,0.7324218153953552,-0.2441406100988388,0.1831054538488388
1507859,0.0286865234375,0.7926025390625,0.6181640625,0.7324218153953552,-0.2441406100988388,0.1831054538488388
1507875,0.0286865234375,0.7938232421875,0.618896484375,0.7934569716453552,-0.30517578125,0.2441406100988388
1507892,0.0289306640625,0.7935791015625,0.618408203125,0.7324218153953552,-0.2441406100988388,0.1831054538488388
1507913,0.0281982421875,0.79443359375,0.6185302734375,0.7324218153953552,-0.2441406100988388,0.1831054538488388
1507929,0.0274658203125,0.795166015625,0.619140625,0.7324218153953552,-0.2441406100988388,0.2441406100988388
1507946,0.029296875,0.793701171875,0.6195068359375,0.7324218153953552,-0.2441406100988388,0.2441406100988388
1507963,0.0289306640625,0.7930908203125,0.618896484375,0.7324218153953552,-0.30517578125,0.2441406100988388
1507996,0.0272216796875,0.7945556640625,0.6195068359375,0.7324218153953552,-0.2441406100988388,0.1831054538488388
1508013,0.0279541015625,0.7935791015625,0.6195068359375,0.7324218153953552,-0.2441406100988388,0.2441406100988388
1508029,0.0286865234375,0.7923583984375,0.618896484375,0.7934569716453552,-0.1831054538488388,0.2441406100988388
1508061,0.0277099609375,0.7957763671875,0.6201171875,0.7934569716453552,-0.2441406100988388,0.2441406100988388
1508077,0.0279541015625,0.79443359375,0.6192626953125,0.8544921278953552,-0.30517578125,0.2441406100988388
1508093,0.028564453125,0.7935791015625,0.6190185546875,0.7934569716453552,-0.30517578125,0.2441406100988388
1508109,0.0281982421875,0.7933349609375,0.61865234375,0.7324218153953552,-0.30517578125,0.2441406100988388
1508129,0.0294189453125,0.794677734375,0.618896484375,0.7324218153953552,-0.30517578125,0.2441406100988388
1508145,0.02880859375,0.7943115234375,0.619384765625,0.7324218153953552,-0.2441406100988388,0.2441406100988388
1508161,0.02783203125,0.7923583984375,0.619873046875,0.7324218153953552,-0.2441406100988388,0.1831054538488388
1508175,0.0286865234375,0.791748046875,0.618896484375,0.7324218153953552,-0.2441406100988388,0.2441406100988388
1508230,0.0267333984375,0.7933349609375,0.61865234375,0.7324218153953552,-0.2441406100988388,0.2441406100988388
1508246,0.028076171875,0.7943115234375,0.6207275390625,0.7324218153953552,-0.2441406100988388,0.1831054538488388
1508263,0.0284423828125,0.7926025390625,0.619384765625,0.7324218153953552,-0.30517578125,0.1831054538488388
1508296,0.029052734375,0.794189453125,0.619384765625,0.7324218153953552,-0.2441406100988388,0.2441406100988388
1508317,0.027587890625,0.791748046875,0.617431640625,0.7934569716453552,-0.2441406100988388,0.1831054538488388
1508342,0.02880859375,0.7913818359375,0.6182861328125,0.7324218153953552,-0.30517578125,0.30517578125
1508361,0.0289306640625,0.7967529296875,0.6226806640625,0.7324218153953552,-0.30517578125,0.30517578125
1508377,0.02734375,0.7935791015625,0.6199951171875,0.6713866591453552,-0.2441406100988388,0.1831054538488388
1508394,0.0286865234375,0.7930908203125,0.619384765625,0.6713866591453552,-0.1831054538488388,0.1831054538488388
1508411,0.029296875,0.7890625,0.6158447265625,0.7934569716453552,-0.2441406100988388,0.1831054538488388
1508477,0.0277099609375,0.7938232421875,0.61962890625,0.6713866591453552,-0.2441406100988388,0.1831054538488388
1508499,0.0303955078125,0.7943115234375,0.6192626953125,0.6713866591453552,-0.30517578125,0.2441406100988388
1508515,0.028076171875,0.7926025390625,0.6180419921875,0.6713866591453552,-0.30517578125,0.2441406100988388
1508532,0.0274658203125,0.7916259765625,0.61767578125,0.7324218153953552,-0.30517578125,0.2441406100988388
1508549,0.0291748046875,0.796630859375,0.621826171875,0.7934569716453552,-0.2441406100988388,0.2441406100988388
1508565,0.030517578125,0.7957763671875,0.620849609375,0.7934569716453552,-0.1831054538488388,0.1831054538488388
1508598,0.0257568359375,0.7913818359375,0.6173095703125,0.7324218153953552,-0.2441406100988388,0.2441406100988388
1508664,0.02685546875,0.79345703125,0.6175537109375,0.6713866591453552,-0.30517578125,0.1831054538488388
1508685,0.0279541015625,0.7938232421875,0.6185302734375,0.6713866591453552,-0.30517578125,0.2441406100988388
1508701,0.030029296875,0.7943115234375,0.618408203125,0.7324218153953552,-0.2441406100988388,0.1831054538488388
1508718,0.027587890625,0.79345703125,0.6190185546875,0.6713866591453552,-0.1831054538488388,0.2441406100988388
1508735,0.02734375,0.7926025390625,0.617919921875,0.7324218153953552,-0.1831054538488388,0.2441406100988388
1508751,0.0283203125,0.7950439453125,0.6199951171875,0.7934569716453552,-0.2441406100988388,0.2441406100988388
1508768,0.0296630859375,0.7945556640625,0.62060546875,0.7324218153953552,-0.2441406100988388,0.1220703050494194
1508788,0.02783203125,0.7938232421875,0.619140625,0.6713866591453552,-0.2441406100988388,0.1831054538488388
1508804,0.0279541015625,0.79248046875,0.61865234375,0.7324218153953552,-0.1831054538488388,0.2441406100988388
1508820,0.0286865234375,0.79248046875,0.6171875,0.7324218153953552,-0.1831054538488388,0.2441406100988388
1508834,0.029541015625,0.7950439453125,0.6195068359375,0.7324218153953552,-0.2441406100988388,0.2441406100988388
1508889,0.02880859375,0.793701171875,0.617431640625,0.7324218153953552,-0.30517578125,0.2441406100988388
1508906,0.0286865234375,0.7938232421875,0.6187744140625,0.7324218153953552,-0.30517578125,0.30517578125
1508922,0.02880859375,0.7918701171875,0.6187744140625,0.7324218153953552,-0.2441406100988388,0.30517578125
1508956,0.0284423828125,0.7921142578125,0.617919921875,0.7324218153953552,-0.30517578125,0.2441406100988388
1508972,0.02783203125,0.793701171875,0.6192626953125,0.6713866591453552,-0.2441406100988388,0.2441406100988388
1508988,0.0284423828125,0.792236328125,0.6187744140625,0.6713866591453552,-0.2441406100988388,0.1831054538488388
1509018,0.0283203125,0.79541015625,0.6187744140625,0.7324218153953552,-0.1831054538488388,0.1831054538488388
1509040,0.02880859375,0.7921142578125,0.6190185546875,0.7324218153953552,-0.2441406100988388,0.1831054538488388
1509056,0.02978515625,0.79345703125,0.6192626953125,0.7324218153953552,-0.30517578125,0.1831054538488388
1509073,0.029296875,0.7940673828125,0.6190185546875,0.6713866591453552,-0.30517578125,0.2441406100988388
1509090,0.0277099609375,0.794189453125,0.6207275390625,0.7324218153953552,-0.2441406100988388,0.2441406100988388
1509106,0.02783203125,0.79248046875,0.618896484375,0.7934569716453552,-0.2441406100988388,0.2441406100988388
1509138,0.029541015625,0.7945556640625,0.62060546875,0.7324218153953552,-0.2441406100988388,0.2441406100988388
1509154,0.028564453125,0.7926025390625,0.618408203125,0.7324218153953552,-0.2441406100988388,0.2441406100988388
1509170,0.0281982421875,0.792236328125,0.61767578125,0.7324218153953552,-0.2441406100988388,0.2441406100988388
1509203,0.0291748046875,0.79443359375,0.6192626953125,0.7934569716453552,-0.2441406100988388,0.2441406100988388
1509224,0.0283203125,0.7926025390625,0.6185302734375,0.8544921278953552,-0.2441406100988388,0.2441406100988388
1509240,0.02880859375,0.7939453125,0.6187744140625,0.9765624403953552,-0.2441406100988388,0.1831054538488388
1509254,0.0291748046875,0.794189453125,0.618408203125,0.9765624403953552,-0.1831054538488388,0.1831054538488388
1509271,0.0291748046875,0.7969970703125,0.6197509765625,1.03759765625,-0.2441406100988388,0.2441406100988388
1509287,0.0291748046875,0.7933349609375,0.6177978515625,1.03759765625,-0.30517578125,0.2441406100988388
1509321,0.0281982421875,0.795166015625,0.6201171875,0.9765624403953552,-0.30517578125,0.2441406100988388
1509369,0.0274658203125,0.792236328125,0.622314453125,0.9155272841453552,-0.1831054538488388,0.1831054538488388
1509391,0.0299072265625,0.7916259765625,0.6192626953125,0.9765624403953552,-0.2441406100988388,0.1831054538488388
1509412,0.029296875,0.7950439453125,0.6202392578125,0.9765624403953552,-0.30517578125,0.1831054538488388
1509428,0.027587890625,0.7916259765625,0.619384765625,0.9155272841453552,-0.30517578125,0.1831054538488388
1509448,0.0284423828125,0.793701171875,0.621337890625,0.9155272841453552,-0.30517578125,0.2441406100988388
1509469,0.0296630859375,0.791015625,0.6195068359375,0.8544921278953552,-0.2441406100988388,0.1831054538488388
1509489,0.0291748046875,0.7926025390625,0.61865234375,0.9155272841453552,-0.30517578125,0.2441406100988388
1509508,0.0286865234375,0.7945556640625,0.6199951171875,1.03759765625,-0.2441406100988388,0.30517578125
1509529,0.0284423828125,0.792724609375,0.619873046875,0.9765624403953552,-0.2441406100988388,0.2441406100988388
1509546,0.029296875,0.7923583984375,0.618408203125,0.9765624403953552,-0.2441406100988388,0.1831054538488388
1509566,0.029541015625,0.7926025390625,0.6185302734375,1.03759765625,-0.30517578125,0.1831054538488388
1509583,0.0302734375,0.7933349609375,0.6201171875,1.15966796875,-0.2441406100988388,0.1831054538488388
1509599,0.0274658203125,0.792724609375,0.6212158203125,1.2817381620407104,-0.2441406100988388,0.1831054538488388
1509616,0.0262451171875,0.7921142578125,0.6192626953125,1.2817381620407104,-0.2441406100988388,0.1831054538488388
1509632,0.027099609375,0.7938232421875,0.619384765625,1.3427733182907104,-0.2441406100988388,0.1831054538488388
1509648,0.02880859375,0.79296875,0.6187744140625,1.4648436307907104,-0.30517578125,0.1831054538488388
1509680,0.0289306640625,0.7933349609375,0.62158203125,1.5869139432907104,-0.2441406100988388,0.1831054538488388
1509728,0.0284423828125,0.790771484375,0.620849609375,1.9531248807907104,-0.30517578125,0.1220703050494194
1509750,0.029052734375,0.79248046875,0.6202392578125,2.01416015625,-0.30517578125,0.1831054538488388
1509767,0.029541015625,0.7930908203125,0.6217041015625,2.13623046875,-0.30517578125,0.1831054538488388
1509800,0.029052734375,0.7901611328125,0.62109375,2.3193359375,-0.30517578125,0.1220703050494194
1509817,0.0281982421875,0.7904052734375,0.625,2.38037109375,-0.30517578125,0.1831054538488388
1509834,0.029052734375,0.7899169921875,0.62451171875,2.38037109375,-0.30517578125,0.1831054538488388
1509850,0.02880859375,0.7908935546875,0.6239013671875,2.3193359375,-0.2441406100988388,0.2441406100988388
1509875,0.0286865234375,0.7882080078125,0.625,2.38037109375,-0.30517578125,0.1831054538488388
1509891,0.0277099609375,0.78662109375,0.6270751953125,2.3193359375,-0.30517578125,0.2441406100988388
1509908,0.028076171875,0.788330078125,0.623779296875,2.25830078125,-0.30517578125,0.1831054538488388
1509941,0.029296875,0.7901611328125,0.6268310546875,2.38037109375,-0.2441406100988388,0.1831054538488388
1509995,0.029541015625,0.786865234375,0.6275634765625,2.38037109375,-0.2441406100988388,0.1831054538488388
1510012,0.029296875,0.7874755859375,0.6297607421875,2.3193359375,-0.30517578125,0.1831054538488388
1510029,0.0286865234375,0.7845458984375,0.629150390625,2.197265625,-0.30517578125,0.1220703050494194
1510046,0.0284423828125,0.7841796875,0.6297607421875,2.0751953125,-0.2441406100988388,0.1220703050494194
1510062,0.0291748046875,0.7869873046875,0.6300048828125,2.0751953125,-0.30517578125,0.1831054538488388
1510095,0.0291748046875,0.78662109375,0.6287841796875,2.0751953125,-0.30517578125,0.1220703050494194
1510111,0.029296875,0.7869873046875,0.6280517578125,2.25830078125,-0.2441406100988388,0.1831054538488388
1510159,0.029296875,0.7860107421875,0.6292724609375,2.685546636581421,-0.2441406100988388,0.1831054538488388
1510180,0.029296875,0.783935546875,0.6287841796875,2.685546636581421,-0.2441406100988388,0.1831054538488388
1510196,0.0289306640625,0.78662109375,0.632568359375,2.868652105331421,-0.2441406100988388,0.1831054538488388
1510213,0.028564453125,0.7822265625,0.63330078125,2.868652105331421,-0.30517578125,0.1220703050494194
1510230,0.027587890625,0.782470703125,0.635009765625,2.746581792831421,-0.2441406100988388,0.1220703050494194
1510246,0.0281982421875,0.7816162109375,0.6348876953125,2.685546636581421,-0.30517578125,0.1220703050494194
1510280,0.029296875,0.7821044921875,0.6351318359375,2.563476324081421,-0.30517578125,0.1831054538488388
1510296,0.029052734375,0.7803955078125,0.6368408203125,2.44140625,-0.30517578125,0.1831054538488388
1510312,0.029296875,0.77880859375,0.6368408203125,2.197265625,-0.3662109076976776,0.2441406100988388
1510328,0.0296630859375,0.779541015625,0.6368408203125,2.13623046875,-0.3662109076976776,0.2441406100988388
1510348,0.029296875,0.778564453125,0.636474609375,2.0751953125,-0.3662109076976776,0.2441406100988388
1510370,0.0289306640625,0.77978515625,0.6383056640625,1.7700194120407104,-0.1831054538488388,0.1831054538488388
1510386,0.0286865234375,0.7783203125,0.6383056640625,1.5258787870407104,-0.2441406100988388,0.1831054538488388
1510403,0.028076171875,0.77783203125,0.6387939453125,1.4648436307907104,-0.2441406100988388,0.1831054538488388
1510420,0.029052734375,0.7781982421875,0.63623046875,1.220703125,-0.2441406100988388,0.2441406100988388
1510453,0.031005859375,0.780029296875,0.6396484375,0.9155272841453552,-0.2441406100988388,0.1831054538488388
1510470,0.0281982421875,0.778564453125,0.64013671875,0.7324218153953552,-0.1831054538488388,0.1831054538488388
1510486,0.0269775390625,0.777099609375,0.638671875,0.6103515625,-0.1831054538488388,0.1831054538488388
1510518,0.0302734375,0.780029296875,0.6370849609375,0.30517578125,-0.2441406100988388,0.2441406100988388
1510534,0.0296630859375,0.780029296875,0.636474609375,0.1831054538488388,-0.30517578125,0.2441406100988388
1510550,0.0281982421875,0.7791748046875,0.6361083984375,0.0610351525247097,-0.30517578125,0.2441406100988388
1510584,0.027587890625,0.7822265625,0.638671875,-0.1220703050494194,-0.2441406100988388,0.3662109076976776
1510606,0.029052734375,0.7789306640625,0.635498046875,-0.1220703050494194,-0.30517578125,0.3662109076976776
1510622,0.0289306640625,0.7828369140625,0.6378173828125,-0.1831054538488388,-0.30517578125,0.3662109076976776
1510639,0.02978515625,0.781494140625,0.6365966796875,-0.30517578125,-0.2441406100988388,0.30517578125
1510656,0.0308837890625,0.7813720703125,0.6353759765625,-0.4272460639476776,-0.30517578125,0.30517578125
1510672,0.02734375,0.7816162109375,0.6363525390625,-0.4882812201976776,-0.30517578125,0.3662109076976776
1510689,0.02734375,0.78173828125,0.632568359375,-0.4272460639476776,-0.2441406100988388,0.30517578125
1510710,0.030517578125,0.7840576171875,0.6353759765625,-0.4272460639476776,-0.2441406100988388,0.2441406100988388
1510726,0.0306396484375,0.7835693359375,0.6351318359375,-0.4882812201976776,-0.2441406100988388,0.30517578125
1510742,0.0281982421875,0.7802734375,0.6337890625,-0.6103515625,-0.2441406100988388,0.3662109076976776
1510790,0.02880859375,0.7828369140625,0.6278076171875,-0.30517578125,-0.30517578125,0.2441406100988388
1510832,0.030029296875,0.7864990234375,0.628173828125,0.1831054538488388,-0.30517578125,0.30517578125
1510866,0.0272216796875,0.7872314453125,0.6251220703125,1.03759765625,-0.30517578125,0.3662109076976776
1510890,0.025634765625,0.7899169921875,0.6273193359375,1.4648436307907104,-0.2441406100988388,0.2441406100988388
1510907,0.0277099609375,0.7889404296875,0.62841796875,2.01416015625,-0.2441406100988388,0.1220703050494194
1510940,0.0291748046875,0.7822265625,0.6302490234375,2.685546636581421,-0.2441406100988388,0.1220703050494194
1510973,0.02978515625,0.7818603515625,0.6318359375,3.051757574081421,-0.2441406100988388,0.1220703050494194
1511015,0.0289306640625,0.7816162109375,0.635009765625,3.051757574081421,-0.30517578125,0.0610351525247097
1511032,0.0277099609375,0.7830810546875,0.6375732421875,3.051757574081421,-0.1831054538488388,0.1220703050494194
1511049,0.0279541015625,0.7830810546875,0.638671875,3.051757574081421,-0.2441406100988388,0.1831054538488388
1511065,0.0296630859375,0.7767333984375,0.636474609375,3.051757574081421,-0.30517578125,0.1831054538488388
1511082,0.0291748046875,0.778076171875,0.63916015625,2.868652105331421,-0.2441406100988388,0.2441406100988388
1511112,0.02880859375,0.7784423828125,0.638916015625,2.685546636581421,-0.3662109076976776,0.1831054538488388
1511131,0.0294189453125,0.776123046875,0.6400146484375,2.624511480331421,-0.30517578125,0.1831054538488388
1511152,0.0296630859375,0.7777099609375,0.641357421875,2.563476324081421,-0.30517578125,0.1831054538488388
1511168,0.02783203125,0.7772216796875,0.6392822265625,2.50244140625,-0.30517578125,0.1220703050494194
1511185,0.02685546875,0.7760009765625,0.6356201171875,2.50244140625,-0.2441406100988388,0.0610351525247097
1511202,0.0294189453125,0.78125,0.6390380859375,2.685546636581421,-0.2441406100988388,0.0610351525247097
1511231,0.0301513671875,0.7784423828125,0.6396484375,3.051757574081421,-0.2441406100988388,0.0610351525247097
1511250,0.0281982421875,0.7791748046875,0.6402587890625,3.234863042831421,-0.30517578125,0.1220703050494194
1511266,0.0279541015625,0.77783203125,0.6385498046875,3.601073980331421,-0.30517578125,0.0610351525247097
1511298,0.02978515625,0.7760009765625,0.6373291015625,4.21142578125,-0.2441406100988388,0.0610351525247097
1511314,0.029052734375,0.777099609375,0.6370849609375,4.69970703125,-0.2441406100988388,0.0
1511334,0.026611328125,0.7789306640625,0.6368408203125,5.371093273162842,-0.0610351525247097,-0.2441406100988388
1511350,0.02783203125,0.7745361328125,0.6361083984375,5.737304210662842,0.0,-0.4882812201976776
1511370,0.029052734375,0.775634765625,0.631103515625,6.713866710662842,0.3662109076976776,-1.220703125
1511386,0.0238037109375,0.786376953125,0.6300048828125,8.544921875,1.15966796875,-2.685546636581421
1511402,0.0196533203125,0.838623046875,0.615966796875,11.230467796325684,2.685546636581421,-4.57763671875
1511418,0.0224609375,0.87744140625,0.617431640625,13.122557640075684,3.967284917831421,-4.8828125
1511434,0.0218505859375,1.052734375,0.81982421875,19.53125,2.990722417831421,-3.967284917831421
1511450,0.0174560546875,1.1773681640625,0.913330078125,22.033689498901367,0.9765624403953552,-1.8920897245407104
1511484,0.0042724609375,1.1842041015625,0.984619140625,20.385740280151367,-1.8310545682907104,1.3427733182907104
1511506,0.0078125,1.1951904296875,0.9833984375,20.080564498901367,-2.13623046875,1.3427733182907104
1511522,0.0223388671875,1.2120361328125,0.9920654296875,21.179197311401367,-2.685546636581421,2.3193359375
1511539,0.034423828125,1.1932373046875,0.966796875,20.01953125,-3.540038824081421,3.540038824081421
1511556,0.0390625,1.145751953125,0.96435546875,19.22607421875,-3.845214605331421,4.21142578125
1511572,0.0355224609375,1.0848388671875,0.978759765625,17.333984375,-4.39453125,4.94384765625
1511589,0.0380859375,1.1016845703125,1.0025634765625,14.221190452575684,-4.8828125,5.371093273162842
1511652,0.0294189453125,1.0355224609375,0.9578857421875,8.11767578125,-6.103515148162842,6.958007335662842
1511671,0.028076171875,1.035400390625,0.9647216796875,6.286620616912842,-6.042479991912842,6.835937023162842
1511688,0.0206298828125,1.0382080078125,0.91796875,6.469726085662842,-6.103515148162842,6.774901866912842
1511721,0.02587890625,0.963623046875,0.93896484375,5.249022960662842,-5.065917491912842,6.469726085662842
1511737,0.0279541015625,0.927734375,0.8970947265625,4.21142578125,-5.187987804412842,6.286620616912842
1511754,0.0045166015625,0.8831787109375,0.8656005859375,1.7089842557907104,-4.5166015625,6.286620616912842
1511770,0.0018310546875,0.8504638671875,0.8592529296875,1.4038084745407104,-4.5166015625,6.164550304412842
1511790,-0.00146484375,0.761474609375,0.779052734375,-1.6479490995407104,-4.2724609375,5.859374523162842
1511806,-0.0089111328125,0.6619873046875,0.689208984375,-4.0283203125,-3.051757574081421,4.8828125
1511822,-0.0089111328125,0.640625,0.6673583984375,-5.554198741912842,-2.3193359375,4.150390625
1511838,-0.009521484375,0.6201171875,0.6488037109375,-9.033203125,-0.9155272841453552,3.051757574081421
1511854,-0.014404296875,0.599365234375,0.6282958984375,-10.803221702575684,-0.2441406100988388,2.38037109375
1511870,-0.01708984375,0.569091796875,0.6046142578125,-12.145995140075684,0.1831054538488388,1.9531248807907104
1511906,-0.015380859375,0.5072021484375,0.5325927734375,-15.319823265075684,2.197265625,-0.4882812201976776
1511954,-0.005126953125,0.42529296875,0.44189453125,-18.85986328125,4.0283203125,-2.38037109375
1511976,-0.0003662109375,0.39453125,0.4024658203125,-19.04296875,4.2724609375,-2.563476324081421
1511993,0.0020751953125,0.377197265625,0.3809814453125,-19.59228515625,4.638671875,-2.990722417831421
1512010,0.0096435546875,0.3643798828125,0.3516845703125,-20.141599655151367,4.82177734375,-3.173827886581421
1512026,0.0157470703125,0.3609619140625,0.339599609375,-19.95849609375,4.82177734375,-3.112792730331421
1512043,0.018310546875,0.3465576171875,0.332275390625,-19.8974609375,4.69970703125,-2.746581792831421
1512076,0.0263671875,0.32763671875,0.3057861328125,-19.47021484375,4.69970703125,-2.929687261581421
1512098,0.0291748046875,0.35595703125,0.319580078125,-19.1650390625,4.7607421875,-2.990722417831421
1512114,0.037109375,0.4268798828125,0.3658447265625,-18.12744140625,4.45556640625,-2.38037109375
1512131,0.0396728515625,0.4635009765625,0.391357421875,-16.78466796875,4.33349609375,-1.7700194120407104
1512148,0.0330810546875,0.492919921875,0.4346923828125,-16.11328125,4.2724609375,-1.4038084745407104
1512164,0.0208740234375,0.5247802734375,0.455078125,-14.892577171325684,3.845214605331421,-1.03759765625
1512198,0.0145263671875,0.5860595703125,0.4876708984375,-12.695311546325684,3.845214605331421,-0.7934569716453552
1512214,0.01953125,0.6488037109375,0.534912109375,-11.962889671325684,3.845214605331421,-0.54931640625
1512230,0.0216064453125,0.6708984375,0.5594482421875,-10.070799827575684,3.784179449081421,-0.1831054538488388
1512262,0.0196533203125,0.7078857421875,0.58544921875,-6.652831554412842,3.234863042831421,0.6713866591453552
1512278,0.011474609375,0.697998046875,0.576171875,-4.39453125,3.295898199081421,0.7324218153953552
1512294,0.0089111328125,0.7275390625,0.6092529296875,-3.356933355331421,3.540038824081421,0.6103515625
1512310,0.0108642578125,0.752197265625,0.6348876953125,-0.9765624403953552,3.417968511581421,0.6713866591453552
1512380,0.022705078125,0.82666015625,0.666015625,9.94873046875,2.685546636581421,0.1831054538488388
1512456,0.0364990234375,0.833740234375,0.6572265625,19.8974609375,1.8310545682907104,0.1831054538488388
1512473,0.0380859375,0.8258056640625,0.6507568359375,22.277830123901367,1.2817381620407104,0.8544921278953552
1512490,0.0367431640625,0.783447265625,0.62841796875,23.193357467651367,1.220703125,0.9765624403953552
1512540,0.0347900390625,0.79296875,0.66064453125,26.611326217651367,1.03759765625,1.3427733182907104
1512571,0.034912109375,0.7469482421875,0.654052734375,27.893064498901367,0.7934569716453552,1.7089842557907104
1512588,0.038330078125,0.7386474609375,0.6619873046875,28.015134811401367,0.9155272841453552,1.5258787870407104
1512623,0.0413818359375,0.743896484375,0.6815185546875,27.954099655151367,1.0986328125,1.6479490995407104
1512639,0.03955078125,0.7174072265625,0.67431640625,27.587888717651367,1.15966796875,1.7089842557907104
1512655,0.040283203125,0.697998046875,0.68359375,27.282712936401367,1.3427733182907104,1.5869139432907104
1512672,0.0426025390625,0.7052001953125,0.7012939453125,26.611326217651367,1.7089842557907104,1.2817381620407104
1512689,0.04638671875,0.720947265625,0.7254638671875,25.695798873901367,1.4038084745407104,1.6479490995407104
1512710,0.0477294921875,0.7105712890625,0.722900390625,25.146482467651367,1.3427733182907104,1.8310545682907104
1512726,0.0482177734375,0.691650390625,0.712890625,23.864744186401367,1.5869139432907104,1.9531248807907104
1512747,0.046875,0.68359375,0.72314453125,22.277830123901367,1.8920897245407104,1.8310545682907104
1512764,0.0450439453125,0.7021484375,0.752685546875,20.568845748901367,1.7700194120407104,2.01416015625
1512780,0.0428466796875,0.6947021484375,0.74951171875,19.775390625,1.6479490995407104,2.197265625
1512797,0.040771484375,0.67578125,0.7325439453125,17.2119140625,1.7089842557907104,2.3193359375
1512813,0.04052734375,0.6722412109375,0.7275390625,16.2353515625,1.8310545682907104,2.25830078125
1512830,0.037109375,0.6805419921875,0.7322998046875,14.282225608825684,2.13623046875,2.01416015625
1512864,0.026611328125,0.681640625,0.7384033203125,11.535643577575684,2.01416015625,2.563476324081421
1512886,0.0255126953125,0.6719970703125,0.7332763671875,9.70458984375,2.25830078125,2.50244140625
1512902,0.021484375,0.66748046875,0.7369384765625,7.812499523162842,2.44140625,2.38037109375
1512919,0.0186767578125,0.6851806640625,0.7470703125,6.958007335662842,2.38037109375,2.38037109375
1512936,0.018798828125,0.6864013671875,0.7476806640625,5.187987804412842,2.3193359375,2.624511480331421
1512952,0.0198974609375,0.6708984375,0.73876953125,3.540038824081421,2.3193359375,2.746581792831421
1512969,0.01611328125,0.6492919921875,0.7337646484375,1.7700194120407104,2.563476324081421,2.624511480331421
1512990,0.0157470703125,0.65966796875,0.749755859375,-0.0610351525247097,2.563476324081421,2.50244140625
1513006,0.015380859375,0.6634521484375,0.7532958984375,-0.8544921278953552,2.50244140625,2.563476324081421
1513022,0.0166015625,0.658935546875,0.7481689453125,-2.50244140625,2.3193359375,2.563476324081421
1513038,0.0179443359375,0.6519775390625,0.744140625,-4.08935546875,2.44140625,2.50244140625
1513054,0.0169677734375,0.65234375,0.746337890625,-4.8828125,2.44140625,2.38037109375
1513070,0.0198974609375,0.66650390625,0.7528076171875,-6.408690929412842,2.50244140625,2.197265625
1513105,0.0244140625,0.682373046875,0.7628173828125,-7.934569835662842,2.197265625,2.3193359375
1513155,0.033447265625,0.7042236328125,0.7615966796875,-10.253905296325684,2.01416015625,2.13623046875
1513171,0.03564453125,0.70947265625,0.7618408203125,-10.559081077575684,1.8920897245407104,2.197265625
1513188,0.037109375,0.7049560546875,0.75830078125,-10.803221702575684,1.5258787870407104,2.50244140625
1513221,0.0380859375,0.6956787109375,0.7532958984375,-10.864256858825684,1.3427733182907104,2.197265625
1513238,0.0384521484375,0.7166748046875,0.760498046875,-10.803221702575684,1.220703125,2.197265625
1513254,0.03955078125,0.7188720703125,0.755859375,-10.437010765075684,0.8544921278953552,2.50244140625
1513270,0.041015625,0.70458984375,0.7381591796875,-10.009765625,0.6713866591453552,2.44140625
1513290,0.04052734375,0.6925048828125,0.7349853515625,-9.3994140625,0.54931640625,2.25830078125
1513306,0.03955078125,0.694091796875,0.7379150390625,-9.09423828125,0.4882812201976776,2.197265625
1513322,0.036865234375,0.7078857421875,0.7408447265625,-8.36181640625,0.1831054538488388,2.197265625
1513343,0.034423828125,0.711181640625,0.721923828125,-7.934569835662842,0.0610351525247097,2.13623046875
1513359,0.033935546875,0.7032470703125,0.7071533203125,-6.835937023162842,-0.1220703050494194,2.13623046875
1513376,0.03271484375,0.6993408203125,0.7041015625,-5.859374523162842,-0.1220703050494194,1.9531248807907104
1513393,0.0301513671875,0.700927734375,0.7099609375,-5.371093273162842,-0.1220703050494194,1.8310545682907104
1513409,0.0281982421875,0.7188720703125,0.718505859375,-4.33349609375,-0.2441406100988388,1.5258787870407104
1513426,0.0279541015625,0.72314453125,0.7159423828125,-3.173827886581421,-0.54931640625,1.5869139432907104
1513458,0.0225830078125,0.7100830078125,0.7003173828125,-1.3427733182907104,-0.6103515625,1.3427733182907104
1513479,0.0216064453125,0.716796875,0.7056884765625,-0.2441406100988388,-0.6103515625,1.03759765625
1513495,0.0194091796875,0.7239990234375,0.70947265625,0.7324218153953552,-0.7324218153953552,1.03759765625
1513512,0.0198974609375,0.711181640625,0.70068359375,1.0986328125,-0.7324218153953552,0.8544921278953552
1513529,0.0211181640625,0.705322265625,0.699951171875,1.6479490995407104,-0.6713866591453552,0.4882812201976776
1513546,0.0220947265625,0.7030029296875,0.7081298828125,1.8310545682907104,-0.7324218153953552,0.1831054538488388
1513577,0.02490234375,0.69580078125,0.7099609375,1.7089842557907104,-0.9765624403953552,0.0610351525247097
1513599,0.0267333984375,0.6890869140625,0.7039794921875,1.4648436307907104,-1.03759765625,-0.1220703050494194
1513615,0.030029296875,0.6798095703125,0.697021484375,1.220703125,-1.0986328125,-0.30517578125
1513634,0.0321044921875,0.69140625,0.7032470703125,1.0986328125,-1.15966796875,-0.4272460639476776
1513651,0.0335693359375,0.7066650390625,0.713623046875,1.0986328125,-1.2817381620407104,-0.4882812201976776
1513667,0.0350341796875,0.7086181640625,0.7159423828125,1.2817381620407104,-1.5869139432907104,-0.3662109076976776
1513700,0.035888671875,0.7098388671875,0.7161865234375,1.4648436307907104,-2.0751953125,-0.54931640625
1513716,0.03662109375,0.7242431640625,0.7254638671875,1.4648436307907104,-2.197265625,-0.54931640625
1513732,0.037841796875,0.74853515625,0.73828125,1.5869139432907104,-2.624511480331421,-0.2441406100988388
1513748,0.0379638671875,0.758544921875,0.7410888671875,1.5258787870407104,-2.868652105331421,-0.0610351525247097
1513768,0.0377197265625,0.7674560546875,0.745361328125,1.15966796875,-3.234863042831421,0.2441406100988388
1513790,0.035888671875,0.772705078125,0.7493896484375,0.30517578125,-3.723144292831421,0.6713866591453552
1513806,0.0335693359375,0.755126953125,0.7364501953125,-0.8544921278953552,-4.21142578125,1.2817381620407104
1513823,0.0242919921875,0.7216796875,0.7095947265625,-1.5258787870407104,-4.2724609375,1.3427733182907104
1513840,0.0205078125,0.70849609375,0.6966552734375,-3.173827886581421,-4.2724609375,1.3427733182907104
1513873,0.01123046875,0.7021484375,0.6903076171875,-6.286620616912842,-3.967284917831421,1.2817381620407104
1513890,0.0048828125,0.7021484375,0.6864013671875,-6.835937023162842,-3.967284917831421,1.3427733182907104
1513906,0.002197265625,0.6993408203125,0.686279296875,-7.934569835662842,-3.784179449081421,1.4648436307907104
1513938,-0.0040283203125,0.7177734375,0.70263671875,-9.3994140625,-3.417968511581421,1.4648436307907104
1513960,-0.0078125,0.719482421875,0.702392578125,-10.009765625,-3.417968511581421,1.7089842557907104
1513976,-0.0084228515625,0.720703125,0.69580078125,-10.559081077575684,-3.112792730331421,1.7089842557907104
1513993,-0.0064697265625,0.7330322265625,0.6978759765625,-10.803221702575684,-2.990722417831421,1.7089842557907104
1514010,-0.0054931640625,0.7349853515625,0.69873046875,-11.108397483825684,-2.807616949081421,1.7700194120407104
1514026,-0.0059814453125,0.734130859375,0.695556640625,-11.291502952575684,-2.624511480331421,1.8920897245407104
1514057,-0.0028076171875,0.7357177734375,0.688720703125,-11.291502952575684,-2.44140625,1.8920897245407104
1514073,0.0,0.730224609375,0.6776123046875,-11.047362327575684,-2.44140625,1.9531248807907104
1514089,0.0001220703125,0.724609375,0.6680908203125,-10.864256858825684,-2.38037109375,1.8920897245407104
1514122,0.003662109375,0.7174072265625,0.64794921875,-9.82666015625,-2.01416015625,1.3427733182907104
1514143,0.005615234375,0.718994140625,0.64697265625,-9.3994140625,-1.9531248807907104,1.2817381620407104
1514159,0.007568359375,0.717529296875,0.6417236328125,-8.4228515625,-2.01416015625,1.15966796875
1514174,0.0096435546875,0.7156982421875,0.63623046875,-7.873534679412842,-2.13623046875,1.0986328125
1514191,0.0096435546875,0.719970703125,0.6343994140625,-6.774901866912842,-2.197265625,0.9155272841453552
1514208,0.009765625,0.7188720703125,0.632568359375,-5.615233898162842,-2.3193359375,0.8544921278953552
1514241,0.01220703125,0.7127685546875,0.6182861328125,-3.906249761581421,-2.50244140625,0.6103515625
1514257,0.01123046875,0.7099609375,0.614013671875,-2.685546636581421,-2.624511480331421,0.54931640625
1514273,0.01025390625,0.7138671875,0.611572265625,-1.4648436307907104,-2.624511480331421,0.3662109076976776
1514289,0.009521484375,0.7176513671875,0.6142578125,-0.7324218153953552,-2.685546636581421,0.30517578125
1514314,0.0067138671875,0.71923828125,0.6185302734375,0.6713866591453552,-2.868652105331421,0.3662109076976776
1514330,0.000732421875,0.69580078125,0.602294921875,1.8920897245407104,-2.929687261581421,0.2441406100988388
1514347,-0.0052490234375,0.6640625,0.5841064453125,2.624511480331421,-2.746581792831421,-0.1220703050494194
1514364,-0.008544921875,0.6455078125,0.58203125,2.868652105331421,-2.563476324081421,-0.4272460639476776
1514381,-0.0093994140625,0.644287109375,0.586669921875,3.112792730331421,-2.197265625,-1.15966796875
1514413,-0.009521484375,0.6837158203125,0.631103515625,3.784179449081421,-2.0751953125,-1.9531248807907104
1514430,-0.01123046875,0.6861572265625,0.631103515625,3.967284917831421,-2.0751953125,-2.01416015625
1514446,-0.012451171875,0.6741943359375,0.6192626953125,4.150390625,-1.9531248807907104,-2.25830078125
1514478,-0.0042724609375,0.6827392578125,0.6309814453125,3.845214605331421,-1.5258787870407104,-2.807616949081421
1514494,-0.000732421875,0.69775390625,0.642822265625,3.601073980331421,-1.5258787870407104,-2.624511480331421
1514510,-0.001708984375,0.691162109375,0.6402587890625,3.417968511581421,-1.5258787870407104,-2.624511480331421
1514542,-0.00341796875,0.67431640625,0.63330078125,2.746581792831421,-1.5869139432907104,-2.3193359375
1514590,0.0032958984375,0.6640625,0.613037109375,0.1831054538488388,-1.03759765625,-2.929687261581421
1514612,0.0072021484375,0.7169189453125,0.6451416015625,-0.2441406100988388,-1.0986328125,-2.807616949081421
1514629,0.00244140625,0.7449951171875,0.65283203125,-0.1220703050494194,-1.4038084745407104,-2.3193359375
1514646,0.0013427734375,0.735107421875,0.6279296875,0.0610351525247097,-1.5869139432907104,-2.01416015625
1514666,0.0040283203125,0.6951904296875,0.600830078125,0.2441406100988388,-1.6479490995407104,-1.6479490995407104
1514683,0.0029296875,0.6890869140625,0.6103515625,-0.4882812201976776,-1.220703125,-1.9531248807907104
1514700,0.000732421875,0.7032470703125,0.6290283203125,-0.6713866591453552,-1.220703125,-1.8920897245407104
1514714,-0.002685546875,0.7183837890625,0.636474609375,-0.7934569716453552,-1.7089842557907104,-1.220703125
1514768,-0.0087890625,0.6968994140625,0.6126708984375,-0.8544921278953552,-1.03759765625,-1.8310545682907104
1514793,-0.013427734375,0.72705078125,0.635986328125,-0.7324218153953552,-0.7934569716453552,-2.13623046875
1514813,-0.0146484375,0.7518310546875,0.646484375,-0.0610351525247097,-0.7324218153953552,-2.13623046875
1514834,-0.011962890625,0.740966796875,0.641357421875,0.4272460639476776,-0.4882812201976776,-2.197265625
1514850,-0.0096435546875,0.7325439453125,0.6444091796875,0.7324218153953552,-0.30517578125,-2.44140625
1514867,-0.0123291015625,0.7236328125,0.6307373046875,0.8544921278953552,-0.0610351525247097,-2.624511480331421
1514897,-0.01025390625,0.720458984375,0.622802734375,0.6103515625,0.7934569716453552,-2.990722417831421
1514913,0.001953125,0.7486572265625,0.6553955078125,0.6103515625,0.9765624403953552,-3.112792730331421
1514929,0.0042724609375,0.755615234375,0.6607666015625,0.8544921278953552,0.7934569716453552,-2.868652105331421
1514962,0.0048828125,0.741943359375,0.6431884765625,1.220703125,0.6713866591453552,-2.50244140625
1514983,0.0093994140625,0.7164306640625,0.6162109375,1.0986328125,0.8544921278953552,-2.3193359375
1514999,0.0184326171875,0.7032470703125,0.6142578125,0.7324218153953552,1.2817381620407104,-2.563476324081421
1515016,0.01806640625,0.72119140625,0.6309814453125,0.6103515625,1.3427733182907104,-2.624511480331421
1515082,0.026611328125,0.8056640625,0.69091796875,2.0751953125,0.9155272841453552,-1.7089842557907104
1515099,0.02685546875,0.8016357421875,0.6907958984375,2.990722417831421,0.6103515625,-1.220703125
1515115,0.03173828125,0.7930908203125,0.678955078125,3.662109136581421,0.0610351525247097,-0.6103515625
1515131,0.033447265625,0.7669677734375,0.6630859375,3.906249761581421,-0.0610351525247097,-0.4882812201976776
1515148,0.0364990234375,0.760498046875,0.657470703125,4.21142578125,0.0,-0.6103515625
1515169,0.0372314453125,0.80126953125,0.6883544921875,4.39453125,0.0,-0.4882812201976776
1515185,0.03515625,0.82861328125,0.699462890625,5.126952648162842,-0.6103515625,0.1220703050494194
1515206,0.0343017578125,0.8260498046875,0.6968994140625,6.042479991912842,-1.15966796875,0.9765624403953552
1515223,0.034423828125,0.8077392578125,0.6817626953125,7.019042491912842,-1.2817381620407104,1.0986328125
1515239,0.0316162109375,0.814697265625,0.6968994140625,7.446288585662842,-1.2817381620407104,1.15966796875
1515256,0.021484375,0.8306884765625,0.708251953125,9.033203125,-1.5258787870407104,1.5869139432907104
1515273,0.017822265625,0.8250732421875,0.7080078125,9.58251953125,-1.6479490995407104,1.7700194120407104
1515290,0.0162353515625,0.7908935546875,0.6885986328125,10.559081077575684,-1.4038084745407104,1.5869139432907104
1515311,0.0238037109375,0.795166015625,0.70751953125,11.291502952575684,-1.2817381620407104,1.4648436307907104
1515329,0.01708984375,0.7864990234375,0.714599609375,11.657713890075684,-1.2817381620407104,1.4038084745407104
1515345,0.013671875,0.79052734375,0.7193603515625,12.023924827575684,-1.3427733182907104,1.4038084745407104
1515378,0.0128173828125,0.7716064453125,0.703857421875,12.207030296325684,-0.8544921278953552,0.8544921278953552
1515395,0.013671875,0.77099609375,0.7059326171875,12.329100608825684,-0.6713866591453552,0.9155272841453552
1515412,0.0123291015625,0.771728515625,0.713134765625,12.512206077575684,-0.30517578125,0.7324218153953552
1515428,0.0089111328125,0.7884521484375,0.7286376953125,12.451170921325684,-0.2441406100988388,0.8544921278953552
1515448,0.0069580078125,0.7540283203125,0.706787109375,11.962889671325684,0.1220703050494194,0.7324218153953552
1515470,0.014892578125,0.760986328125,0.7142333984375,11.596678733825684,0.30517578125,0.6713866591453552
1515486,0.0169677734375,0.746826171875,0.7166748046875,10.925292015075684,0.6103515625,0.6713866591453552
1515503,0.0167236328125,0.763671875,0.734130859375,9.8876953125,0.9765624403953552,0.4272460639476776
1515553,0.0162353515625,0.7484130859375,0.7236328125,7.873534679412842,1.4648436307907104,0.7324218153953552
1515570,0.017822265625,0.7467041015625,0.7357177734375,6.896972179412842,1.5258787870407104,0.7324218153953552
1515586,0.017333984375,0.74072265625,0.7327880859375,6.408690929412842,1.5258787870407104,0.6713866591453552
1515618,0.023193359375,0.730712890625,0.718994140625,4.39453125,2.25830078125,0.30517578125
1515639,0.0267333984375,0.74951171875,0.7412109375,4.0283203125,2.44140625,0.2441406100988388
1515655,0.0279541015625,0.781005859375,0.77490234375,3.356933355331421,2.197265625,0.6103515625
1515672,0.0263671875,0.7701416015625,0.7711181640625,2.50244140625,2.13623046875,0.6713866591453552
1515689,0.0299072265625,0.7781982421875,0.7642822265625,2.0751953125,2.197265625,0.6103515625
1515705,0.03173828125,0.7845458984375,0.7635498046875,1.5869139432907104,2.25830078125,0.7324218153953552
1515739,0.0343017578125,0.7784423828125,0.7718505859375,0.6713866591453552,1.8310545682907104,1.5258787870407104
1515755,0.0328369140625,0.76025390625,0.760498046875,0.3662109076976776,1.8310545682907104,1.5258787870407104
1515771,0.031982421875,0.7491455078125,0.7545166015625,-0.30517578125,2.01416015625,1.220703125
1515807,0.0318603515625,0.777099609375,0.7825927734375,-0.30517578125,1.3427733182907104,1.8920897245407104
1515823,0.0296630859375,0.7684326171875,0.7763671875,-0.2441406100988388,1.15966796875,2.01416015625
1515839,0.0283203125,0.7440185546875,0.7637939453125,-0.1220703050494194,1.15966796875,1.8310545682907104
1515855,0.02978515625,0.751953125,0.771240234375,-0.2441406100988388,1.15966796875,1.5869139432907104
1515872,0.029296875,0.7899169921875,0.799560546875,-0.0610351525247097,0.7324218153953552,2.01416015625
1515893,0.0220947265625,0.76171875,0.77880859375,0.1220703050494194,0.2441406100988388,2.3193359375
1515909,0.014404296875,0.734130859375,0.7523193359375,0.1220703050494194,0.1831054538488388,2.3193359375
1515926,0.012451171875,0.7286376953125,0.74951171875,-0.1220703050494194,0.30517578125,2.0751953125
1515943,0.015625,0.736083984375,0.7593994140625,-0.6103515625,0.30517578125,2.0751953125
1515976,-0.0213623046875,0.693603515625,0.72509765625,-1.4648436307907104,0.4882812201976776,1.2817381620407104
1515993,-0.1134033203125,0.5653076171875,0.6248779296875,-4.69970703125,4.21142578125,-3.173827886581421
1516009,0.0025634765625,0.6229248046875,0.6456298828125,-6.896972179412842,7.446288585662842,-6.835937023162842
1516041,0.03173828125,0.715087890625,0.718505859375,-6.835937023162842,6.408690929412842,-5.493163585662842
1516089,0.0430908203125,0.7265625,0.735595703125,-5.676269054412842,5.676269054412842,-5.798339366912842
1516111,0.050048828125,0.7249755859375,0.7412109375,-5.310058116912842,5.432128429412842,-5.432128429412842
1516128,0.05029296875,0.7125244140625,0.7288818359375,-5.0048828125,4.638671875,-5.126952648162842
1516165,0.1055908203125,1.438720703125,1.3778076171875,-4.94384765625,0.2441406100988388,-0.6713866591453552
1516186,0.064697265625,0.89404296875,0.8505859375,-5.554198741912842,-4.150390625,3.967284917831421
1516202,0.0228271484375,0.5399169921875,0.5133056640625,-6.225585460662842,-2.563476324081421,2.807616949081421
1516219,0.0440673828125,0.73583984375,0.7103271484375,-5.371093273162842,-3.356933355331421,3.540038824081421
1516235,0.0408935546875,0.746337890625,0.7222900390625,-4.45556640625,-3.906249761581421,3.845214605331421
1516251,0.0291748046875,0.728271484375,0.7017822265625,-3.417968511581421,-4.45556640625,4.21142578125
1516285,-0.00537109375,0.57763671875,0.563232421875,-1.0986328125,-2.563476324081421,2.0751953125
1516338,0.0333251953125,0.6842041015625,0.6710205078125,-0.2441406100988388,1.7700194120407104,-2.990722417831421
1516355,0.0518798828125,0.910888671875,0.837646484375,-0.9765624403953552,0.4882812201976776,-1.7089842557907104
1516372,0.094970703125,1.1143798828125,0.9654541015625,-2.746581792831421,-1.0986328125,0.54931640625
1516388,0.02587890625,0.5238037109375,0.463134765625,-2.807616949081421,-2.807616949081421,2.807616949081421
1516409,0.0350341796875,0.6119384765625,0.580322265625,1.03759765625,1.15966796875,-0.9155272841453552
1516426,0.0372314453125,0.755859375,0.7120361328125,0.0610351525247097,0.7934569716453552,-0.6713866591453552
1516442,0.039306640625,0.86572265625,0.837646484375,-1.220703125,-1.2817381620407104,1.2817381620407104
1516455,0.03466796875,0.6417236328125,0.59033203125,-1.4038084745407104,-1.4648436307907104,1.15966796875
1516509,0.0323486328125,0.7071533203125,0.6614990234375,0.0,-0.4882812201976776,0.7324218153953552
1516594,0.036865234375,0.75390625,0.6939697265625,-0.1220703050494194,-0.3662109076976776,0.30517578125
1516611,0.0301513671875,0.736083984375,0.6834716796875,0.1831054538488388,-0.54931640625,0.4882812201976776
1516628,0.0291748046875,0.7330322265625,0.6876220703125,0.1831054538488388,-0.54931640625,0.6103515625
1516647,0.0323486328125,0.7318115234375,0.69091796875,0.0610351525247097,-0.4882812201976776,0.4882812201976776
1516663,0.03857421875,0.736572265625,0.6822509765625,0.0,-0.3662109076976776,0.3662109076976776
1516680,0.0360107421875,0.74267578125,0.696044921875,-0.1220703050494194,-0.4272460639476776,0.4272460639476776
1516696,0.031494140625,0.7362060546875,0.6905517578125,-0.2441406100988388,-0.4272460639476776,0.4882812201976776
1516713,0.028564453125,0.7313232421875,0.686767578125,-0.6713866591453552,-0.3662109076976776,0.4882812201976776
1516734,0.033935546875,0.73828125,0.690673828125,-0.9155272841453552,-0.3662109076976776,0.3662109076976776
1516784,0.032470703125,0.737060546875,0.689453125,-1.15966796875,-0.1831054538488388,0.30517578125
1516828,0.0355224609375,0.735595703125,0.689453125,-1.9531248807907104,-0.2441406100988388,0.30517578125
1516845,0.0389404296875,0.747802734375,0.683349609375,-2.0751953125,-0.2441406100988388,0.2441406100988388
1516878,0.0294189453125,0.7412109375,0.684814453125,-2.197265625,-0.1831054538488388,0.4882812201976776
1516912,0.037109375,0.735107421875,0.68603515625,-2.807616949081421,-0.30517578125,0.3662109076976776
1516954,0.030517578125,0.7454833984375,0.6754150390625,-3.051757574081421,-0.2441406100988388,0.4272460639476776
1516971,0.0303955078125,0.7449951171875,0.68017578125,-3.173827886581421,-0.1831054538488388,0.4882812201976776
1516988,0.0322265625,0.743408203125,0.6812744140625,-3.417968511581421,-0.1831054538488388,0.4882812201976776
1517008,0.0357666015625,0.7435302734375,0.6826171875,-3.723144292831421,-0.2441406100988388,0.4882812201976776
1517025,0.0333251953125,0.746826171875,0.6778564453125,-3.906249761581421,-0.3662109076976776,0.4272460639476776
1517041,0.0308837890625,0.748779296875,0.6724853515625,-4.08935546875,-0.1831054538488388,0.4272460639476776
1517058,0.031005859375,0.7491455078125,0.672119140625,-4.08935546875,-0.0610351525247097,0.3662109076976776
1517074,0.033203125,0.7529296875,0.673828125,-4.150390625,-0.0610351525247097,0.3662109076976776
1517090,0.0357666015625,0.7493896484375,0.6754150390625,-4.2724609375,-0.0610351525247097,0.3662109076976776
1517122,0.031005859375,0.7540283203125,0.6688232421875,-4.45556640625,-0.1831054538488388,0.4272460639476776
1517138,0.0313720703125,0.7542724609375,0.6688232421875,-4.5166015625,-0.1220703050494194,0.3662109076976776
1517154,0.0318603515625,0.7568359375,0.6666259765625,-4.5166015625,0.0610351525247097,0.0
1517170,0.0316162109375,0.7572021484375,0.6585693359375,-4.45556640625,0.1831054538488388,-0.1831054538488388
1517189,0.03271484375,0.760498046875,0.6470947265625,-4.0283203125,0.7934569716453552,-0.4882812201976776
1517210,0.0380859375,0.7686767578125,0.6673583984375,-3.540038824081421,1.4648436307907104,-1.0986328125
1517227,0.048583984375,0.77587890625,0.7030029296875,-3.662109136581421,2.25830078125,-2.38037109375
1517244,0.0753173828125,1.00830078125,0.90283203125,-3.295898199081421,2.13623046875,-2.807616949081421
1517293,0.063720703125,1.0440673828125,0.89013671875,4.08935546875,-2.746581792831421,1.7700194120407104
1517311,0.066650390625,1.017578125,0.8841552734375,4.33349609375,-2.807616949081421,1.2817381620407104
1517332,0.0662841796875,1.0679931640625,0.92138671875,4.33349609375,-2.746581792831421,0.8544921278953552
1517348,0.0587158203125,1.1397705078125,0.9835205078125,5.310058116912842,-3.967284917831421,1.7089842557907104
1517365,0.0565185546875,1.1865234375,0.989501953125,5.981444835662842,-4.2724609375,2.0751953125
1517382,0.060302734375,1.1947021484375,0.9993896484375,8.4228515625,-4.7607421875,2.990722417831421
1517415,0.0626220703125,1.177978515625,1.0577392578125,12.695311546325684,-6.164550304412842,4.45556640625
1517436,0.056640625,1.20068359375,1.099609375,14.465331077575684,-6.958007335662842,4.69970703125
1517452,0.0496826171875,1.230712890625,1.1044921875,15.624999046325684,-7.568358898162842,5.126952648162842
1517468,0.0439453125,1.2288818359375,1.080322265625,18.5546875,-8.85009765625,6.286620616912842
1517488,0.021240234375,1.1787109375,1.01806640625,21.362302780151367,-8.9111328125,6.958007335662842
1517509,0.005126953125,1.0980224609375,1.0006103515625,23.315427780151367,-8.72802734375,7.324218273162842
1517530,0.0023193359375,1.008056640625,0.98681640625,24.108884811401367,-8.85009765625,7.080077648162842
1517547,0.0015869140625,0.9228515625,0.922119140625,24.169919967651367,-8.85009765625,6.896972179412842
1517564,-0.013671875,0.830322265625,0.811279296875,23.864744186401367,-8.60595703125,6.347655773162842
1517597,-0.03369140625,0.7308349609375,0.7396240234375,22.216794967651367,-6.042479991912842,4.2724609375
1517613,-0.033935546875,0.676025390625,0.72265625,20.690916061401367,-4.94384765625,3.051757574081421
1517629,-0.0283203125,0.6619873046875,0.720458984375,19.95849609375,-4.69970703125,2.746581792831421
1517661,-0.027587890625,0.5509033203125,0.6070556640625,17.2119140625,-3.723144292831421,1.4648436307907104
1517677,-0.027099609375,0.501220703125,0.5419921875,15.319823265075684,-2.685546636581421,0.54931640625
1517693,-0.0205078125,0.47900390625,0.5162353515625,14.343260765075684,-2.197265625,0.1831054538488388
1517709,-0.0208740234375,0.4637451171875,0.49072265625,12.390135765075684,-1.4038084745407104,-0.3662109076976776
1517729,-0.0147705078125,0.4544677734375,0.481201171875,10.986327171325684,-0.4882812201976776,-1.03759765625
1517750,-0.00927734375,0.456787109375,0.4796142578125,10.009765625,-0.0610351525247097,-1.2817381620407104
1517766,-0.00537109375,0.433837890625,0.461669921875,9.58251953125,-0.1220703050494194,-1.15966796875
1517783,-0.0057373046875,0.4095458984375,0.429931640625,8.544921875,-0.30517578125,-0.7324218153953552
1517800,-0.006591796875,0.3345947265625,0.3634033203125,7.202147960662842,-0.1220703050494194,-0.6713866591453552
1517833,-0.0091552734375,0.2940673828125,0.313232421875,5.126952648162842,1.15966796875,-2.01416015625
1517851,-0.0069580078125,0.30419921875,0.328125,4.150390625,1.5258787870407104,-2.01416015625
1517867,-0.0040283203125,0.3131103515625,0.3397216796875,3.234863042831421,1.3427733182907104,-1.7089842557907104
1517898,-0.00390625,0.301513671875,0.3284912109375,2.38037109375,1.8310545682907104,-2.01416015625
1517920,0.00048828125,0.34228515625,0.357666015625,1.9531248807907104,2.38037109375,-2.38037109375
1517936,0.0020751953125,0.4072265625,0.4232177734375,1.8310545682907104,2.624511480331421,-2.44140625
1517953,0.00048828125,0.433837890625,0.4556884765625,1.6479490995407104,2.807616949081421,-2.44140625
1517970,-0.00537109375,0.502685546875,0.51806640625,1.8920897245407104,2.746581792831421,-2.197265625
1517986,-0.0068359375,0.5404052734375,0.5550537109375,2.0751953125,2.685546636581421,-2.0751953125
1518020,0.0025634765625,0.5802001953125,0.5977783203125,2.25830078125,3.051757574081421,-2.0751953125
1518036,0.0068359375,0.6116943359375,0.634521484375,2.44140625,2.990722417831421,-1.7700194120407104
1518052,0.0047607421875,0.60205078125,0.63525390625,2.685546636581421,2.990722417831421,-1.6479490995407104
1518088,-0.0059814453125,0.618896484375,0.6507568359375,4.150390625,3.601073980331421,-2.50244140625
1518105,0.0003662109375,0.6651611328125,0.686279296875,4.69970703125,3.784179449081421,-2.624511480331421
1518126,0.006103515625,0.68017578125,0.7095947265625,5.859374523162842,3.723144292831421,-2.38037109375
1518142,0.010009765625,0.6634521484375,0.7052001953125,6.713866710662842,3.417968511581421,-2.01416015625
1518159,0.017822265625,0.6558837890625,0.7166748046875,6.896972179412842,3.601073980331421,-2.13623046875
1518192,0.0177001953125,0.674560546875,0.73486328125,7.202147960662842,3.417968511581421,-1.8310545682907104
1518209,0.013671875,0.65283203125,0.7342529296875,6.896972179412842,3.723144292831421,-1.5869139432907104
1518226,0.0162353515625,0.6611328125,0.77978515625,6.225585460662842,3.662109136581421,-1.5258787870407104
1518258,0.01904296875,0.6737060546875,0.789794921875,5.126952648162842,2.929687261581421,-1.0986328125
1518279,0.0211181640625,0.6741943359375,0.78759765625,4.7607421875,2.929687261581421,-0.9765624403953552
1518295,0.0196533203125,0.6605224609375,0.792236328125,3.784179449081421,2.868652105331421,-0.30517578125
1518312,0.0167236328125,0.647705078125,0.79638671875,2.13623046875,2.746581792831421,0.0610351525247097
1518329,0.0126953125,0.6405029296875,0.811279296875,1.2817381620407104,2.624511480331421,0.1220703050494194
1518345,0.01318359375,0.6302490234375,0.8040771484375,0.0610351525247097,2.25830078125,0.3662109076976776
1518377,0.020263671875,0.6495361328125,0.8123779296875,-2.13623046875,1.9531248807907104,0.7934569716453552
1518393,0.0206298828125,0.653564453125,0.8115234375,-2.50244140625,1.7700194120407104,0.9155272841453552
1518441,0.0228271484375,0.6676025390625,0.805908203125,-3.112792730331421,0.9765624403953552,1.5869139432907104
1518457,0.027587890625,0.6744384765625,0.8173828125,-3.906249761581421,0.54931640625,1.9531248807907104
1518473,0.027587890625,0.677490234375,0.8101806640625,-3.479003667831421,0.30517578125,2.197265625
1518489,0.0279541015625,0.6558837890625,0.7908935546875,-4.33349609375,0.0610351525247097,2.624511480331421
1518560,0.02392578125,0.6702880859375,0.7783203125,-3.662109136581421,-0.4272460639476776,2.685546636581421
1518577,0.02294921875,0.667236328125,0.771728515625,-3.662109136581421,-0.6103515625,2.929687261581421
1518593,0.02197265625,0.6680908203125,0.7698974609375,-2.685546636581421,-0.54931640625,2.868652105331421
1518610,0.0238037109375,0.6612548828125,0.77783203125,-2.563476324081421,-0.7324218153953552,2.746581792831421
1518631,0.0240478515625,0.6708984375,0.774658203125,-1.7089842557907104,-0.9155272841453552,2.685546636581421
1518647,0.022216796875,0.6663818359375,0.7679443359375,-1.5258787870407104,-0.9155272841453552,2.563476324081421
1518679,0.0203857421875,0.6561279296875,0.7569580078125,-0.9155272841453552,-0.8544921278953552,2.25830078125
1518727,0.018798828125,0.64892578125,0.7467041015625,-0.4272460639476776,-0.7324218153953552,1.5258787870407104
1518753,0.017578125,0.6551513671875,0.7408447265625,0.2441406100988388,-0.6103515625,1.4038084745407104
1518769,0.0189208984375,0.64013671875,0.73046875,0.4272460639476776,-0.4882812201976776,1.220703125
1518786,0.0208740234375,0.650390625,0.7379150390625,0.7934569716453552,-0.0610351525247097,0.6713866591453552
1518836,0.0189208984375,0.6658935546875,0.7548828125,2.685546636581421,0.0,0.4272460639476776
1518873,0.0208740234375,0.668701171875,0.7613525390625,3.784179449081421,0.30517578125,0.0
1518889,0.0211181640625,0.6561279296875,0.761474609375,3.906249761581421,0.2441406100988388,0.0610351525247097
1518906,0.0205078125,0.646484375,0.75439453125,3.906249761581421,0.1220703050494194,0.0610351525247097
1518927,0.0189208984375,0.6395263671875,0.748046875,3.784179449081421,0.2441406100988388,-0.2441406100988388
1518943,0.0196533203125,0.6572265625,0.7550048828125,3.601073980331421,0.3662109076976776,-0.30517578125
1518964,0.019775390625,0.654052734375,0.7547607421875,3.356933355331421,0.2441406100988388,-0.1831054538488388
1518976,0.01953125,0.64208984375,0.7486572265625,3.112792730331421,0.2441406100988388,-0.2441406100988388
1518993,0.0203857421875,0.6436767578125,0.75048828125,2.563476324081421,0.4882812201976776,-0.54931640625
1519009,0.0240478515625,0.66796875,0.7662353515625,1.9531248807907104,0.4882812201976776,-0.54931640625
1519041,0.02734375,0.662353515625,0.7625732421875,1.4038084745407104,0.2441406100988388,-0.0610351525247097
1519057,0.0255126953125,0.6419677734375,0.74755859375,1.220703125,0.30517578125,-0.0610351525247097
1519073,0.0255126953125,0.6416015625,0.745849609375,1.03759765625,0.4272460639476776,-0.3662109076976776
1519089,0.025390625,0.6522216796875,0.75146484375,0.9155272841453552,0.4272460639476776,-0.30517578125
1519109,0.0247802734375,0.6473388671875,0.750244140625,0.9765624403953552,0.4272460639476776,-0.1831054538488388
1519125,0.024169921875,0.6392822265625,0.74609375,0.9155272841453552,0.4272460639476776,-0.1831054538488388
1519141,0.0238037109375,0.632080078125,0.7398681640625,0.9765624403953552,0.4272460639476776,-0.2441406100988388
1519157,0.025390625,0.6298828125,0.7357177734375,0.9155272841453552,0.3662109076976776,-0.2441406100988388
1519173,0.025146484375,0.6201171875,0.727294921875,0.7934569716453552,0.2441406100988388,0.0
1519189,0.0235595703125,0.597900390625,0.7109375,0.4272460639476776,0.2441406100988388,-0.0610351525247097
1519221,0.0224609375,0.59716796875,0.710693359375,-0.30517578125,0.4272460639476776,-0.3662109076976776
1519269,0.023193359375,0.61376953125,0.7125244140625,-0.6103515625,0.0610351525247097,-0.0610351525247097
1519290,0.02392578125,0.6143798828125,0.71728515625,-0.6713866591453552,0.1831054538488388,0.0
1519307,0.0238037109375,0.6124267578125,0.720947265625,-0.9155272841453552,0.1220703050494194,0.2441406100988388
1519336,0.02001953125,0.5906982421875,0.702392578125,-1.5258787870407104,0.0,0.1220703050494194
1519353,0.02001953125,0.5916748046875,0.7015380859375,-2.01416015625,0.1220703050494194,0.0
1519369,0.022216796875,0.6015625,0.7078857421875,-2.38037109375,0.1831054538488388,0.0
1519397,0.02294921875,0.613525390625,0.7174072265625,-2.624511480331421,0.1220703050494194,-0.0610351525247097
1519419,0.0228271484375,0.625,0.728271484375,-2.746581792831421,0.1831054538488388,-0.1831054538488388
1519435,0.0233154296875,0.6346435546875,0.7318115234375,-2.746581792831421,-0.1831054538488388,0.1831054538488388
1519452,0.0223388671875,0.613525390625,0.703125,-2.868652105331421,-0.2441406100988388,0.2441406100988388
1519469,0.0228271484375,0.600830078125,0.6932373046875,-3.479003667831421,-0.1220703050494194,0.1831054538488388
1519485,0.0250244140625,0.5963134765625,0.6856689453125,-4.2724609375,0.1831054538488388,-0.1831054538488388
1519517,0.020751953125,0.630126953125,0.71337890625,-4.8828125,0.1831054538488388,-0.2441406100988388
1519539,0.0203857421875,0.635009765625,0.712158203125,-4.69970703125,0.0610351525247097,-0.1831054538488388
1519555,0.0208740234375,0.6224365234375,0.6903076171875,-4.5166015625,0.0610351525247097,-0.1831054538488388
1519572,0.0264892578125,0.6273193359375,0.697265625,-4.45556640625,0.2441406100988388,-0.3662109076976776
1519589,0.0289306640625,0.6474609375,0.7183837890625,-4.150390625,0.4272460639476776,-0.7934569716453552
1519606,0.0274658203125,0.6748046875,0.7371826171875,-3.295898199081421,0.0610351525247097,-0.54931640625
1519637,0.0224609375,0.649658203125,0.712158203125,-1.8310545682907104,-0.30517578125,-0.3662109076976776
1519659,0.0218505859375,0.6185302734375,0.678466796875,-1.4038084745407104,0.0,-0.7324218153953552
1519675,0.0201416015625,0.618408203125,0.6739501953125,-1.220703125,0.4272460639476776,-1.2817381620407104
1519692,0.01904296875,0.6602783203125,0.712646484375,-1.03759765625,0.54931640625,-1.4038084745407104
1519709,0.0186767578125,0.665771484375,0.7193603515625,-0.3662109076976776,0.2441406100988388,-1.15966796875
1519726,0.021484375,0.6580810546875,0.7105712890625,0.2441406100988388,0.0,-1.220703125
1519756,0.02490234375,0.6676025390625,0.7022705078125,1.220703125,0.1831054538488388,-1.3427733182907104
1519773,0.0242919921875,0.68212890625,0.7164306640625,2.0751953125,0.30517578125,-1.3427733182907104
1519789,0.0272216796875,0.7149658203125,0.744384765625,2.685546636581421,0.30517578125,-1.2817381620407104
1519817,0.0325927734375,0.7294921875,0.74365234375,5.187987804412842,-0.3662109076976776,-0.54931640625
1519839,0.02978515625,0.70458984375,0.7197265625,6.835937023162842,-0.6713866591453552,0.0
1519855,0.023681640625,0.654541015625,0.686767578125,7.385253429412842,-0.54931640625,-0.0610351525247097
1519872,0.025634765625,0.66455078125,0.720458984375,7.812499523162842,0.0610351525247097,-0.4882812201976776
1519889,0.025146484375,0.6710205078125,0.736083984375,8.1787109375,-0.1831054538488388,-0.2441406100988388
1519905,0.022216796875,0.661376953125,0.7252197265625,8.36181640625,-0.4882812201976776,-0.0610351525247097
1519937,0.0203857421875,0.6229248046875,0.68505859375,8.48388671875,-0.2441406100988388,-0.0610351525247097
1519959,0.0279541015625,0.650634765625,0.7188720703125,8.11767578125,0.2441406100988388,-0.54931640625
1519975,0.03173828125,0.6944580078125,0.7626953125,8.23974609375,0.0,-0.3662109076976776
1519992,0.0257568359375,0.6505126953125,0.7296142578125,8.72802734375,-0.6103515625,0.4882812201976776
1520009,0.0230712890625,0.61474609375,0.7064208984375,8.60595703125,-0.54931640625,0.7324218153953552
1520025,0.017578125,0.567138671875,0.6856689453125,8.1787109375,-0.1220703050494194,0.3662109076976776
1520066,0.031982421875,0.720947265625,0.8179931640625,6.958007335662842,0.54931640625,-0.4882812201976776
1520083,0.034423828125,0.7335205078125,0.826904296875,7.629394054412842,0.0610351525247097,0.30517578125
1520099,0.0335693359375,0.7100830078125,0.812744140625,7.751464366912842,0.1220703050494194,0.4882812201976776
1520115,0.0321044921875,0.67626953125,0.798095703125,7.507323741912842,0.3662109076976776,0.1831054538488388
1520137,0.0313720703125,0.66455078125,0.7706298828125,6.958007335662842,0.4882812201976776,0.2441406100988388
1520153,0.0308837890625,0.637451171875,0.745849609375,6.713866710662842,0.6103515625,0.30517578125
1520170,0.0323486328125,0.6204833984375,0.736328125,5.737304210662842,0.9155272841453552,0.2441406100988388
1520187,0.0408935546875,0.6080322265625,0.7423095703125,4.45556640625,1.5258787870407104,-0.30517578125
1520203,0.048828125,0.6712646484375,0.79248046875,3.845214605331421,1.5258787870407104,-0.4272460639476776
1520236,0.0498046875,0.6898193359375,0.7850341796875,2.746581792831421,0.4882812201976776,0.9155272841453552
1520253,0.0509033203125,0.6611328125,0.7659912109375,2.25830078125,0.9765624403953552,0.8544921278953552
1520269,0.0548095703125,0.6722412109375,0.7938232421875,1.8920897245407104,1.0986328125,0.7324218153953552
1520301,0.05029296875,0.7337646484375,0.851318359375,1.9531248807907104,0.1220703050494194,1.2817381620407104
1520349,0.0379638671875,0.6634521484375,0.782470703125,2.01416015625,-0.1220703050494194,1.7089842557907104
1520371,0.0418701171875,0.6700439453125,0.785400390625,1.5258787870407104,-0.2441406100988388,1.8310545682907104
1520388,0.0396728515625,0.659423828125,0.780517578125,1.15966796875,-0.1220703050494194,1.8920897245407104
1520423,0.0404052734375,0.6602783203125,0.8035888671875,0.4272460639476776,0.1831054538488388,1.7089842557907104
1520440,0.0421142578125,0.6781005859375,0.8199462890625,-0.1220703050494194,0.1220703050494194,1.5258787870407104
1520456,0.0404052734375,0.7017822265625,0.82568359375,-0.0610351525247097,-0.2441406100988388,1.8310545682907104
1520473,0.0390625,0.69482421875,0.8211669921875,0.1220703050494194,-0.30517578125,2.01416015625
1520490,0.036865234375,0.686279296875,0.8134765625,0.1220703050494194,-0.2441406100988388,2.13623046875
1520511,0.0352783203125,0.6590576171875,0.80859375,-0.0610351525247097,0.30517578125,1.5258787870407104
1520527,0.0360107421875,0.7117919921875,0.8409423828125,-0.1220703050494194,0.3662109076976776,1.220703125
1520548,0.0301513671875,0.70458984375,0.8343505859375,0.4882812201976776,0.2441406100988388,1.6479490995407104
1520565,0.0198974609375,0.66943359375,0.8148193359375,0.54931640625,0.4272460639476776,1.4648436307907104
1520596,0.029052734375,0.667724609375,0.83642578125,-0.2441406100988388,1.15966796875,0.3662109076976776
1520613,0.0301513671875,0.674560546875,0.810546875,-0.6713866591453552,1.220703125,0.3662109076976776
1520629,0.031982421875,0.66796875,0.7994384765625,-0.8544921278953552,1.4648436307907104,0.30517578125
1520661,0.0379638671875,0.6634521484375,0.80859375,-1.5869139432907104,2.25830078125,-0.30517578125
1520709,0.03515625,0.6986083984375,0.821044921875,-1.4648436307907104,1.8920897245407104,-0.4882812201976776
1520854,0.04296875,0.7423095703125,0.8494873046875,1.0986328125,0.7324218153953552,-0.2441406100988388
1520871,0.0404052734375,0.7425537109375,0.8402099609375,2.197265625,0.0,0.30517578125
1520888,0.037353515625,0.7171630859375,0.8115234375,2.685546636581421,-0.1220703050494194,0.54931640625
1520908,0.041259765625,0.69140625,0.80615234375,3.356933355331421,0.0,0.54931640625
1520925,0.041015625,0.71728515625,0.8258056640625,4.21142578125,-0.1831054538488388,0.4882812201976776
1520941,0.038818359375,0.7159423828125,0.8245849609375,4.57763671875,-0.3662109076976776,0.6103515625
1520958,0.0308837890625,0.70166015625,0.813232421875,5.187987804412842,-0.54931640625,0.7324218153953552
1520974,0.0250244140625,0.6627197265625,0.7900390625,5.493163585662842,-0.6103515625,0.7934569716453552
1520990,0.025146484375,0.65283203125,0.7889404296875,5.371093273162842,-0.2441406100988388,0.30517578125
1521022,0.0294189453125,0.6697998046875,0.806884765625,5.065917491912842,-0.4882812201976776,0.3662109076976776
1521038,0.025634765625,0.6585693359375,0.79052734375,4.7607421875,-0.30517578125,0.1831054538488388
1521054,0.0230712890625,0.640625,0.7760009765625,4.638671875,-0.30517578125,0.2441406100988388
1521070,0.020751953125,0.621337890625,0.7650146484375,4.08935546875,0.1220703050494194,-0.1220703050494194
1521090,0.019287109375,0.6302490234375,0.77001953125,3.295898199081421,0.4882812201976776,-0.7934569716453552
1521106,0.018798828125,0.655029296875,0.7855224609375,3.173827886581421,0.8544921278953552,-1.03759765625
1521122,0.021240234375,0.6707763671875,0.801025390625,3.173827886581421,0.8544921278953552,-0.8544921278953552
1521138,0.023681640625,0.6446533203125,0.7840576171875,2.990722417831421,0.7934569716453552,-0.6713866591453552
1521154,0.0247802734375,0.6036376953125,0.756591796875,2.685546636581421,0.9155272841453552,-0.8544921278953552
1521170,0.02587890625,0.59765625,0.7537841796875,1.8920897245407104,1.5869139432907104,-1.5869139432907104
1521203,0.037109375,0.6602783203125,0.804443359375,1.3427733182907104,1.8920897245407104,-1.8310545682907104
1521224,0.04296875,0.669921875,0.8125,1.2817381620407104,1.4648436307907104,-1.4648436307907104
1521240,0.040283203125,0.631591796875,0.7779541015625,0.9765624403953552,1.4648436307907104,-1.4038084745407104
1521257,0.0396728515625,0.6131591796875,0.7694091796875,0.6713866591453552,1.6479490995407104,-1.7089842557907104
1521274,0.043212890625,0.638671875,0.7900390625,0.0,1.8310545682907104,-2.197265625
1521290,0.0479736328125,0.6705322265625,0.812255859375,0.0,1.5258787870407104,-1.9531248807907104
1521307,0.0498046875,0.6719970703125,0.81396484375,0.0610351525247097,1.220703125,-1.5869139432907104
1521327,0.0528564453125,0.67626953125,0.824462890625,-0.1831054538488388,1.0986328125,-1.5869139432907104
1521344,0.081787109375,0.837158203125,0.98828125,-0.9765624403953552,0.3662109076976776,-0.8544921278953552
1521360,0.1187744140625,0.934814453125,1.0850830078125,-2.38037109375,-3.234863042831421,2.807616949081421
1521376,0.0269775390625,0.533447265625,0.6488037109375,-3.479003667831421,-2.929687261581421,2.624511480331421
1521393,0.022216796875,0.5401611328125,0.6634521484375,-4.150390625,-2.25830078125,2.0751953125
1521414,0.0384521484375,0.6357421875,0.7742919921875,-4.21142578125,-2.38037109375,2.0751953125
1521430,0.0379638671875,0.65478515625,0.7867431640625,-4.0283203125,-2.624511480331421,2.197265625
1521447,0.0322265625,0.63720703125,0.754638671875,-3.845214605331421,-2.868652105331421,2.563476324081421
1521464,0.0306396484375,0.6334228515625,0.7384033203125,-3.112792730331421,-2.807616949081421,2.50244140625
1521497,0.027587890625,0.6038818359375,0.738037109375,-2.13623046875,-2.13623046875,2.0751953125
1521550,0.09619140625,0.8316650390625,0.968017578125,-0.8544921278953552,-3.051757574081421,2.44140625
1521575,0.0460205078125,0.6121826171875,0.7099609375,0.1831054538488388,-3.234863042831421,2.746581792831421
1521591,0.006591796875,0.5440673828125,0.618408203125,0.1220703050494194,1.7089842557907104,-1.7089842557907104
1521608,0.0662841796875,0.7919921875,0.930908203125,0.3662109076976776,1.6479490995407104,-1.3427733182907104
1521625,0.0682373046875,0.706787109375,0.8377685546875,0.9155272841453552,-0.8544921278953552,0.9155272841453552
1521641,0.0491943359375,0.5867919921875,0.70263671875,0.9765624403953552,-1.15966796875,1.2817381620407104
1521675,0.035400390625,0.66162109375,0.796142578125,0.8544921278953552,-0.30517578125,0.1220703050494194
1521692,0.0269775390625,0.655029296875,0.7708740234375,0.7934569716453552,-0.54931640625,0.3662109076976776
1521713,0.0277099609375,0.6424560546875,0.7625732421875,0.9155272841453552,-0.7934569716453552,0.6713866591453552
1521729,0.0384521484375,0.656494140625,0.78369140625,0.8544921278953552,-0.7324218153953552,0.54931640625
1521746,0.043212890625,0.6572265625,0.784423828125,0.7324218153953552,-0.7934569716453552,0.4272460639476776
1521763,0.042236328125,0.6500244140625,0.7696533203125,0.54931640625,-0.7324218153953552,0.54931640625
1521796,0.0322265625,0.6514892578125,0.7716064453125,0.30517578125,-0.54931640625,0.4272460639476776
1521813,0.03173828125,0.656982421875,0.7747802734375,0.4272460639476776,-0.54931640625,0.4882812201976776
1521829,0.035888671875,0.6514892578125,0.7711181640625,0.6103515625,-0.54931640625,0.54931640625
1521857,0.0357666015625,0.655517578125,0.771728515625,0.9155272841453552,-0.4272460639476776,0.4272460639476776
1521879,0.0340576171875,0.6534423828125,0.7681884765625,1.03759765625,-0.3662109076976776,0.3662109076976776
1521895,0.03466796875,0.6585693359375,0.774658203125,1.220703125,-0.3662109076976776,0.4882812201976776
1521912,0.03564453125,0.649658203125,0.775146484375,1.220703125,-0.3662109076976776,0.4272460639476776
1521929,0.0347900390625,0.651123046875,0.7747802734375,1.15966796875,-0.4272460639476776,0.30517578125
1521945,0.03466796875,0.6524658203125,0.77001953125,1.3427733182907104,-0.4882812201976776,0.3662109076976776
1521976,0.0338134765625,0.658447265625,0.7716064453125,1.9531248807907104,-0.30517578125,0.30517578125
1521993,0.0350341796875,0.654052734375,0.7720947265625,2.13623046875,-0.3662109076976776,0.2441406100988388
1522009,0.036865234375,0.6510009765625,0.775390625,2.44140625,-0.4272460639476776,0.30517578125
1522037,0.0330810546875,0.6549072265625,0.7691650390625,2.746581792831421,-0.4882812201976776,0.1831054538488388
1522059,0.03173828125,0.6571044921875,0.770263671875,3.173827886581421,-0.30517578125,0.1831054538488388
1522075,0.0341796875,0.65625,0.7703857421875,3.601073980331421,-0.2441406100988388,0.1831054538488388
1522092,0.0394287109375,0.6470947265625,0.7779541015625,3.662109136581421,-0.2441406100988388,0.1831054538488388
1522109,0.0347900390625,0.6474609375,0.7811279296875,3.662109136581421,-0.30517578125,0.0610351525247097
1522125,0.0318603515625,0.648193359375,0.7791748046875,3.784179449081421,-0.4272460639476776,0.0610351525247097
1522156,0.034423828125,0.6522216796875,0.7738037109375,4.21142578125,-0.3662109076976776,0.1220703050494194
1522172,0.036865234375,0.6474609375,0.777587890625,4.33349609375,-0.2441406100988388,0.1220703050494194
1522220,0.0308837890625,0.6337890625,0.7882080078125,2.929687261581421,-0.30517578125,0.0610351525247097
1522236,0.0321044921875,0.640380859375,0.78564453125,2.746581792831421,-0.30517578125,0.0
1522252,0.037353515625,0.6427001953125,0.7802734375,2.563476324081421,-0.30517578125,0.1220703050494194
1522268,0.03759765625,0.6414794921875,0.7852783203125,2.38037109375,-0.30517578125,0.1831054538488388
1522325,0.0352783203125,0.642822265625,0.7847900390625,1.3427733182907104,-0.30517578125,0.1831054538488388
1522346,0.036865234375,0.6458740234375,0.780517578125,1.3427733182907104,-0.30517578125,0.1831054538488388
1522363,0.0340576171875,0.640380859375,0.7830810546875,1.2817381620407104,-0.30517578125,0.2441406100988388
1522379,0.0347900390625,0.6353759765625,0.7896728515625,1.15966796875,-0.2441406100988388,0.30517578125
1522396,0.0355224609375,0.635009765625,0.789794921875,0.6713866591453552,-0.30517578125,0.1831054538488388
1522413,0.035888671875,0.6385498046875,0.7860107421875,0.3662109076976776,-0.2441406100988388,0.1831054538488388
1522429,0.0333251953125,0.64501953125,0.781494140625,0.3662109076976776,-0.2441406100988388,0.1831054538488388
1522461,0.0352783203125,0.6474609375,0.7821044921875,0.8544921278953552,-0.2441406100988388,0.2441406100988388
1522477,0.0357666015625,0.6446533203125,0.783935546875,0.9765624403953552,-0.2441406100988388,0.30517578125
1522493,0.035400390625,0.63818359375,0.7840576171875,0.9765624403953552,-0.30517578125,0.30517578125
1522509,0.034912109375,0.6424560546875,0.78369140625,0.9155272841453552,-0.30517578125,0.2441406100988388
1522530,0.0355224609375,0.641845703125,0.7822265625,0.9155272841453552,-0.2441406100988388,0.3662109076976776
1522551,0.0347900390625,0.6402587890625,0.7855224609375,0.8544921278953552,-0.30517578125,0.3662109076976776
1522567,0.033935546875,0.6370849609375,0.78564453125,0.6103515625,-0.30517578125,0.2441406100988388
1522584,0.0343017578125,0.6424560546875,0.7845458984375,0.54931640625,-0.2441406100988388,0.1831054538488388
1522601,0.0352783203125,0.6436767578125,0.7801513671875,0.6103515625,-0.2441406100988388,0.1831054538488388
1522634,0.0347900390625,0.643798828125,0.7835693359375,0.9155272841453552,-0.2441406100988388,0.3662109076976776
1522651,0.0340576171875,0.6370849609375,0.78515625,0.9155272841453552,-0.30517578125,0.2441406100988388
1522667,0.033935546875,0.6370849609375,0.7861328125,0.7934569716453552,-0.30517578125,0.1831054538488388
1522699,0.0352783203125,0.6448974609375,0.781982421875,0.7324218153953552,-0.30517578125,0.1831054538488388
1522715,0.0350341796875,0.644287109375,0.7803955078125,0.8544921278953552,-0.2441406100988388,0.30517578125
1522731,0.0343017578125,0.642333984375,0.7843017578125,0.9155272841453552,-0.2441406100988388,0.30517578125
1522767,0.0364990234375,0.6405029296875,0.78369140625,1.0986328125,-0.2441406100988388,0.1831054538488388
1522783,0.0335693359375,0.6416015625,0.7840576171875,1.03759765625,-0.2441406100988388,0.1831054538488388
1522799,0.0328369140625,0.642822265625,0.7830810546875,1.0986328125,-0.30517578125,0.1831054538488388
1522815,0.0343017578125,0.644287109375,0.780517578125,1.4038084745407104,-0.30517578125,0.2441406100988388
1522832,0.0377197265625,0.6435546875,0.783447265625,1.6479490995407104,-0.2441406100988388,0.2441406100988388
1522853,0.0377197265625,0.6414794921875,0.7835693359375,1.6479490995407104,-0.2441406100988388,0.2441406100988388
1522869,0.03466796875,0.6378173828125,0.7850341796875,1.5258787870407104,-0.2441406100988388,0.1831054538488388
1522886,0.033203125,0.6346435546875,0.783935546875,1.4038084745407104,-0.1831054538488388,0.0610351525247097
1522903,0.034912109375,0.63623046875,0.774169921875,1.4038084745407104,-0.0610351525247097,-0.1220703050494194
1522932,0.037109375,0.62841796875,0.7852783203125,1.4648436307907104,1.5258787870407104,-1.2817381620407104
1522951,0.027587890625,0.6494140625,0.799072265625,0.9155272841453552,2.563476324081421,-2.197265625
1522967,0.0294189453125,0.66455078125,0.812744140625,0.7934569716453552,2.990722417831421,-2.25830078125
1522999,0.080322265625,0.8848876953125,1.021240234375,2.3193359375,0.8544921278953552,-0.9765624403953552
1523015,0.1046142578125,0.9827880859375,1.1488037109375,4.08935546875,-0.8544921278953552,0.54931640625
1523031,0.1016845703125,0.9783935546875,1.13232421875,5.676269054412842,-1.8310545682907104,1.220703125
1523067,0.0675048828125,0.929443359375,1.084716796875,9.765625,-2.807616949081421,1.8310545682907104
1523083,0.0577392578125,0.9425048828125,1.114501953125,11.413573265075684,-2.868652105331421,1.5258787870407104
1523099,0.0594482421875,0.9691162109375,1.141845703125,12.268065452575684,-2.868652105331421,1.3427733182907104
1523115,0.0751953125,1.053466796875,1.2353515625,14.892577171325684,-3.967284917831421,2.38037109375
1523138,0.0589599609375,0.9912109375,1.2008056640625,16.9677734375,-5.432128429412842,3.479003667831421
1523154,0.0323486328125,0.9129638671875,1.1531982421875,17.51708984375,-5.493163585662842,3.417968511581421
1523171,0.0255126953125,0.8944091796875,1.1484375,17.51708984375,-5.554198741912842,3.112792730331421
1523188,0.0213623046875,0.8726806640625,1.14892578125,16.90673828125,-5.981444835662842,2.990722417831421
1523205,0.01708984375,0.8673095703125,1.1060791015625,16.78466796875,-5.981444835662842,2.624511480331421
1523238,0.0137939453125,0.8868408203125,1.1219482421875,17.15087890625,-5.798339366912842,3.051757574081421
1523254,-0.0003662109375,0.8194580078125,1.093017578125,16.6015625,-5.798339366912842,3.234863042831421
1523270,-0.007568359375,0.766845703125,1.059814453125,15.930174827575684,-5.554198741912842,2.990722417831421
1523303,-0.0008544921875,0.711181640625,1.01171875,12.268065452575684,-4.0283203125,1.4038084745407104
1523324,0.00634765625,0.7291259765625,1.0069580078125,11.657713890075684,-3.906249761581421,1.4038084745407104
1523340,0.0091552734375,0.692138671875,0.959228515625,10.559081077575684,-3.662109136581421,1.5258787870407104
1523357,0.008056640625,0.6568603515625,0.9168701171875,9.8876953125,-3.295898199081421,1.4038084745407104
1523374,0.0048828125,0.6302490234375,0.9014892578125,7.934569835662842,-2.563476324081421,1.15966796875
1523390,0.001953125,0.600341796875,0.8824462890625,6.164550304412842,-2.44140625,1.220703125
1523407,-0.00146484375,0.5625,0.8470458984375,4.21142578125,-2.13623046875,0.9155272841453552
1523428,0.0,0.5220947265625,0.8011474609375,2.50244140625,-1.7700194120407104,0.6103515625
1523444,0.0084228515625,0.5118408203125,0.775390625,0.8544921278953552,-1.7700194120407104,0.6103515625
1523460,0.0074462890625,0.4925537109375,0.744140625,0.0,-1.9531248807907104,0.6713866591453552
1523476,0.0023193359375,0.4522705078125,0.6708984375,-1.5258787870407104,-1.8920897245407104,0.7324218153953552
1523493,-0.0045166015625,0.4122314453125,0.60595703125,-2.38037109375,-1.7700194120407104,0.6713866591453552
1523514,-0.0064697265625,0.4013671875,0.5845947265625,-3.662109136581421,-1.4648436307907104,0.6103515625
1523530,-0.0057373046875,0.3819580078125,0.550048828125,-4.7607421875,-1.5258787870407104,0.7324218153953552
1523547,-0.0067138671875,0.3155517578125,0.464111328125,-5.187987804412842,-1.5869139432907104,1.03759765625
1523564,-0.0040283203125,0.248779296875,0.3792724609375,-6.347655773162842,-1.15966796875,0.9155272841453552
1523630,0.0013427734375,0.218017578125,0.313232421875,-10.925292015075684,0.7934569716453552,-0.4272460639476776
1523672,0.003173828125,0.24609375,0.3299560546875,-11.901854515075684,1.3427733182907104,-0.6713866591453552
1523689,0.0078125,0.2574462890625,0.355712890625,-12.329100608825684,1.8920897245407104,-0.9155272841453552
1523706,0.0103759765625,0.3046875,0.4486083984375,-12.512206077575684,2.3193359375,-1.15966796875
1523726,0.010498046875,0.3787841796875,0.531982421875,-12.939452171325684,2.50244140625,-1.6479490995407104
1523743,0.016845703125,0.4541015625,0.60791015625,-12.878417015075684,2.624511480331421,-1.5869139432907104
1523760,0.02099609375,0.483154296875,0.64208984375,-12.695311546325684,2.3193359375,-1.4648436307907104
1523776,0.028076171875,0.561767578125,0.691162109375,-12.329100608825684,1.7700194120407104,-0.8544921278953552
1523792,0.0301513671875,0.57958984375,0.7032470703125,-12.084959983825684,1.6479490995407104,-0.6713866591453552
1523808,0.035888671875,0.613037109375,0.7418212890625,-11.413573265075684,1.6479490995407104,-0.2441406100988388
1523840,0.04248046875,0.6478271484375,0.8104248046875,-9.58251953125,0.4272460639476776,0.7934569716453552
1523861,0.0377197265625,0.6376953125,0.787109375,-8.36181640625,-0.1831054538488388,1.220703125
1523877,0.0335693359375,0.6324462890625,0.7779541015625,-7.873534679412842,-0.1831054538488388,1.3427733182907104
1523894,0.0303955078125,0.635986328125,0.7857666015625,-6.896972179412842,-0.4272460639476776,1.6479490995407104
1523911,0.02001953125,0.6087646484375,0.7919921875,-5.981444835662842,-0.6103515625,1.6479490995407104
1523927,0.016357421875,0.6087646484375,0.807373046875,-5.493163585662842,-0.6713866591453552,1.6479490995407104
1523961,0.013916015625,0.6331787109375,0.798583984375,-2.990722417831421,-1.220703125,1.4648436307907104
1523977,0.0115966796875,0.6317138671875,0.7864990234375,-1.8310545682907104,-1.220703125,1.7700194120407104
1523993,0.0096435546875,0.6165771484375,0.7862548828125,-1.4648436307907104,-1.15966796875,1.8310545682907104
1524009,0.003173828125,0.5966796875,0.7958984375,-0.8544921278953552,-1.0986328125,1.5869139432907104
1524029,-0.003662109375,0.582275390625,0.7958984375,-0.1831054538488388,-1.220703125,1.220703125
1524045,-0.0069580078125,0.59521484375,0.789794921875,0.3662109076976776,-1.0986328125,0.9765624403953552
1524061,-0.0078125,0.591064453125,0.7867431640625,0.7324218153953552,-1.03759765625,0.9155272841453552
1524077,-0.0091552734375,0.5753173828125,0.7642822265625,1.2817381620407104,-0.6713866591453552,0.7934569716453552
1524097,-0.0126953125,0.5633544921875,0.7579345703125,1.6479490995407104,-0.0610351525247097,0.0610351525247097
1524113,-0.0159912109375,0.5675048828125,0.7645263671875,1.8310545682907104,0.1831054538488388,-0.1220703050494194
1524129,-0.0174560546875,0.57470703125,0.7808837890625,2.38037109375,0.6103515625,-0.6103515625
1524148,-0.0103759765625,0.6060791015625,0.794677734375,3.112792730331421,0.8544921278953552,-1.03759765625
1524169,-0.0001220703125,0.6346435546875,0.8106689453125,3.662109136581421,0.9765624403953552,-1.15966796875
1524185,0.0081787109375,0.6513671875,0.8331298828125,5.0048828125,1.15966796875,-1.15966796875
1524252,0.018310546875,0.6422119140625,0.8182373046875,9.09423828125,0.9155272841453552,-0.9155272841453552
1524269,0.0234375,0.6466064453125,0.827392578125,10.192870140075684,0.6713866591453552,-0.6103515625
1524285,0.0242919921875,0.6246337890625,0.814697265625,10.620116233825684,0.54931640625,-0.54931640625
1524317,0.0255126953125,0.605712890625,0.8043212890625,11.352538108825684,0.30517578125,-0.54931640625
1524333,0.02490234375,0.6029052734375,0.8017578125,11.535643577575684,0.2441406100988388,-0.54931640625
1524349,0.0269775390625,0.614501953125,0.8123779296875,11.657713890075684,0.1831054538488388,-0.4882812201976776
1524381,0.0323486328125,0.6241455078125,0.830810546875,11.840819358825684,-0.4272460639476776,-0.1220703050494194
1524397,0.0279541015625,0.6182861328125,0.825927734375,11.901854515075684,-0.7324218153953552,0.1831054538488388
1524413,0.025634765625,0.61669921875,0.8253173828125,11.840819358825684,-0.8544921278953552,0.30517578125
1524461,0.0225830078125,0.607666015625,0.8314208984375,10.681151390075684,-1.5258787870407104,0.7934569716453552
1524513,0.0135498046875,0.593994140625,0.8193359375,8.7890625,-1.3427733182907104,0.4882812201976776
1524530,0.0120849609375,0.5970458984375,0.82177734375,8.4228515625,-1.3427733182907104,0.54931640625
1524547,0.0089111328125,0.58984375,0.8155517578125,7.690429210662842,-1.4038084745407104,0.7324218153953552
1524597,0.007080078125,0.5850830078125,0.8179931640625,5.249022960662842,-0.7934569716453552,0.30517578125
1524629,0.0059814453125,0.5712890625,0.807373046875,4.45556640625,-0.6103515625,0.2441406100988388
1524646,0.0069580078125,0.5667724609375,0.8033447265625,3.601073980331421,-0.4272460639476776,0.0610351525247097
1524679,0.0107421875,0.5860595703125,0.81591796875,2.563476324081421,0.0610351525247097,-0.30517578125
1524696,0.0093994140625,0.583984375,0.8155517578125,2.0751953125,0.1220703050494194,-0.30517578125
1524712,0.00830078125,0.58203125,0.8131103515625,1.4648436307907104,0.30517578125,-0.4882812201976776
1524728,0.013671875,0.5933837890625,0.8201904296875,0.9765624403953552,0.3662109076976776,-0.54931640625
1524749,0.017822265625,0.5963134765625,0.8203125,0.4882812201976776,0.3662109076976776,-0.4272460639476776
1524765,0.0181884765625,0.5927734375,0.818115234375,0.30517578125,0.3662109076976776,-0.3662109076976776
1524781,0.0186767578125,0.580810546875,0.8116455078125,-0.3662109076976776,0.4882812201976776,-0.3662109076976776
1524797,0.017578125,0.5858154296875,0.809326171875,-0.6103515625,0.4882812201976776,-0.4272460639476776
1524813,0.0177001953125,0.5968017578125,0.81689453125,-1.0986328125,0.6713866591453552,-0.4882812201976776
1524829,0.018798828125,0.61181640625,0.83154296875,-1.5869139432907104,0.54931640625,-0.1831054538488388
1524861,0.0201416015625,0.5906982421875,0.8218994140625,-2.563476324081421,0.4272460639476776,-0.0610351525247097
1524877,0.0191650390625,0.59326171875,0.8245849609375,-2.929687261581421,0.4272460639476776,-0.0610351525247097
1524893,0.01806640625,0.599609375,0.8280029296875,-3.479003667831421,0.4272460639476776,-0.0610351525247097
1524909,0.0174560546875,0.59814453125,0.829833984375,-3.845214605331421,0.3662109076976776,0.0
1524934,0.0186767578125,0.599365234375,0.82568359375,-4.08935546875,0.4272460639476776,0.0
1524950,0.0211181640625,0.6038818359375,0.8262939453125,-4.21142578125,0.3662109076976776,0.0610351525247097
1524967,0.0213623046875,0.5997314453125,0.82470703125,-4.39453125,0.1831054538488388,0.1831054538488388
1524984,0.0196533203125,0.59521484375,0.82373046875,-4.69970703125,0.0610351525247097,0.30517578125
1525000,0.0174560546875,0.583251953125,0.8131103515625,-4.7607421875,0.0610351525247097,0.30517578125
1525034,0.0172119140625,0.5914306640625,0.8115234375,-5.0048828125,0.0,0.1220703050494194
1525088,0.020751953125,0.5948486328125,0.81201171875,-4.45556640625,-0.3662109076976776,0.30517578125
1525108,0.0198974609375,0.5982666015625,0.8101806640625,-4.21142578125,-0.4272460639476776,0.1831054538488388
1525124,0.0194091796875,0.612060546875,0.820556640625,-3.417968511581421,-0.4882812201976776,0.2441406100988388
1525156,0.0224609375,0.6170654296875,0.8255615234375,-2.25830078125,-0.8544921278953552,0.4272460639476776
1525173,0.0201416015625,0.6065673828125,0.816162109375,-1.5869139432907104,-1.0986328125,0.54931640625
1525189,0.01611328125,0.5936279296875,0.8013916015625,-0.8544921278953552,-1.220703125,0.4882812201976776
1525222,0.0133056640625,0.580078125,0.7850341796875,0.1220703050494194,-1.0986328125,0.30517578125
1525238,0.0152587890625,0.5682373046875,0.7772216796875,0.4882812201976776,-1.220703125,0.30517578125
1525254,0.014404296875,0.55810546875,0.768310546875,1.0986328125,-1.2817381620407104,0.2441406100988388
1525270,0.013671875,0.5439453125,0.76171875,1.4038084745407104,-1.15966796875,0.2441406100988388
1525290,0.0145263671875,0.5299072265625,0.7523193359375,1.4648436307907104,-1.2817381620407104,0.1831054538488388
1525306,0.014892578125,0.520751953125,0.7435302734375,1.3427733182907104,-1.2817381620407104,0.0610351525247097
1525322,0.012451171875,0.511474609375,0.7344970703125,1.220703125,-1.220703125,-0.1220703050494194
1525338,0.0125732421875,0.5086669921875,0.7298583984375,1.0986328125,-1.220703125,-0.1831054538488388
1525359,0.01123046875,0.5084228515625,0.7325439453125,0.6713866591453552,-0.8544921278953552,-0.4272460639476776
1525375,0.0093994140625,0.5228271484375,0.7518310546875,0.1831054538488388,-0.7324218153953552,-0.6713866591453552
1525392,0.0107421875,0.5430908203125,0.769775390625,0.0,-0.7324218153953552,-0.7324218153953552
1525409,0.01220703125,0.55517578125,0.776611328125,-0.3662109076976776,-0.8544921278953552,-0.6103515625
1525425,0.01025390625,0.535400390625,0.7532958984375,-0.9765624403953552,-0.9765624403953552,-0.4272460639476776
1525457,0.0101318359375,0.5032958984375,0.7215576171875,-2.746581792831421,-0.4882812201976776,-0.6103515625
1525479,0.0103759765625,0.503173828125,0.7254638671875,-4.150390625,-0.1220703050494194,-0.8544921278953552
1525495,0.011474609375,0.5230712890625,0.7423095703125,-5.249022960662842,0.0,-1.0986328125
1525512,0.01611328125,0.5555419921875,0.7537841796875,-5.676269054412842,-0.1220703050494194,-0.9765624403953552
1525529,0.01611328125,0.546875,0.7374267578125,-6.469726085662842,-0.4882812201976776,-0.3662109076976776
1525545,0.0140380859375,0.5162353515625,0.70458984375,-7.629394054412842,-0.1831054538488388,-0.3662109076976776
1525586,0.015869140625,0.5517578125,0.74560546875,-10.192870140075684,0.4272460639476776,-0.54931640625
1525603,0.018798828125,0.572998046875,0.7576904296875,-10.864256858825684,0.0610351525247097,0.0610351525247097
1525619,0.0220947265625,0.562255859375,0.7413330078125,-11.169432640075684,-0.0610351525247097,0.2441406100988388
1525635,0.0234375,0.5535888671875,0.7308349609375,-11.840819358825684,-0.1220703050494194,0.4882812201976776
1525652,0.0203857421875,0.5391845703125,0.7039794921875,-12.573241233825684,-0.0610351525247097,0.6103515625
1525673,0.017822265625,0.53662109375,0.6956787109375,-12.878417015075684,0.1220703050494194,0.6103515625
1525689,0.01513671875,0.543212890625,0.6905517578125,-13.244627952575684,0.1220703050494194,0.6713866591453552
1525706,0.0155029296875,0.53759765625,0.6749267578125,-13.427733421325684,0.0,0.8544921278953552
1525723,0.0146484375,0.5296630859375,0.651123046875,-13.366698265075684,0.0610351525247097,0.8544921278953552
1525756,0.01513671875,0.5506591796875,0.65185546875,-13.305663108825684,0.7934569716453552,0.54931640625
1525773,0.01708984375,0.5771484375,0.678955078125,-12.756346702575684,0.9155272841453552,0.6103515625
1525789,0.018310546875,0.5899658203125,0.6912841796875,-12.329100608825684,0.9155272841453552,0.54931640625
1525821,0.0281982421875,0.6383056640625,0.6937255859375,-9.58251953125,0.1220703050494194,1.220703125
1525869,0.0203857421875,0.5838623046875,0.65478515625,-7.324218273162842,0.6713866591453552,0.9155272841453552
1525891,0.0159912109375,0.639404296875,0.6949462890625,-6.286620616912842,0.7324218153953552,0.6713866591453552
1525908,0.016845703125,0.6470947265625,0.695556640625,-5.126952648162842,0.54931640625,0.6103515625
1525945,0.012939453125,0.679931640625,0.737060546875,-2.44140625,0.7934569716453552,0.30517578125
1525962,0.012451171875,0.7298583984375,0.7919921875,0.6713866591453552,0.6713866591453552,0.4272460639476776
1525995,0.02197265625,0.6876220703125,0.7618408203125,2.807616949081421,0.2441406100988388,0.6713866591453552
1526012,0.01904296875,0.65380859375,0.7293701171875,3.784179449081421,0.6713866591453552,0.2441406100988388
1526033,0.0118408203125,0.6434326171875,0.72607421875,4.150390625,1.03759765625,-0.1831054538488388
1526049,-0.0001220703125,0.675048828125,0.7611083984375,5.187987804412842,1.4038084745407104,-0.7934569716453552
1526130,0.02099609375,0.6661376953125,0.774658203125,8.9111328125,1.7700194120407104,-1.2817381620407104
1526193,0.0357666015625,0.713623046875,0.8238525390625,10.620116233825684,1.8920897245407104,-2.0751953125
1526210,0.0352783203125,0.71044921875,0.8251953125,11.169432640075684,2.13623046875,-2.197265625
1526227,0.0372314453125,0.69091796875,0.82568359375,11.352538108825684,2.197265625,-2.197265625
1526245,0.0419921875,0.676025390625,0.8468017578125,11.169432640075684,2.563476324081421,-2.563476324081421
1526294,0.039306640625,0.6971435546875,0.8447265625,10.192870140075684,2.929687261581421,-3.601073980331421
1526316,0.04736328125,0.7275390625,0.9005126953125,9.94873046875,3.234863042831421,-3.784179449081421
1526333,0.048095703125,0.7659912109375,0.9447021484375,9.94873046875,2.868652105331421,-3.845214605331421
1526350,0.0439453125,0.770263671875,0.948486328125,10.437010765075684,2.197265625,-3.540038824081421
1526366,0.0418701171875,0.77294921875,0.9302978515625,10.742186546325684,1.7700194120407104,-3.173827886581421
1526383,0.0380859375,0.689697265625,0.8741455078125,10.559081077575684,1.5258787870407104,-2.807616949081421
1526416,0.0577392578125,0.7091064453125,0.928466796875,8.7890625,1.6479490995407104,-3.540038824081421
1526433,0.060546875,0.7628173828125,0.9346923828125,8.544921875,1.03759765625,-3.112792730331421
1526454,0.0565185546875,0.755126953125,0.9132080078125,8.4228515625,0.3662109076976776,-2.197265625
1526470,0.0439453125,0.7142333984375,0.8760986328125,8.48388671875,0.1220703050494194,-1.7700194120407104
1526487,0.0382080078125,0.66845703125,0.8714599609375,7.934569835662842,0.30517578125,-1.8310545682907104
1526504,0.0377197265625,0.702392578125,0.903564453125,6.652831554412842,0.2441406100988388,-2.197265625
1526536,0.03759765625,0.70068359375,0.8687744140625,5.371093273162842,-0.8544921278953552,-1.03759765625
1526602,0.0400390625,0.6973876953125,0.89501953125,2.807616949081421,-0.7934569716453552,-1.2817381620407104
1526623,0.038330078125,0.6961669921875,0.8760986328125,2.44140625,-1.3427733182907104,-0.7934569716453552
1526639,0.031494140625,0.654052734375,0.8271484375,1.7700194120407104,-1.15966796875,-0.7324218153953552
1526656,0.03564453125,0.66015625,0.85107421875,1.15966796875,-0.7934569716453552,-0.9765624403953552
1526673,0.0384521484375,0.6805419921875,0.8741455078125,0.1220703050494194,-0.7934569716453552,-1.03759765625
1526689,0.03515625,0.6783447265625,0.8814697265625,-0.6103515625,-1.2817381620407104,-0.7324218153953552
1526727,0.0335693359375,0.663330078125,0.857421875,-2.868652105331421,-1.03759765625,-1.220703125
1526775,0.040283203125,0.664306640625,0.8338623046875,-4.45556640625,-1.6479490995407104,-0.4882812201976776
1526807,0.043212890625,0.631103515625,0.8294677734375,-6.164550304412842,-1.4648436307907104,-0.6103515625
1526913,0.044921875,0.6475830078125,0.8018798828125,-8.36181640625,-2.38037109375,0.4272460639476776
1526930,0.0643310546875,0.6834716796875,0.8603515625,-7.934569835662842,-2.38037109375,0.2441406100988388
1526947,0.141357421875,0.8392333984375,1.0904541015625,-6.408690929412842,-3.234863042831421,0.6713866591453552
1526967,0.0509033203125,0.614501953125,0.7479248046875,-4.45556640625,-6.347655773162842,2.990722417831421
1526984,0.0255126953125,0.6214599609375,0.744140625,-3.417968511581421,-5.187987804412842,1.7089842557907104
1527000,0.0323486328125,0.64111328125,0.7799072265625,-3.967284917831421,-4.8828125,1.8310545682907104
1527017,0.0321044921875,0.6832275390625,0.7218017578125,0.7934569716453552,-4.33349609375,1.7700194120407104
1527033,0.028076171875,0.6138916015625,0.635009765625,7.446288585662842,-2.25830078125,0.4882812201976776
1527049,0.0345458984375,0.5078125,0.661865234375,13.061522483825684,1.8310545682907104,-2.685546636581421
1527082,0.0330810546875,0.6204833984375,0.7379150390625,8.9111328125,1.5869139432907104,-2.44140625
1527103,0.058349609375,0.7667236328125,0.92626953125,6.652831554412842,0.6713866591453552,-1.3427733182907104
1527119,0.0780029296875,0.8135986328125,0.93310546875,4.39453125,-0.6103515625,0.1220703050494194
1527136,0.0352783203125,0.491943359375,0.6468505859375,2.50244140625,-1.7089842557907104,1.7700194120407104
1527153,0.0313720703125,0.5211181640625,0.68994140625,1.03759765625,-0.6713866591453552,1.15966796875
1527169,0.0428466796875,0.6773681640625,0.90673828125,2.929687261581421,-1.15966796875,1.15966796875
1527206,0.0264892578125,0.6146240234375,0.75,2.38037109375,0.0,-0.54931640625
1527223,0.0465087890625,0.674560546875,0.851806640625,2.563476324081421,-0.2441406100988388,-0.1831054538488388
1527239,0.04833984375,0.6402587890625,0.7845458984375,2.624511480331421,-1.15966796875,0.9155272841453552
1527255,0.031005859375,0.5904541015625,0.77734375,2.624511480331421,-0.9155272841453552,0.9155272841453552
1527277,0.02685546875,0.639404296875,0.822998046875,2.197265625,-0.54931640625,0.4882812201976776
1527293,0.034912109375,0.614013671875,0.8121337890625,1.6479490995407104,-0.8544921278953552,0.54931640625
1527310,0.0400390625,0.60693359375,0.7752685546875,1.5869139432907104,-0.9155272841453552,0.6713866591453552
1527327,0.035400390625,0.6375732421875,0.809814453125,1.6479490995407104,-0.6713866591453552,0.54931640625
1527343,0.0325927734375,0.634521484375,0.8094482421875,1.5258787870407104,-0.54931640625,0.54931640625
1527379,0.0389404296875,0.623046875,0.8099365234375,0.7934569716453552,-0.4882812201976776,0.4272460639476776
1527448,0.0328369140625,0.6177978515625,0.7994384765625,-0.30517578125,-0.4882812201976776,0.4272460639476776
1527464,0.0350341796875,0.6190185546875,0.799072265625,-0.4882812201976776,-0.3662109076976776,0.3662109076976776
1527480,0.0391845703125,0.6248779296875,0.80029296875,-0.8544921278953552,-0.30517578125,0.3662109076976776
1527496,0.03515625,0.6182861328125,0.7999267578125,-0.9765624403953552,-0.3662109076976776,0.4882812201976776
1527512,0.0323486328125,0.6162109375,0.799072265625,-1.3427733182907104,-0.4882812201976776,0.4882812201976776
1527528,0.0325927734375,0.6199951171875,0.7996826171875,-1.6479490995407104,-0.3662109076976776,0.4272460639476776
1527563,0.0386962890625,0.6307373046875,0.79443359375,-1.7089842557907104,-0.2441406100988388,0.30517578125
1527579,0.0338134765625,0.6337890625,0.7918701171875,-1.5869139432907104,-0.2441406100988388,0.3662109076976776
1527596,0.0306396484375,0.631103515625,0.792724609375,-1.3427733182907104,-0.30517578125,0.4882812201976776
1527613,0.03271484375,0.6279296875,0.7939453125,-1.15966796875,-0.30517578125,0.4882812201976776
1527679,0.03271484375,0.6326904296875,0.789306640625,-0.7324218153953552,-0.2441406100988388,0.30517578125
1527695,0.0362548828125,0.6343994140625,0.791015625,-0.6103515625,-0.1831054538488388,0.30517578125
1527711,0.0362548828125,0.6314697265625,0.7935791015625,-0.4882812201976776,-0.2441406100988388,0.30517578125
1527747,0.0341796875,0.6375732421875,0.790771484375,0.1220703050494194,-0.30517578125,0.1831054538488388
1527779,0.03466796875,0.6353759765625,0.78955078125,0.8544921278953552,-0.2441406100988388,0.30517578125
1527811,0.033447265625,0.6363525390625,0.793701171875,1.2817381620407104,-0.30517578125,0.30517578125
1527828,0.034423828125,0.63232421875,0.7889404296875,1.5869139432907104,-0.30517578125,0.2441406100988388
1527865,0.034423828125,0.63134765625,0.7906494140625,2.0751953125,-0.3662109076976776,0.30517578125
1527882,0.0338134765625,0.6363525390625,0.79150390625,2.38037109375,-0.4272460639476776,0.1831054538488388
1527898,0.03564453125,0.634521484375,0.791015625,2.624511480331421,-0.3662109076976776,0.1831054538488388
1527915,0.03564453125,0.6314697265625,0.7918701171875,2.746581792831421,-0.3662109076976776,0.2441406100988388
1527932,0.03369140625,0.627197265625,0.7957763671875,2.929687261581421,-0.3662109076976776,0.2441406100988388
1527953,0.0325927734375,0.6285400390625,0.794921875,2.990722417831421,-0.30517578125,0.1220703050494194
1527969,0.033447265625,0.633056640625,0.79296875,3.112792730331421,-0.30517578125,0.1831054538488388
1527986,0.03466796875,0.631103515625,0.7921142578125,3.417968511581421,-0.3662109076976776,0.1831054538488388
1528003,0.0362548828125,0.62841796875,0.7977294921875,3.540038824081421,-0.3662109076976776,0.1831054538488388
1528036,0.0335693359375,0.624755859375,0.796142578125,3.723144292831421,-0.30517578125,0.1220703050494194
1528053,0.03271484375,0.6260986328125,0.798583984375,3.784179449081421,-0.3662109076976776,0.0610351525247097
1528069,0.03271484375,0.625244140625,0.7978515625,3.845214605331421,-0.30517578125,0.1831054538488388
1528117,0.033935546875,0.6197509765625,0.80126953125,3.601073980331421,-0.3662109076976776,0.1220703050494194
1528169,0.032470703125,0.6156005859375,0.802978515625,3.234863042831421,-0.30517578125,0.1220703050494194
1528186,0.032470703125,0.6162109375,0.804443359375,2.990722417831421,-0.3662109076976776,0.1220703050494194
1528219,0.035400390625,0.614990234375,0.8037109375,2.624511480331421,-0.30517578125,0.2441406100988388
1528236,0.035400390625,0.6160888671875,0.8052978515625,2.38037109375,-0.3662109076976776,0.2441406100988388
1528253,0.031982421875,0.6156005859375,0.8060302734375,2.197265625,-0.30517578125,0.1831054538488388
1528269,0.033447265625,0.6173095703125,0.8045654296875,2.0751953125,-0.3662109076976776,0.1831054538488388
1528323,0.03125,0.6134033203125,0.807373046875,1.8920897245407104,-0.2441406100988388,0.30517578125
1528350,0.0328369140625,0.6151123046875,0.805908203125,1.5869139432907104,-0.3662109076976776,0.1831054538488388
1528366,0.034912109375,0.61376953125,0.8070068359375,1.4648436307907104,-0.3662109076976776,0.1831054538488388
1528398,0.0347900390625,0.6142578125,0.804443359375,1.4038084745407104,-0.30517578125,0.30517578125
1528414,0.0318603515625,0.6136474609375,0.8055419921875,1.4038084745407104,-0.2441406100988388,0.2441406100988388
1528430,0.032470703125,0.6131591796875,0.8092041015625,1.3427733182907104,-0.2441406100988388,0.1831054538488388
1528467,0.034912109375,0.617919921875,0.80712890625,1.3427733182907104,-0.1831054538488388,0.1220703050494194
1528515,0.03466796875,0.61474609375,0.8072509765625,1.4038084745407104,-0.1831054538488388,0.1220703050494194
1528537,0.0340576171875,0.613525390625,0.806884765625,1.4038084745407104,-0.2441406100988388,0.1831054538488388
1528554,0.03466796875,0.6131591796875,0.8074951171875,1.4648436307907104,-0.2441406100988388,0.1831054538488388
1528571,0.0345458984375,0.613037109375,0.8087158203125,1.3427733182907104,-0.1831054538488388,0.1220703050494194
1528587,0.0350341796875,0.614013671875,0.8074951171875,1.3427733182907104,-0.1220703050494194,0.0610351525247097
1528604,0.0350341796875,0.6141357421875,0.8060302734375,1.3427733182907104,-0.0610351525247097,0.0
1528637,0.03369140625,0.614501953125,0.8046875,1.5869139432907104,-0.1220703050494194,0.0610351525247097
1528653,0.0345458984375,0.61669921875,0.805908203125,1.8920897245407104,-0.1220703050494194,0.0
1528669,0.033935546875,0.6187744140625,0.8023681640625,2.0751953125,-0.1220703050494194,0.0
1528701,0.0335693359375,0.6221923828125,0.798583984375,3.540038824081421,0.0,-0.1220703050494194
1528749,0.0367431640625,0.6202392578125,0.8017578125,5.493163585662842,0.1220703050494194,-0.30517578125
1528834,0.03515625,0.6337890625,0.815673828125,12.268065452575684,1.8310545682907104,-1.6479490995407104
1528851,0.0662841796875,0.730224609375,0.8753662109375,15.075682640075684,2.197265625,-2.38037109375
1528868,0.0758056640625,0.7803955078125,0.9410400390625,18.49365234375,0.9765624403953552,-1.7089842557907104
1528887,0.0723876953125,0.861083984375,1.0308837890625,21.789548873901367,-0.2441406100988388,-0.4882812201976776
1528903,0.078857421875,0.8790283203125,1.0762939453125,24.291990280151367,-1.2817381620407104,0.30517578125
1528920,0.080078125,0.8526611328125,1.0703125,25.390623092651367,-1.5869139432907104,0.7324218153953552
1528936,0.077880859375,0.7794189453125,1.0570068359375,25.390623092651367,-1.7700194120407104,0.7324218153953552
1528958,0.0748291015625,0.729248046875,1.060546875,24.536130905151367,-1.7089842557907104,0.4882812201976776
1528974,0.0743408203125,0.7742919921875,1.09716796875,24.047849655151367,-1.6479490995407104,0.1831054538488388
1528991,0.0745849609375,0.80322265625,1.1446533203125,23.742673873901367,-1.5869139432907104,0.0
1529008,0.0723876953125,0.8804931640625,1.256591796875,24.536130905151367,-2.50244140625,0.9765624403953552
1529024,0.060546875,0.82666015625,1.2493896484375,24.658201217651367,-3.356933355331421,1.6479490995407104
1529058,0.05224609375,0.7255859375,1.197998046875,21.972654342651367,-3.662109136581421,1.4648436307907104
1529074,0.04736328125,0.726318359375,1.200439453125,20.080564498901367,-3.173827886581421,0.8544921278953552
1529090,0.0467529296875,0.740966796875,1.217529296875,19.53125,-3.051757574081421,0.7324218153953552
1529122,0.037841796875,0.74169921875,1.236083984375,17.76123046875,-3.845214605331421,1.4648436307907104
1529138,0.0301513671875,0.7025146484375,1.1937255859375,17.2119140625,-3.723144292831421,1.5258787870407104
1529154,0.0234375,0.6383056640625,1.1392822265625,15.197752952575684,-2.807616949081421,1.03759765625
1529174,0.0299072265625,0.6219482421875,1.155029296875,12.939452171325684,-1.8920897245407104,0.54931640625
1529242,0.0352783203125,0.5653076171875,1.05078125,7.507323741912842,-2.13623046875,1.220703125
1529262,0.02685546875,0.5089111328125,0.9793701171875,5.432128429412842,-2.01416015625,1.2817381620407104
1529278,0.024169921875,0.4853515625,0.9530029296875,2.685546636581421,-1.7089842557907104,1.0986328125
1529294,0.020751953125,0.449951171875,0.8946533203125,0.0,-1.0986328125,0.7324218153953552
1529316,0.0255126953125,0.45556640625,0.8978271484375,-1.220703125,-1.03759765625,0.6713866591453552
1529332,0.02783203125,0.4638671875,0.8843994140625,-3.173827886581421,-1.2817381620407104,0.9155272841453552
1529349,0.022216796875,0.447509765625,0.8475341796875,-4.7607421875,-1.4038084745407104,1.03759765625
1529366,0.0169677734375,0.4361572265625,0.81689453125,-5.310058116912842,-1.5258787870407104,1.15966796875
1529382,0.012451171875,0.4111328125,0.75341796875,-6.347655773162842,-2.01416015625,1.4038084745407104
1529416,0.0087890625,0.358642578125,0.67431640625,-8.72802734375,-2.50244140625,1.8920897245407104
1529433,0.006591796875,0.3277587890625,0.6187744140625,-9.3994140625,-2.50244140625,1.9531248807907104
1529454,0.0064697265625,0.326904296875,0.5975341796875,-10.314940452575684,-2.563476324081421,1.9531248807907104
1529470,-0.0025634765625,0.3092041015625,0.5191650390625,-10.864256858825684,-2.624511480331421,2.38037109375
1529487,-0.0118408203125,0.2550048828125,0.4307861328125,-11.108397483825684,-2.3193359375,2.3193359375
1529504,-0.014892578125,0.2357177734375,0.3897705078125,-11.718749046325684,-1.220703125,1.9531248807907104
1529535,-0.023681640625,0.2103271484375,0.3785400390625,-12.390135765075684,0.6713866591453552,0.9765624403953552
1529599,-0.0015869140625,0.266845703125,0.44287109375,-12.145995140075684,1.6479490995407104,0.6103515625
1529620,0.005859375,0.25146484375,0.44921875,-12.329100608825684,2.0751953125,0.6713866591453552
1529636,0.0064697265625,0.2520751953125,0.4915771484375,-12.451170921325684,2.38037109375,0.54931640625
1529653,0.0076904296875,0.26904296875,0.5302734375,-12.695311546325684,2.624511480331421,0.0610351525247097
1529670,0.0089111328125,0.3143310546875,0.5732421875,-12.390135765075684,2.746581792831421,-0.6713866591453552
1529687,0.0186767578125,0.423095703125,0.64990234375,-11.047362327575684,2.929687261581421,-0.7324218153953552
1529719,0.0350341796875,0.540771484375,0.774658203125,-8.1787109375,2.197265625,0.0610351525247097
1529736,0.0379638671875,0.5621337890625,0.8367919921875,-5.859374523162842,1.3427733182907104,0.6713866591453552
1529788,0.024658203125,0.611328125,0.8599853515625,1.4038084745407104,0.0,1.15966796875
1529804,0.0277099609375,0.61572265625,0.87060546875,4.39453125,-0.2441406100988388,1.2817381620407104
1529820,0.02978515625,0.61962890625,0.8780517578125,5.859374523162842,-0.4272460639476776,1.4038084745407104
1529835,0.0294189453125,0.607177734375,0.885986328125,8.48388671875,-0.9155272841453552,1.5258787870407104
1529889,0.0189208984375,0.5408935546875,0.830078125,14.465331077575684,-1.7700194120407104,1.8920897245407104
1529906,0.0155029296875,0.521728515625,0.833984375,15.136717796325684,-1.6479490995407104,1.7089842557907104
1529923,0.014892578125,0.5186767578125,0.8402099609375,16.05224609375,-1.7700194120407104,1.5258787870407104
1529956,0.0091552734375,0.4901123046875,0.8258056640625,17.15087890625,-2.13623046875,1.5869139432907104
1529973,0.008056640625,0.4925537109375,0.8309326171875,17.39501953125,-2.01416015625,1.3427733182907104
1529989,0.006591796875,0.5096435546875,0.859130859375,17.9443359375,-2.13623046875,1.3427733182907104
