tMillis,ax,ay,az,gx,gy,gz
1214294,0.0450439453125,0.6715087890625,0.7540283203125,0.6103515625,-0.2441406100988388,0.2441406100988388
1214310,0.0450439453125,0.671630859375,0.754150390625,0.6103515625,-0.2441406100988388,0.2441406100988388
1214327,0.044677734375,0.672607421875,0.7552490234375,0.6103515625,-0.1831054538488388,0.1831054538488388
1214344,0.0447998046875,0.6719970703125,0.755126953125,0.6713866591453552,-0.2441406100988388,0.2441406100988388
1214360,0.0443115234375,0.6724853515625,0.756103515625,0.6713866591453552,-0.1831054538488388,0.30517578125
1214392,0.0445556640625,0.6724853515625,0.755615234375,0.6103515625,-0.2441406100988388,0.2441406100988388
1214414,0.0450439453125,0.6724853515625,0.755615234375,0.6103515625,-0.1831054538488388,0.2441406100988388
1214430,0.0443115234375,0.672607421875,0.7557373046875,0.6713866591453552,-0.1831054538488388,0.2441406100988388
1214447,0.045166015625,0.6715087890625,0.7562255859375,0.6103515625,-0.2441406100988388,0.2441406100988388
1214465,0.045654296875,0.6717529296875,0.75537109375,0.54931640625,-0.2441406100988388,0.30517578125
1214481,0.043701171875,0.6722412109375,0.7552490234375,0.54931640625,-0.2441406100988388,0.2441406100988388
1214515,0.045166015625,0.67236328125,0.7552490234375,0.6103515625,-0.1831054538488388,0.30517578125
1214531,0.04443359375,0.6717529296875,0.755126953125,0.6713866591453552,-0.1831054538488388,0.30517578125
1214550,0.04541015625,0.6719970703125,0.755615234375,0.6103515625,-0.1831054538488388,0.30517578125
1214570,0.0447998046875,0.6715087890625,0.75537109375,0.54931640625,-0.2441406100988388,0.30517578125
1214636,0.0452880859375,0.67138671875,0.756591796875,0.54931640625,-0.2441406100988388,0.2441406100988388
1214653,0.045166015625,0.6715087890625,0.7567138671875,0.54931640625,-0.1831054538488388,0.2441406100988388
1214670,0.044189453125,0.6724853515625,0.7559814453125,0.6103515625,-0.1831054538488388,0.2441406100988388
1214686,0.0438232421875,0.672607421875,0.75634765625,0.6103515625,-0.1831054538488388,0.2441406100988388
1214703,0.044189453125,0.67236328125,0.7557373046875,0.6103515625,-0.2441406100988388,0.2441406100988388
1214740,0.0443115234375,0.6727294921875,0.7554931640625,0.6103515625,-0.2441406100988388,0.2441406100988388
1214760,0.0445556640625,0.6728515625,0.7542724609375,0.54931640625,-0.1831054538488388,0.2441406100988388
1214776,0.045166015625,0.6717529296875,0.7552490234375,0.6103515625,-0.1831054538488388,0.1831054538488388
1214793,0.0455322265625,0.6727294921875,0.75537109375,0.54931640625,-0.1831054538488388,0.1831054538488388
1214810,0.0435791015625,0.67138671875,0.7542724609375,0.54931640625,-0.1831054538488388,0.1831054538488388
1214860,0.044921875,0.67236328125,0.7545166015625,0.6713866591453552,-0.2441406100988388,0.2441406100988388
1214882,0.0443115234375,0.6719970703125,0.7559814453125,0.6103515625,-0.1831054538488388,0.30517578125
1214899,0.0447998046875,0.67236328125,0.7550048828125,0.6103515625,-0.1831054538488388,0.2441406100988388
1214932,0.04345703125,0.6728515625,0.7559814453125,0.6103515625,-0.1831054538488388,0.2441406100988388
1214949,0.044189453125,0.6727294921875,0.7545166015625,0.6103515625,-0.1831054538488388,0.30517578125
1214965,0.0443115234375,0.671875,0.7540283203125,0.6713866591453552,-0.1831054538488388,0.30517578125
1215002,0.045654296875,0.6715087890625,0.7554931640625,0.6103515625,-0.1831054538488388,0.3662109076976776
1215018,0.0445556640625,0.6712646484375,0.7559814453125,0.6103515625,-0.1220703050494194,0.30517578125
1215034,0.04443359375,0.6719970703125,0.7562255859375,0.6103515625,-0.1831054538488388,0.30517578125
1215050,0.0450439453125,0.67236328125,0.75634765625,0.6103515625,-0.1831054538488388,0.30517578125
1215067,0.0450439453125,0.6722412109375,0.7564697265625,0.6103515625,-0.1831054538488388,0.2441406100988388
1215088,0.0450439453125,0.6722412109375,0.755615234375,0.6713866591453552,-0.1831054538488388,0.1831054538488388
1215104,0.0440673828125,0.67236328125,0.7559814453125,0.6713866591453552,-0.1831054538488388,0.30517578125
1215122,0.0445556640625,0.6724853515625,0.755859375,0.6103515625,-0.1831054538488388,0.30517578125
1215172,0.045166015625,0.6729736328125,0.7559814453125,0.54931640625,-0.1831054538488388,0.2441406100988388
1215188,0.0447998046875,0.6729736328125,0.7550048828125,0.54931640625,-0.1831054538488388,0.2441406100988388
1215205,0.0445556640625,0.67236328125,0.7557373046875,0.54931640625,-0.2441406100988388,0.2441406100988388
1215238,0.04541015625,0.6727294921875,0.7567138671875,0.54931640625,-0.2441406100988388,0.30517578125
1215259,0.044921875,0.67138671875,0.755859375,0.6103515625,-0.1220703050494194,0.30517578125
1215275,0.043701171875,0.671142578125,0.7547607421875,0.6103515625,-0.1220703050494194,0.2441406100988388
1215292,0.043701171875,0.67333984375,0.7554931640625,0.6103515625,-0.1831054538488388,0.1831054538488388
1215309,0.04443359375,0.6732177734375,0.7550048828125,0.6103515625,-0.1831054538488388,0.1831054538488388
1215325,0.0440673828125,0.6710205078125,0.7542724609375,0.54931640625,-0.1831054538488388,0.2441406100988388
1215342,0.0443115234375,0.6719970703125,0.75634765625,0.6713866591453552,-0.1831054538488388,0.2441406100988388
1215362,0.044921875,0.671875,0.7554931640625,0.6713866591453552,-0.1220703050494194,0.2441406100988388
1215378,0.0438232421875,0.6719970703125,0.7557373046875,0.6103515625,-0.1220703050494194,0.2441406100988388
1215410,0.0443115234375,0.6719970703125,0.7550048828125,0.6713866591453552,-0.1831054538488388,0.30517578125
1215428,0.04443359375,0.6717529296875,0.7548828125,0.6103515625,-0.1831054538488388,0.30517578125
1215449,0.044677734375,0.67333984375,0.7557373046875,0.54931640625,-0.2441406100988388,0.1831054538488388
1215465,0.0452880859375,0.67138671875,0.755859375,0.6103515625,-0.30517578125,0.30517578125
1215482,0.0450439453125,0.672607421875,0.7552490234375,0.6103515625,-0.2441406100988388,0.30517578125
1215499,0.0447998046875,0.6727294921875,0.755615234375,0.6103515625,-0.1831054538488388,0.2441406100988388
1215532,0.044189453125,0.672607421875,0.7547607421875,0.54931640625,-0.1831054538488388,0.2441406100988388
1215549,0.044189453125,0.672607421875,0.75537109375,0.54931640625,-0.1220703050494194,0.2441406100988388
1215565,0.0447998046875,0.67236328125,0.7545166015625,0.6103515625,-0.1831054538488388,0.30517578125
1215597,0.044189453125,0.6727294921875,0.7554931640625,0.54931640625,-0.2441406100988388,0.30517578125
1215645,0.044677734375,0.6727294921875,0.755615234375,0.6103515625,-0.1831054538488388,0.2441406100988388
1215667,0.04345703125,0.6722412109375,0.7547607421875,0.6103515625,-0.1831054538488388,0.2441406100988388
1215684,0.04443359375,0.6719970703125,0.754638671875,0.6103515625,-0.1831054538488388,0.2441406100988388
1215701,0.044921875,0.6719970703125,0.7550048828125,0.54931640625,-0.2441406100988388,0.30517578125
1215754,0.044677734375,0.67138671875,0.75634765625,0.6103515625,-0.1831054538488388,0.2441406100988388
1215786,0.0450439453125,0.671630859375,0.7562255859375,0.6103515625,-0.2441406100988388,0.2441406100988388
1215803,0.045166015625,0.6715087890625,0.754638671875,0.6103515625,-0.2441406100988388,0.2441406100988388
1215840,0.0445556640625,0.6728515625,0.755126953125,0.6713866591453552,-0.1831054538488388,0.30517578125
1215861,0.04443359375,0.672119140625,0.7557373046875,0.6103515625,-0.2441406100988388,0.2441406100988388
1215881,0.0445556640625,0.6717529296875,0.7542724609375,0.54931640625,-0.1831054538488388,0.2441406100988388
1215902,0.0445556640625,0.672607421875,0.7550048828125,0.6103515625,-0.2441406100988388,0.30517578125
1215918,0.0443115234375,0.67236328125,0.7545166015625,0.6103515625,-0.2441406100988388,0.2441406100988388
1215934,0.044677734375,0.6712646484375,0.7550048828125,0.54931640625,-0.1831054538488388,0.30517578125
1215950,0.044677734375,0.6712646484375,0.7548828125,0.54931640625,-0.1220703050494194,0.30517578125
1215967,0.044677734375,0.6719970703125,0.7550048828125,0.54931640625,-0.1220703050494194,0.2441406100988388
1215988,0.0445556640625,0.6724853515625,0.755615234375,0.54931640625,-0.1831054538488388,0.1831054538488388
1216004,0.0445556640625,0.6717529296875,0.7552490234375,0.6103515625,-0.1831054538488388,0.1831054538488388
1216021,0.044189453125,0.6715087890625,0.755126953125,0.6103515625,-0.1831054538488388,0.2441406100988388
1216038,0.0450439453125,0.6722412109375,0.7545166015625,0.6103515625,-0.1831054538488388,0.2441406100988388
1216071,0.0445556640625,0.6729736328125,0.7562255859375,0.6103515625,-0.1831054538488388,0.2441406100988388
1216088,0.044677734375,0.6719970703125,0.7572021484375,0.6713866591453552,-0.1831054538488388,0.30517578125
1216104,0.044189453125,0.672607421875,0.75732421875,0.6713866591453552,-0.1831054538488388,0.1831054538488388
1216136,0.0445556640625,0.670654296875,0.75439453125,0.6103515625,-0.2441406100988388,0.1831054538488388
1216152,0.0452880859375,0.6728515625,0.757080078125,0.6103515625,-0.2441406100988388,0.2441406100988388
1216168,0.04443359375,0.6724853515625,0.7564697265625,0.6103515625,-0.2441406100988388,0.2441406100988388
1216184,0.0435791015625,0.672119140625,0.7564697265625,0.6103515625,-0.1831054538488388,0.1831054538488388
1216204,0.044921875,0.671875,0.7557373046875,0.54931640625,-0.1831054538488388,0.2441406100988388
1216220,0.045654296875,0.6707763671875,0.7552490234375,0.54931640625,-0.1831054538488388,0.2441406100988388
1216236,0.044677734375,0.6712646484375,0.7550048828125,0.54931640625,-0.1831054538488388,0.2441406100988388
1216250,0.0445556640625,0.6734619140625,0.75634765625,0.6103515625,-0.1831054538488388,0.2441406100988388
1216304,0.044921875,0.6722412109375,0.758544921875,0.6103515625,-0.1831054538488388,0.1831054538488388
1216320,0.044677734375,0.671875,0.7568359375,0.6103515625,-0.1831054538488388,0.1831054538488388
1216337,0.04443359375,0.6717529296875,0.7537841796875,0.6713866591453552,-0.1831054538488388,0.2441406100988388
1216370,0.0460205078125,0.6715087890625,0.755615234375,0.6103515625,-0.1831054538488388,0.2441406100988388
1216387,0.045166015625,0.672119140625,0.7557373046875,0.54931640625,-0.1831054538488388,0.30517578125
1216404,0.044677734375,0.6719970703125,0.755126953125,0.6103515625,-0.1831054538488388,0.2441406100988388
1216436,0.045166015625,0.6727294921875,0.75634765625,0.6103515625,-0.1831054538488388,0.30517578125
1216484,0.0457763671875,0.673095703125,0.7550048828125,0.6103515625,-0.1831054538488388,0.2441406100988388
1216506,0.0455322265625,0.6722412109375,0.7545166015625,0.6713866591453552,-0.1831054538488388,0.2441406100988388
1216523,0.045654296875,0.6728515625,0.7557373046875,0.6103515625,-0.2441406100988388,0.2441406100988388
1216560,0.0438232421875,0.672607421875,0.757080078125,0.6103515625,-0.1831054538488388,0.1831054538488388
1216577,0.0452880859375,0.6724853515625,0.756591796875,0.54931640625,-0.1831054538488388,0.2441406100988388
1216593,0.04541015625,0.6722412109375,0.75537109375,0.6103515625,-0.1831054538488388,0.2441406100988388
1216610,0.045166015625,0.671142578125,0.7535400390625,0.6103515625,-0.1831054538488388,0.2441406100988388
1216627,0.0440673828125,0.6746826171875,0.75732421875,0.54931640625,-0.1831054538488388,0.2441406100988388
1216648,0.0445556640625,0.6728515625,0.7576904296875,0.6103515625,-0.1831054538488388,0.30517578125
1216664,0.045166015625,0.6727294921875,0.7568359375,0.54931640625,-0.2441406100988388,0.30517578125
1216681,0.0450439453125,0.6717529296875,0.7568359375,0.6713866591453552,-0.2441406100988388,0.2441406100988388
1216698,0.0447998046875,0.6707763671875,0.754150390625,0.6713866591453552,-0.1831054538488388,0.2441406100988388
1216731,0.045166015625,0.67236328125,0.7562255859375,0.6103515625,-0.2441406100988388,0.30517578125
1216748,0.043212890625,0.668212890625,0.751953125,0.6713866591453552,-0.2441406100988388,0.2441406100988388
1216764,0.0450439453125,0.6744384765625,0.755859375,0.6103515625,-0.1831054538488388,0.30517578125
1216796,0.0443115234375,0.671875,0.7537841796875,0.54931640625,-0.2441406100988388,0.30517578125
1216844,0.04541015625,0.6727294921875,0.7567138671875,0.6103515625,-0.2441406100988388,0.2441406100988388
1216866,0.044921875,0.674072265625,0.7568359375,0.6103515625,-0.1831054538488388,0.30517578125
1216883,0.0450439453125,0.673828125,0.755615234375,0.54931640625,-0.2441406100988388,0.1831054538488388
1216920,0.0455322265625,0.6756591796875,0.75830078125,0.6103515625,-0.2441406100988388,0.30517578125
1216953,0.043212890625,0.6712646484375,0.7559814453125,0.6103515625,-0.30517578125,0.30517578125
1216986,0.0452880859375,0.6666259765625,0.75,0.54931640625,-0.1831054538488388,0.2441406100988388
1217003,0.04541015625,0.6676025390625,0.7508544921875,0.54931640625,-0.2441406100988388,0.2441406100988388
1217040,0.0426025390625,0.6751708984375,0.7576904296875,0.6103515625,-0.1831054538488388,0.30517578125
1217057,0.044189453125,0.6673583984375,0.7503662109375,0.6103515625,-0.1831054538488388,0.30517578125
1217073,0.0460205078125,0.665283203125,0.748291015625,0.6103515625,-0.1831054538488388,0.30517578125
1217090,0.0452880859375,0.6710205078125,0.7532958984375,0.54931640625,-0.1831054538488388,0.2441406100988388
1217138,0.0447998046875,0.6734619140625,0.7569580078125,0.6103515625,-0.1220703050494194,0.1831054538488388
1217170,0.046142578125,0.67138671875,0.75439453125,0.54931640625,-0.2441406100988388,0.1831054538488388
1217187,0.04296875,0.670166015625,0.751708984375,0.6103515625,-0.1831054538488388,0.2441406100988388
1217203,0.0433349609375,0.6712646484375,0.753662109375,0.6103515625,-0.1831054538488388,0.30517578125
1217224,0.046630859375,0.6710205078125,0.7537841796875,0.6103515625,-0.1831054538488388,0.2441406100988388
1217240,0.045654296875,0.6729736328125,0.755126953125,0.6103515625,-0.2441406100988388,0.1831054538488388
1217257,0.0438232421875,0.6748046875,0.7596435546875,0.6713866591453552,-0.1831054538488388,0.2441406100988388
1217273,0.0440673828125,0.6746826171875,0.758544921875,0.6713866591453552,-0.1831054538488388,0.2441406100988388
1217289,0.046142578125,0.6712646484375,0.752685546875,0.6103515625,-0.1831054538488388,0.2441406100988388
1217305,0.044921875,0.6729736328125,0.755615234375,0.6103515625,-0.1831054538488388,0.2441406100988388
1217353,0.045654296875,0.6746826171875,0.7591552734375,0.6103515625,-0.1831054538488388,0.2441406100988388
1217409,0.04345703125,0.67431640625,0.7567138671875,0.6713866591453552,-0.2441406100988388,0.2441406100988388
1217429,0.0440673828125,0.6700439453125,0.752685546875,0.6103515625,-0.1831054538488388,0.2441406100988388
1217445,0.0465087890625,0.670166015625,0.7532958984375,0.6103515625,-0.2441406100988388,0.30517578125
1217462,0.045654296875,0.681396484375,0.764892578125,0.6103515625,-0.1831054538488388,0.30517578125
1217479,0.04150390625,0.6683349609375,0.74951171875,0.6103515625,-0.2441406100988388,0.2441406100988388
1217512,0.0479736328125,0.6707763671875,0.75439453125,0.54931640625,-0.1831054538488388,0.30517578125
1217529,0.044189453125,0.6763916015625,0.7608642578125,0.54931640625,-0.1831054538488388,0.2441406100988388
1217545,0.0401611328125,0.676025390625,0.760009765625,0.6103515625,-0.1220703050494194,0.1831054538488388
1217577,0.0506591796875,0.675537109375,0.7589111328125,0.54931640625,-0.2441406100988388,0.30517578125
1217593,0.04736328125,0.6759033203125,0.7591552734375,0.54931640625,-0.30517578125,0.30517578125
1217609,0.03955078125,0.67041015625,0.753662109375,0.54931640625,-0.1220703050494194,0.2441406100988388
1217625,0.0404052734375,0.6689453125,0.7523193359375,0.54931640625,-0.1220703050494194,0.1831054538488388
1217645,0.0479736328125,0.6739501953125,0.757568359375,0.6103515625,-0.1831054538488388,0.2441406100988388
1217667,0.0458984375,0.6705322265625,0.753173828125,0.6103515625,-0.1220703050494194,0.1831054538488388
1217683,0.041748046875,0.6751708984375,0.7569580078125,0.54931640625,-0.1831054538488388,0.2441406100988388
1217700,0.0455322265625,0.6749267578125,0.757568359375,0.6103515625,-0.2441406100988388,0.30517578125
1217750,0.045654296875,0.675048828125,0.7576904296875,0.54931640625,-0.1831054538488388,0.30517578125
1217767,0.04541015625,0.6739501953125,0.7552490234375,0.54931640625,-0.1831054538488388,0.30517578125
1217783,0.0447998046875,0.6732177734375,0.7552490234375,0.54931640625,-0.1220703050494194,0.1831054538488388
1217813,0.0438232421875,0.66943359375,0.754150390625,0.6103515625,-0.1831054538488388,0.1831054538488388
1217834,0.0445556640625,0.6754150390625,0.7601318359375,0.54931640625,-0.2441406100988388,0.30517578125
1217850,0.041748046875,0.671630859375,0.75341796875,0.54931640625,-0.1831054538488388,0.2441406100988388
1217867,0.042236328125,0.6712646484375,0.7525634765625,0.6103515625,-0.1831054538488388,0.2441406100988388
1217885,0.0458984375,0.6759033203125,0.758544921875,0.6103515625,-0.2441406100988388,0.30517578125
1217901,0.0443115234375,0.6710205078125,0.7540283203125,0.6103515625,-0.2441406100988388,0.30517578125
1217932,0.045166015625,0.6727294921875,0.7548828125,0.6713866591453552,-0.2441406100988388,0.30517578125
1217954,0.0457763671875,0.6719970703125,0.7547607421875,0.6103515625,-0.2441406100988388,0.30517578125
1217970,0.0428466796875,0.6717529296875,0.754638671875,0.6103515625,-0.2441406100988388,0.30517578125
1217987,0.04248046875,0.6734619140625,0.7564697265625,0.6103515625,-0.1831054538488388,0.30517578125
1218004,0.0455322265625,0.6732177734375,0.756103515625,0.6103515625,-0.1831054538488388,0.30517578125
1218020,0.0452880859375,0.67041015625,0.75439453125,0.6103515625,-0.1831054538488388,0.30517578125
1218054,0.0447998046875,0.6741943359375,0.7554931640625,0.54931640625,-0.1831054538488388,0.2441406100988388
1218070,0.0445556640625,0.6732177734375,0.7564697265625,0.54931640625,-0.1831054538488388,0.2441406100988388
1218086,0.043701171875,0.672119140625,0.7557373046875,0.54931640625,-0.1831054538488388,0.2441406100988388
1218122,0.044677734375,0.6729736328125,0.75537109375,0.6103515625,-0.1831054538488388,0.2441406100988388
1218139,0.0439453125,0.6712646484375,0.7545166015625,0.54931640625,-0.1831054538488388,0.2441406100988388
1218160,0.04443359375,0.6724853515625,0.7548828125,0.54931640625,-0.2441406100988388,0.2441406100988388
1218180,0.04541015625,0.6727294921875,0.755859375,0.54931640625,-0.2441406100988388,0.2441406100988388
1218196,0.0452880859375,0.6732177734375,0.756103515625,0.6103515625,-0.1831054538488388,0.2441406100988388
1218213,0.0445556640625,0.6728515625,0.7550048828125,0.6103515625,-0.1831054538488388,0.2441406100988388
1218230,0.045654296875,0.6722412109375,0.7552490234375,0.6103515625,-0.1831054538488388,0.30517578125
1218246,0.04541015625,0.67138671875,0.754150390625,0.54931640625,-0.1831054538488388,0.2441406100988388
1218263,0.043212890625,0.6728515625,0.75732421875,0.6103515625,-0.1831054538488388,0.2441406100988388
1218294,0.0447998046875,0.6722412109375,0.7545166015625,0.54931640625,-0.1831054538488388,0.2441406100988388
1218315,0.045166015625,0.67236328125,0.755126953125,0.6103515625,-0.2441406100988388,0.2441406100988388
1218331,0.0447998046875,0.672119140625,0.755126953125,0.6103515625,-0.1831054538488388,0.2441406100988388
1218348,0.044189453125,0.6728515625,0.755859375,0.54931640625,-0.1831054538488388,0.30517578125
1218365,0.043701171875,0.67138671875,0.7550048828125,0.54931640625,-0.2441406100988388,0.30517578125
1218381,0.04541015625,0.6724853515625,0.7542724609375,0.54931640625,-0.2441406100988388,0.30517578125
1218412,0.04345703125,0.672119140625,0.7572021484375,0.6103515625,-0.2441406100988388,0.2441406100988388
1218434,0.0428466796875,0.672119140625,0.7547607421875,0.6103515625,-0.1831054538488388,0.30517578125
1218454,0.045654296875,0.6719970703125,0.755859375,0.6103515625,-0.1831054538488388,0.30517578125
1218470,0.0455322265625,0.672119140625,0.7557373046875,0.54931640625,-0.2441406100988388,0.2441406100988388
1218491,0.0440673828125,0.6712646484375,0.7547607421875,0.6103515625,-0.2441406100988388,0.30517578125
1218512,0.043212890625,0.674072265625,0.7574462890625,0.6713866591453552,-0.2441406100988388,0.2441406100988388
1218528,0.0452880859375,0.67041015625,0.7535400390625,0.6103515625,-0.1831054538488388,0.2441406100988388
1218545,0.0445556640625,0.6732177734375,0.7574462890625,0.6103515625,-0.1831054538488388,0.30517578125
1218562,0.0430908203125,0.671142578125,0.7537841796875,0.6713866591453552,-0.1831054538488388,0.30517578125
1218602,0.0460205078125,0.674560546875,0.7530517578125,0.7324218153953552,-0.30517578125,0.2441406100988388
1218624,0.045654296875,0.674072265625,0.752685546875,0.8544921278953552,-0.2441406100988388,0.2441406100988388
1218640,0.044189453125,0.6719970703125,0.755859375,0.9155272841453552,-0.1831054538488388,0.2441406100988388
1218661,0.045654296875,0.6724853515625,0.756591796875,0.9155272841453552,-0.2441406100988388,0.2441406100988388
1218678,0.0460205078125,0.6728515625,0.75732421875,0.9765624403953552,-0.1831054538488388,0.1831054538488388
1218694,0.044921875,0.67236328125,0.7532958984375,0.9765624403953552,-0.2441406100988388,0.1831054538488388
1218711,0.0440673828125,0.6728515625,0.754638671875,1.220703125,-0.2441406100988388,0.2441406100988388
1218727,0.0443115234375,0.673095703125,0.754150390625,1.2817381620407104,-0.2441406100988388,0.1831054538488388
1218744,0.0447998046875,0.6756591796875,0.7532958984375,1.7089842557907104,-0.2441406100988388,0.1220703050494194
1218777,0.0447998046875,0.6767578125,0.7515869140625,2.50244140625,-0.2441406100988388,0.1220703050494194
1218798,0.044677734375,0.6768798828125,0.751953125,3.051757574081421,-0.30517578125,0.1831054538488388
1218814,0.042236328125,0.6739501953125,0.7532958984375,3.356933355331421,-0.3662109076976776,0.1831054538488388
1218831,0.0426025390625,0.67333984375,0.753173828125,3.784179449081421,-0.30517578125,0.1220703050494194
1218897,0.044677734375,0.663330078125,0.76513671875,3.967284917831421,-0.30517578125,0.0610351525247097
1218930,0.042236328125,0.6614990234375,0.76513671875,3.540038824081421,-0.2441406100988388,0.1831054538488388
1218979,0.052001953125,0.6600341796875,0.7669677734375,2.990722417831421,-0.4272460639476776,0.0610351525247097
1219024,0.04052734375,0.6669921875,0.7615966796875,4.0283203125,-0.2441406100988388,0.1220703050494194
1219041,0.045166015625,0.663818359375,0.7608642578125,4.5166015625,-0.1831054538488388,0.1220703050494194
1219072,0.044189453125,0.66650390625,0.76708984375,5.0048828125,-0.3662109076976776,0.0610351525247097
1219088,0.041748046875,0.6658935546875,0.762939453125,5.310058116912842,-0.2441406100988388,-0.0610351525247097
1219105,0.04296875,0.6568603515625,0.7626953125,5.615233898162842,-0.1220703050494194,0.0
1219137,0.0438232421875,0.6495361328125,0.765380859375,5.859374523162842,0.1220703050494194,-0.54931640625
1219153,0.045654296875,0.6585693359375,0.754638671875,6.652831554412842,1.03759765625,-1.9531248807907104
1219169,0.04638671875,0.684326171875,0.7392578125,7.629394054412842,2.0751953125,-2.685546636581421
1219185,0.0615234375,0.7568359375,0.7994384765625,10.253905296325684,5.187987804412842,-4.69970703125
1219204,0.07666015625,0.8770751953125,1.018798828125,11.230467796325684,3.601073980331421,-4.94384765625
1219225,0.09326171875,1.060546875,1.169921875,12.573241233825684,0.3662109076976776,-2.38037109375
1219274,0.081787109375,0.8785400390625,1.051025390625,20.629880905151367,-1.7089842557907104,0.6713866591453552
1219329,0.0355224609375,0.8643798828125,1.009765625,18.49365234375,-0.4272460639476776,-0.1220703050494194
1219346,0.0494384765625,0.8516845703125,1.04443359375,17.2119140625,-0.0610351525247097,-0.2441406100988388
1219363,0.05322265625,0.8712158203125,1.0760498046875,16.05224609375,0.4272460639476776,-0.4272460639476776
1219383,0.0489501953125,0.83349609375,1.1195068359375,13.732909202575684,-0.0610351525247097,0.0
1219400,0.0445556640625,0.820068359375,1.1004638671875,12.207030296325684,0.0610351525247097,-0.2441406100988388
1219416,0.0406494140625,0.80908203125,1.1070556640625,10.070799827575684,0.1831054538488388,-0.7324218153953552
1219433,0.0301513671875,0.8011474609375,1.0472412109375,9.33837890625,0.4272460639476776,-0.8544921278953552
1219449,0.0279541015625,0.778564453125,1.03125,8.85009765625,1.7700194120407104,-1.4648436307907104
1219465,0.03369140625,0.768310546875,1.0294189453125,7.507323741912842,3.173827886581421,-2.13623046875
1219497,0.0516357421875,0.7156982421875,0.984375,4.638671875,5.249022960662842,-3.479003667831421
1219545,0.113525390625,0.74755859375,1.082763671875,-0.8544921278953552,5.249022960662842,-3.845214605331421
1219566,0.1260986328125,0.795654296875,1.0899658203125,-1.220703125,4.69970703125,-3.540038824081421
1219583,0.135986328125,0.8203125,1.13525390625,-1.8920897245407104,2.990722417831421,-1.9531248807907104
1219616,0.1226806640625,0.7677001953125,1.037353515625,-3.417968511581421,-3.356933355331421,2.746581792831421
1219649,0.099853515625,0.7039794921875,0.9083251953125,-4.150390625,-6.652831554412842,5.676269054412842
1219691,0.0513916015625,0.5223388671875,0.6654052734375,-4.69970703125,-10.375975608825684,9.1552734375
1219708,0.0306396484375,0.4176025390625,0.5445556640625,-5.187987804412842,-10.375975608825684,9.33837890625
1219725,0.0260009765625,0.397705078125,0.5311279296875,-6.408690929412842,-9.70458984375,8.97216796875
1219775,0.025634765625,0.3787841796875,0.51220703125,-8.30078125,-8.72802734375,8.23974609375
1219806,0.017333984375,0.319580078125,0.4365234375,-8.48388671875,-8.48388671875,8.1787109375
1219823,0.0147705078125,0.2955322265625,0.41064453125,-9.27734375,-7.629394054412842,7.507323741912842
1219856,0.0252685546875,0.2784423828125,0.39453125,-11.413573265075684,-5.920409679412842,6.469726085662842
1219873,0.023681640625,0.2724609375,0.387451171875,-12.084959983825684,-5.737304210662842,6.347655773162842
1219889,0.0167236328125,0.244384765625,0.367919921875,-13.427733421325684,-5.0048828125,5.798339366912842
1219905,0.013427734375,0.2410888671875,0.362548828125,-15.136717796325684,-3.662109136581421,4.8828125
1219925,0.0106201171875,0.28564453125,0.3919677734375,-16.66259765625,-2.685546636581421,4.150390625
1219947,0.005126953125,0.3017578125,0.3985595703125,-17.2119140625,-2.25830078125,4.0283203125
1219963,-0.015869140625,0.2974853515625,0.3919677734375,-18.61572265625,-0.7324218153953552,3.234863042831421
1219980,-0.0302734375,0.32568359375,0.433349609375,-20.080564498901367,0.9765624403953552,1.8920897245407104
1219997,-0.0318603515625,0.3878173828125,0.4908447265625,-20.629880905151367,1.7089842557907104,1.0986328125
1220030,-0.01171875,0.5367431640625,0.607666015625,-20.568845748901367,3.662109136581421,-0.1220703050494194
1220047,-0.0111083984375,0.5750732421875,0.6397705078125,-18.98193359375,4.45556640625,-0.7324218153953552
1220063,-0.0106201171875,0.597412109375,0.662353515625,-17.9443359375,4.7607421875,-1.03759765625
1220092,0.0084228515625,0.68212890625,0.736572265625,-14.099120140075684,5.554198741912842,-1.7089842557907104
1220114,0.0113525390625,0.6966552734375,0.7626953125,-11.169432640075684,5.615233898162842,-2.0751953125
1220130,0.0147705078125,0.7327880859375,0.7955322265625,-8.30078125,5.249022960662842,-1.8920897245407104
1220147,0.0150146484375,0.753173828125,0.80419921875,-6.774901866912842,4.94384765625,-1.7700194120407104
1220213,0.0181884765625,0.692138671875,0.7762451171875,1.7089842557907104,3.356933355331421,0.7934569716453552
1220230,0.0125732421875,0.634521484375,0.740234375,3.234863042831421,2.990722417831421,1.03759765625
1220250,0.0135498046875,0.6453857421875,0.7435302734375,5.065917491912842,2.807616949081421,0.9155272841453552
1220266,0.014892578125,0.68212890625,0.7569580078125,7.568358898162842,2.44140625,1.7700194120407104
1220286,0.0048828125,0.635986328125,0.7406005859375,10.314940452575684,2.01416015625,2.0751953125
1220302,0.00244140625,0.6240234375,0.7264404296875,11.535643577575684,2.25830078125,1.7089842557907104
1220334,0.01708984375,0.6585693359375,0.7554931640625,15.075682640075684,2.685546636581421,1.7089842557907104
1220350,0.0264892578125,0.6785888671875,0.7705078125,16.7236328125,2.807616949081421,1.5869139432907104
1220366,0.0389404296875,0.7071533203125,0.8055419921875,17.63916015625,2.746581792831421,1.5869139432907104
1220402,0.0474853515625,0.6922607421875,0.8011474609375,21.728513717651367,1.8920897245407104,2.624511480331421
1220418,0.0426025390625,0.6612548828125,0.7730712890625,23.681638717651367,1.9531248807907104,2.563476324081421
1220434,0.0426025390625,0.6474609375,0.7740478515625,24.475095748901367,2.01416015625,2.44140625
1220450,0.040283203125,0.641357421875,0.776123046875,25.939939498901367,2.0751953125,2.0751953125
1220472,0.03759765625,0.6494140625,0.793701171875,26.977537155151367,2.44140625,1.7700194120407104
1220488,0.0335693359375,0.653076171875,0.807861328125,27.465818405151367,2.3193359375,1.8310545682907104
1220505,0.029296875,0.62744140625,0.806396484375,27.526853561401367,2.3193359375,2.0751953125
1220522,0.025390625,0.600341796875,0.79248046875,26.428220748901367,2.563476324081421,1.8310545682907104
1220538,0.0313720703125,0.5771484375,0.79052734375,25.573728561401367,2.868652105331421,1.5869139432907104
1220572,0.04833984375,0.58447265625,0.8216552734375,20.141599655151367,3.356933355331421,1.2817381620407104
1220588,0.043701171875,0.5726318359375,0.8104248046875,16.845703125,3.295898199081421,1.3427733182907104
1220635,0.0419921875,0.53369140625,0.78173828125,10.437010765075684,3.540038824081421,1.03759765625
1220657,0.045654296875,0.5399169921875,0.781494140625,7.995604991912842,3.479003667831421,1.03759765625
1220673,0.041015625,0.5130615234375,0.7613525390625,6.042479991912842,3.784179449081421,0.6103515625
1220690,0.0386962890625,0.549560546875,0.7825927734375,5.249022960662842,4.0283203125,0.30517578125
1220707,0.039306640625,0.5565185546875,0.8048095703125,4.08935546875,4.2724609375,0.2441406100988388
1220723,0.0421142578125,0.58544921875,0.8355712890625,2.868652105331421,4.2724609375,0.1220703050494194
1220757,0.0462646484375,0.6314697265625,0.883056640625,1.4038084745407104,3.784179449081421,0.4272460639476776
1220773,0.046630859375,0.630615234375,0.892333984375,0.4882812201976776,3.540038824081421,0.8544921278953552
1220789,0.0457763671875,0.6409912109375,0.9005126953125,-0.4882812201976776,3.112792730331421,1.15966796875
1220805,0.0439453125,0.635009765625,0.90966796875,-1.2817381620407104,2.868652105331421,1.4038084745407104
1220880,0.023193359375,0.595947265625,0.845458984375,-5.493163585662842,1.3427733182907104,2.3193359375
1220897,0.0216064453125,0.577880859375,0.82373046875,-6.164550304412842,1.15966796875,2.3193359375
1220913,0.0245361328125,0.5673828125,0.81298828125,-6.835937023162842,1.15966796875,2.13623046875
1220930,0.02880859375,0.5670166015625,0.811279296875,-7.934569835662842,0.9765624403953552,2.197265625
1220946,0.02978515625,0.5556640625,0.8021240234375,-8.4228515625,0.9765624403953552,2.0751953125
1220963,0.0355224609375,0.5745849609375,0.81201171875,-9.3994140625,0.8544921278953552,1.9531248807907104
1220993,0.03955078125,0.583251953125,0.8055419921875,-9.70458984375,0.6713866591453552,1.7700194120407104
1221014,0.043212890625,0.60107421875,0.8255615234375,-9.521484375,0.4272460639476776,1.7089842557907104
1221030,0.0433349609375,0.613037109375,0.828125,-9.33837890625,0.2441406100988388,1.6479490995407104
1221047,0.0430908203125,0.6177978515625,0.833984375,-8.9111328125,0.1220703050494194,1.6479490995407104
1221064,0.0406494140625,0.6318359375,0.833740234375,-8.48388671875,-0.1831054538488388,1.7089842557907104
1221080,0.0357666015625,0.618408203125,0.820068359375,-8.36181640625,-0.2441406100988388,1.7700194120407104
1221114,0.0318603515625,0.622802734375,0.818115234375,-7.873534679412842,-0.3662109076976776,1.5869139432907104
1221130,0.02978515625,0.612548828125,0.8055419921875,-7.873534679412842,-0.30517578125,1.4038084745407104
1221146,0.0296630859375,0.6063232421875,0.798095703125,-7.934569835662842,-0.1831054538488388,1.3427733182907104
1221194,0.0394287109375,0.59912109375,0.78955078125,-8.11767578125,-0.0610351525247097,1.03759765625
1221246,0.0472412109375,0.6036376953125,0.7808837890625,-7.080077648162842,-0.1220703050494194,0.9155272841453552
1221263,0.0479736328125,0.6085205078125,0.78564453125,-6.774901866912842,-0.1220703050494194,0.8544921278953552
1221300,0.046630859375,0.582275390625,0.76025390625,-5.432128429412842,-0.6103515625,1.03759765625
1221317,0.0460205078125,0.57373046875,0.7542724609375,-4.638671875,-0.7324218153953552,0.9155272841453552
1221333,0.044677734375,0.5614013671875,0.7435302734375,-4.0283203125,-0.7934569716453552,0.8544921278953552
1221350,0.0394287109375,0.53076171875,0.717529296875,-3.295898199081421,-0.8544921278953552,0.7934569716453552
1221367,0.03759765625,0.52099609375,0.70654296875,-2.990722417831421,-0.8544921278953552,0.7324218153953552
1221388,0.0325927734375,0.48779296875,0.682373046875,-2.624511480331421,-0.6713866591453552,0.3662109076976776
1221404,0.028564453125,0.49365234375,0.681640625,-2.563476324081421,-0.4882812201976776,-0.0610351525247097
1221421,0.0347900390625,0.5242919921875,0.726318359375,-2.3193359375,0.0,-0.6713866591453552
1221442,0.0389404296875,0.5452880859375,0.743408203125,-1.9531248807907104,-0.1220703050494194,-0.8544921278953552
1221472,0.053955078125,0.5789794921875,0.7830810546875,-0.54931640625,-0.4272460639476776,-1.03759765625
1221489,0.056884765625,0.5810546875,0.7921142578125,-0.1831054538488388,-0.6713866591453552,-1.03759765625
1221505,0.0574951171875,0.576171875,0.7838134765625,0.54931640625,-1.0986328125,-0.9765624403953552
1221536,0.0518798828125,0.5462646484375,0.7451171875,1.4648436307907104,-1.5258787870407104,-1.03759765625
1221558,0.04296875,0.50537109375,0.693115234375,1.7089842557907104,-1.5869139432907104,-1.15966796875
1221574,0.037109375,0.4793701171875,0.656005859375,1.6479490995407104,-1.4038084745407104,-1.4648436307907104
1221591,0.0413818359375,0.5040283203125,0.697998046875,1.0986328125,-0.6713866591453552,-2.13623046875
1221608,0.045654296875,0.5401611328125,0.7305908203125,0.6713866591453552,-0.7324218153953552,-2.38037109375
1221624,0.049072265625,0.582763671875,0.7559814453125,0.6713866591453552,-1.220703125,-2.13623046875
1221662,0.0316162109375,0.4664306640625,0.5726318359375,0.1220703050494194,-1.7089842557907104,-1.220703125
1221678,0.0306396484375,0.4705810546875,0.5689697265625,-0.4882812201976776,-0.6713866591453552,-1.8310545682907104
1221694,0.048583984375,0.562255859375,0.740234375,-0.9765624403953552,0.30517578125,-2.563476324081421
1221710,0.051513671875,0.65185546875,0.8572998046875,-0.6103515625,-0.54931640625,-2.25830078125
1221732,0.04541015625,0.640380859375,0.831787109375,0.7934569716453552,-2.624511480331421,-1.3427733182907104
1221748,0.0286865234375,0.580810546875,0.7005615234375,2.38037109375,-2.868652105331421,-1.220703125
1221765,0.025146484375,0.5435791015625,0.635498046875,2.685546636581421,-2.3193359375,-1.7089842557907104
1221782,0.0362548828125,0.56396484375,0.6768798828125,2.868652105331421,-1.220703125,-2.3193359375
1221798,0.039306640625,0.572021484375,0.7088623046875,2.685546636581421,-1.15966796875,-2.44140625
1221831,0.0357666015625,0.6058349609375,0.7313232421875,3.173827886581421,-1.8310545682907104,-2.13623046875
1221848,0.0303955078125,0.5908203125,0.69091796875,3.173827886581421,-1.7700194120407104,-1.9531248807907104
1221864,0.026123046875,0.5506591796875,0.6549072265625,3.356933355331421,-0.8544921278953552,-2.746581792831421
1221893,0.04052734375,0.62451171875,0.7479248046875,4.150390625,-0.4272460639476776,-3.417968511581421
1221915,0.0450439453125,0.6502685546875,0.767822265625,4.94384765625,-0.8544921278953552,-3.356933355331421
1221931,0.048828125,0.6533203125,0.754150390625,6.652831554412842,-1.4648436307907104,-2.990722417831421
1221948,0.0501708984375,0.6405029296875,0.7122802734375,8.1787109375,-1.5258787870407104,-2.929687261581421
1221965,0.0501708984375,0.6116943359375,0.6983642578125,8.4228515625,-1.3427733182907104,-2.990722417831421
1221981,0.0501708984375,0.63037109375,0.7342529296875,8.7890625,-0.9765624403953552,-3.356933355331421
1222012,0.0521240234375,0.68603515625,0.8035888671875,10.131834983825684,-1.5258787870407104,-3.173827886581421
1222034,0.0545654296875,0.69921875,0.8182373046875,10.803221702575684,-1.9531248807907104,-2.929687261581421
1222050,0.0513916015625,0.690673828125,0.7835693359375,12.023924827575684,-2.50244140625,-2.38037109375
1222067,0.0421142578125,0.65478515625,0.74365234375,13.061522483825684,-2.50244140625,-2.3193359375
1222084,0.039306640625,0.6229248046875,0.7237548828125,13.244627952575684,-2.3193359375,-2.25830078125
1222100,0.038330078125,0.610107421875,0.719970703125,13.061522483825684,-1.7089842557907104,-2.624511480331421
1222132,0.043701171875,0.685546875,0.7947998046875,13.183592796325684,-1.15966796875,-3.295898199081421
1222148,0.05029296875,0.722412109375,0.8333740234375,14.465331077575684,-0.6713866591453552,-3.723144292831421
1222164,0.0626220703125,0.7353515625,0.89208984375,15.991209983825684,-0.9155272841453552,-3.173827886581421
1222193,0.06640625,0.669677734375,0.8441162109375,16.66259765625,-0.6103515625,-3.417968511581421
1222215,0.0699462890625,0.661865234375,0.8642578125,16.41845703125,-0.4882812201976776,-3.723144292831421
1222231,0.06201171875,0.6585693359375,0.8798828125,15.075682640075684,-0.30517578125,-3.662109136581421
1222248,0.0537109375,0.669921875,0.919677734375,14.160155296325684,-0.4882812201976776,-3.784179449081421
1222265,0.05078125,0.6807861328125,0.9356689453125,13.549803733825684,-0.54931640625,-3.601073980331421
1222281,0.0517578125,0.679931640625,0.9376220703125,12.390135765075684,-0.9765624403953552,-3.173827886581421
1222311,0.0433349609375,0.623291015625,0.91796875,10.253905296325684,-0.4882812201976776,-3.112792730331421
1222328,0.043701171875,0.641845703125,0.94140625,8.6669921875,-0.4882812201976776,-3.356933355331421
1222344,0.039306640625,0.6322021484375,0.929443359375,6.835937023162842,-0.9765624403953552,-2.929687261581421
1222376,0.0357666015625,0.59619140625,0.8875732421875,4.08935546875,-0.3662109076976776,-3.173827886581421
1222392,0.0380859375,0.6270751953125,0.927490234375,3.173827886581421,-0.0610351525247097,-3.295898199081421
1222408,0.039306640625,0.634521484375,0.952880859375,2.13623046875,0.0,-3.295898199081421
1222424,0.0494384765625,0.671142578125,0.9840087890625,1.15966796875,-0.4882812201976776,-3.173827886581421
1222449,0.0556640625,0.6614990234375,0.9508056640625,0.6103515625,-0.9765624403953552,-2.868652105331421
1222465,0.0570068359375,0.6455078125,0.9083251953125,0.1220703050494194,-0.7934569716453552,-2.807616949081421
1222482,0.057861328125,0.635986328125,0.8994140625,-1.220703125,-0.3662109076976776,-2.868652105331421
1222500,0.0596923828125,0.6357421875,0.909423828125,-2.807616949081421,-0.0610351525247097,-2.868652105331421
1222516,0.05517578125,0.6207275390625,0.88916015625,-3.601073980331421,-0.2441406100988388,-2.685546636581421
1222550,0.0548095703125,0.5955810546875,0.8582763671875,-5.981444835662842,0.4882812201976776,-2.990722417831421
1222567,0.072998046875,0.641357421875,0.9227294921875,-6.469726085662842,0.8544921278953552,-3.173827886581421
1222588,0.0859375,0.6859130859375,0.983642578125,-6.591796398162842,0.30517578125,-2.746581792831421
1222604,0.0843505859375,0.6678466796875,0.9481201171875,-6.530761241912842,-0.7934569716453552,-1.8920897245407104
1222621,0.083984375,0.6688232421875,0.9337158203125,-6.347655773162842,-1.2817381620407104,-1.5258787870407104
1222638,0.07763671875,0.6412353515625,0.8897705078125,-6.408690929412842,-1.4038084745407104,-1.220703125
1222671,0.0716552734375,0.6263427734375,0.8853759765625,-6.958007335662842,-1.4648436307907104,-0.9765624403953552
1222687,0.0701904296875,0.6412353515625,0.889404296875,-6.896972179412842,-1.5869139432907104,-0.7934569716453552
1222734,0.0582275390625,0.608642578125,0.847412109375,-6.469726085662842,-1.8310545682907104,-0.1220703050494194
1222755,0.056396484375,0.60107421875,0.84521484375,-6.286620616912842,-1.4648436307907104,-0.2441406100988388
1222771,0.0565185546875,0.6029052734375,0.8502197265625,-5.981444835662842,-1.2817381620407104,-0.3662109076976776
1222788,0.056640625,0.6026611328125,0.842529296875,-5.676269054412842,-1.2817381620407104,-0.30517578125
1222805,0.064208984375,0.6287841796875,0.868408203125,-4.8828125,-0.9155272841453552,-0.54931640625
1222821,0.11279296875,0.7880859375,1.097412109375,-2.807616949081421,-1.220703125,-0.30517578125
1222852,0.0521240234375,0.547607421875,0.7352294921875,2.13623046875,-8.85009765625,5.0048828125
1222874,0.019287109375,0.502685546875,0.6549072265625,3.356933355331421,-6.652831554412842,3.723144292831421
1222890,0.0404052734375,0.56201171875,0.8121337890625,3.356933355331421,-6.469726085662842,3.662109136581421
1222907,0.03955078125,0.56640625,0.7825927734375,3.112792730331421,-6.652831554412842,3.662109136581421
1222924,0.0335693359375,0.5457763671875,0.7626953125,4.638671875,-6.164550304412842,3.417968511581421
1222940,0.020263671875,0.535400390625,0.739990234375,4.57763671875,-5.0048828125,2.50244140625
1222973,0.00439453125,0.439453125,0.6380615234375,2.685546636581421,1.7700194120407104,-2.3193359375
1223042,0.091064453125,0.7713623046875,1.010986328125,0.54931640625,1.8920897245407104,-1.9531248807907104
1223058,0.1583251953125,1.084228515625,1.4095458984375,-3.417968511581421,-4.2724609375,3.356933355331421
1223106,0.046630859375,0.630126953125,0.9619140625,-2.807616949081421,1.5258787870407104,-0.1831054538488388
1223166,0.04345703125,0.66259765625,0.8516845703125,-5.249022960662842,0.1220703050494194,-0.1220703050494194
1223183,0.052978515625,0.7154541015625,0.92529296875,-5.126952648162842,-0.6103515625,1.15966796875
1223216,0.046142578125,0.56591796875,0.8431396484375,-6.652831554412842,-0.1220703050494194,0.6713866591453552
1223232,0.0494384765625,0.5975341796875,0.8829345703125,-7.202147960662842,-0.30517578125,0.6713866591453552
1223249,0.0487060546875,0.5845947265625,0.7913818359375,-7.873534679412842,-0.4882812201976776,0.54931640625
1223265,0.046142578125,0.640625,0.802978515625,-7.690429210662842,-0.30517578125,0.54931640625
1223285,0.042236328125,0.6256103515625,0.8001708984375,-6.835937023162842,-0.1831054538488388,0.9765624403953552
1223301,0.04248046875,0.60791015625,0.80126953125,-6.408690929412842,0.0,0.9155272841453552
1223317,0.044921875,0.599365234375,0.81103515625,-6.225585460662842,-0.1220703050494194,0.6713866591453552
1223333,0.0467529296875,0.6025390625,0.80517578125,-6.103515148162842,-0.1831054538488388,0.6103515625
1223349,0.0462646484375,0.622802734375,0.8009033203125,-5.676269054412842,-0.30517578125,0.6103515625
1223365,0.0452880859375,0.637451171875,0.7947998046875,-5.249022960662842,-0.1831054538488388,0.6103515625
1223398,0.046630859375,0.618408203125,0.7991943359375,-4.08935546875,-0.1220703050494194,0.6103515625
1223419,0.04443359375,0.6134033203125,0.801025390625,-4.0283203125,-0.1831054538488388,0.54931640625
1223435,0.045654296875,0.620849609375,0.802734375,-3.784179449081421,-0.1831054538488388,0.4272460639476776
1223450,0.047607421875,0.6300048828125,0.7901611328125,-3.173827886581421,-0.2441406100988388,0.3662109076976776
1223466,0.045654296875,0.63916015625,0.7935791015625,-2.746581792831421,-0.2441406100988388,0.4272460639476776
1223483,0.04443359375,0.6304931640625,0.790771484375,-1.9531248807907104,-0.1220703050494194,0.54931640625
1223513,0.0445556640625,0.6226806640625,0.7984619140625,-1.4038084745407104,-0.30517578125,0.4882812201976776
1223529,0.0457763671875,0.62548828125,0.795654296875,-1.03759765625,-0.2441406100988388,0.3662109076976776
1223545,0.0462646484375,0.627685546875,0.7923583984375,-0.7934569716453552,-0.2441406100988388,0.4272460639476776
1223577,0.0447998046875,0.6317138671875,0.798583984375,-0.0610351525247097,-0.1831054538488388,0.3662109076976776
1223593,0.045166015625,0.62548828125,0.798583984375,0.0610351525247097,-0.2441406100988388,0.3662109076976776
1223609,0.045166015625,0.6241455078125,0.798583984375,0.0610351525247097,-0.1831054538488388,0.30517578125
1223657,0.0445556640625,0.627685546875,0.79345703125,0.2441406100988388,-0.2441406100988388,0.2441406100988388
1223709,0.0455322265625,0.6263427734375,0.7960205078125,0.6103515625,-0.1831054538488388,0.30517578125
1223726,0.046875,0.62939453125,0.7958984375,0.7934569716453552,-0.30517578125,0.1831054538488388
1223743,0.0455322265625,0.630859375,0.79150390625,1.0986328125,-0.2441406100988388,0.1831054538488388
1223763,0.0443115234375,0.62841796875,0.7950439453125,1.4648436307907104,-0.2441406100988388,0.1831054538488388
1223780,0.04638671875,0.6240234375,0.7969970703125,1.5869139432907104,-0.30517578125,0.2441406100988388
1223796,0.046142578125,0.6239013671875,0.7974853515625,1.5869139432907104,-0.30517578125,0.1831054538488388
1223813,0.044677734375,0.6256103515625,0.799072265625,1.5258787870407104,-0.2441406100988388,0.1831054538488388
1223829,0.0447998046875,0.6243896484375,0.79541015625,1.5258787870407104,-0.1831054538488388,0.2441406100988388
1223845,0.04541015625,0.6226806640625,0.7955322265625,1.5258787870407104,-0.1831054538488388,0.1831054538488388
1223877,0.044677734375,0.62060546875,0.8011474609375,1.220703125,-0.1831054538488388,0.2441406100988388
1223893,0.0435791015625,0.62158203125,0.80126953125,0.9765624403953552,-0.1831054538488388,0.2441406100988388
1223909,0.0445556640625,0.62109375,0.798828125,0.8544921278953552,-0.1831054538488388,0.1831054538488388
1223925,0.045654296875,0.6214599609375,0.7979736328125,0.7324218153953552,-0.1831054538488388,0.1831054538488388
1223950,0.0460205078125,0.6199951171875,0.798583984375,0.6103515625,-0.2441406100988388,0.2441406100988388
1223966,0.044189453125,0.6202392578125,0.800537109375,0.3662109076976776,-0.2441406100988388,0.2441406100988388
1223987,0.0438232421875,0.62158203125,0.8001708984375,0.1831054538488388,-0.2441406100988388,0.30517578125
1224007,0.04541015625,0.623291015625,0.7991943359375,0.0,-0.1831054538488388,0.2441406100988388
1224024,0.046630859375,0.623291015625,0.7996826171875,-0.0610351525247097,-0.1831054538488388,0.2441406100988388
1224061,0.044921875,0.6212158203125,0.7962646484375,-0.1831054538488388,-0.2441406100988388,0.30517578125
1224078,0.04345703125,0.625244140625,0.7994384765625,-0.2441406100988388,-0.2441406100988388,0.2441406100988388
1224094,0.0445556640625,0.625,0.800048828125,-0.2441406100988388,-0.1831054538488388,0.2441406100988388
1224110,0.046142578125,0.6241455078125,0.7989501953125,-0.30517578125,-0.1831054538488388,0.2441406100988388
1224127,0.0465087890625,0.6246337890625,0.7987060546875,-0.30517578125,-0.1831054538488388,0.30517578125
1224148,0.046142578125,0.623046875,0.7958984375,-0.30517578125,-0.1831054538488388,0.2441406100988388
1224164,0.0443115234375,0.6260986328125,0.7987060546875,-0.4272460639476776,-0.1831054538488388,0.30517578125
1224181,0.0465087890625,0.6248779296875,0.796142578125,-0.3662109076976776,-0.1831054538488388,0.30517578125
1224198,0.047119140625,0.6253662109375,0.797119140625,-0.3662109076976776,-0.1831054538488388,0.2441406100988388
1224231,0.044921875,0.6259765625,0.795654296875,-0.30517578125,-0.1831054538488388,0.30517578125
1224248,0.0458984375,0.625244140625,0.7960205078125,-0.3662109076976776,-0.1831054538488388,0.30517578125
1224265,0.0458984375,0.6260986328125,0.7955322265625,-0.4272460639476776,-0.2441406100988388,0.30517578125
1224286,0.0450439453125,0.6297607421875,0.7974853515625,-0.30517578125,-0.1831054538488388,0.30517578125
1224303,0.0450439453125,0.627685546875,0.795166015625,-0.30517578125,-0.1831054538488388,0.30517578125
1224320,0.0447998046875,0.62841796875,0.79541015625,-0.2441406100988388,-0.2441406100988388,0.2441406100988388
1224353,0.0452880859375,0.6295166015625,0.7930908203125,0.0,-0.2441406100988388,0.30517578125
1224370,0.04541015625,0.6275634765625,0.795166015625,0.1220703050494194,-0.1831054538488388,0.2441406100988388
1224387,0.0452880859375,0.6290283203125,0.7967529296875,0.0610351525247097,-0.1831054538488388,0.2441406100988388
1224403,0.04638671875,0.6285400390625,0.792236328125,0.1831054538488388,-0.2441406100988388,0.2441406100988388
1224423,0.0450439453125,0.6309814453125,0.79296875,0.30517578125,-0.1831054538488388,0.30517578125
1224445,0.045654296875,0.629638671875,0.79345703125,0.4272460639476776,-0.1831054538488388,0.2441406100988388
1224461,0.045654296875,0.62939453125,0.792724609375,0.6103515625,-0.1831054538488388,0.30517578125
1224511,0.0439453125,0.62890625,0.793701171875,0.9155272841453552,-0.1831054538488388,0.2441406100988388
1224545,0.044677734375,0.6282958984375,0.7955322265625,0.9765624403953552,-0.1831054538488388,0.2441406100988388
1224562,0.044677734375,0.6265869140625,0.7947998046875,1.03759765625,-0.1831054538488388,0.2441406100988388
1224595,0.045654296875,0.6268310546875,0.7950439453125,0.9765624403953552,-0.1831054538488388,0.2441406100988388
1224612,0.044921875,0.6282958984375,0.7962646484375,0.9765624403953552,-0.1831054538488388,0.2441406100988388
1224628,0.045166015625,0.6279296875,0.7960205078125,0.9155272841453552,-0.1831054538488388,0.2441406100988388
1224645,0.045654296875,0.62841796875,0.7950439453125,1.03759765625,-0.1831054538488388,0.2441406100988388
1224665,0.046630859375,0.6298828125,0.793701171875,1.2817381620407104,-0.2441406100988388,0.2441406100988388
1224681,0.043701171875,0.6309814453125,0.7945556640625,1.5258787870407104,-0.1831054538488388,0.2441406100988388
1224697,0.0426025390625,0.62939453125,0.793701171875,1.5869139432907104,-0.2441406100988388,0.2441406100988388
1224725,0.0457763671875,0.6282958984375,0.7974853515625,1.8920897245407104,-0.1831054538488388,0.2441406100988388
1224787,0.046142578125,0.624267578125,0.79736328125,2.25830078125,-0.2441406100988388,0.2441406100988388
1224804,0.0457763671875,0.623291015625,0.799072265625,2.25830078125,-0.2441406100988388,0.2441406100988388
1224841,0.0445556640625,0.623291015625,0.7978515625,2.0751953125,-0.30517578125,0.1831054538488388
1224857,0.0443115234375,0.6236572265625,0.7987060546875,1.9531248807907104,-0.2441406100988388,0.2441406100988388
1224874,0.044921875,0.6226806640625,0.800048828125,1.7700194120407104,-0.2441406100988388,0.1831054538488388
1224890,0.0460205078125,0.621337890625,0.800537109375,1.7089842557907104,-0.30517578125,0.2441406100988388
1224907,0.044921875,0.61865234375,0.8011474609375,1.5258787870407104,-0.2441406100988388,0.2441406100988388
1224928,0.0450439453125,0.61865234375,0.8013916015625,1.3427733182907104,-0.2441406100988388,0.2441406100988388
1224944,0.044677734375,0.6190185546875,0.80029296875,1.220703125,-0.2441406100988388,0.30517578125
1225011,0.0457763671875,0.61865234375,0.80126953125,0.3662109076976776,-0.1831054538488388,0.1831054538488388
1225027,0.0457763671875,0.6207275390625,0.8006591796875,0.1220703050494194,-0.0610351525247097,0.2441406100988388
1225044,0.0447998046875,0.62060546875,0.799560546875,0.0,-0.0610351525247097,0.1831054538488388
1225076,0.0458984375,0.6187744140625,0.80126953125,-0.2441406100988388,0.0610351525247097,0.2441406100988388
1225124,0.044677734375,0.6207275390625,0.8011474609375,-1.15966796875,-0.1220703050494194,0.30517578125
1225151,0.046142578125,0.62255859375,0.799072265625,-1.3427733182907104,-0.1220703050494194,0.3662109076976776
1225168,0.0462646484375,0.6234130859375,0.79833984375,-1.5258787870407104,-0.1220703050494194,0.2441406100988388
1225185,0.0450439453125,0.6229248046875,0.7957763671875,-1.5258787870407104,-0.1220703050494194,0.30517578125
1225202,0.044921875,0.6241455078125,0.7945556640625,-1.4648436307907104,-0.0610351525247097,0.30517578125
1225218,0.044677734375,0.6295166015625,0.7957763671875,-1.3427733182907104,-0.0610351525247097,0.2441406100988388
1225251,0.045166015625,0.6290283203125,0.791748046875,-1.03759765625,0.0610351525247097,0.2441406100988388
1225268,0.047607421875,0.6260986328125,0.79345703125,-0.9155272841453552,0.1220703050494194,0.1220703050494194
1225289,0.045654296875,0.623291015625,0.791259765625,-0.8544921278953552,0.3662109076976776,-0.1831054538488388
1225305,0.03759765625,0.627685546875,0.796142578125,-0.8544921278953552,0.4882812201976776,-0.2441406100988388
1225322,0.03662109375,0.623779296875,0.8050537109375,-1.03759765625,0.7324218153953552,-0.1831054538488388
1225339,0.05224609375,0.61328125,0.7899169921875,-1.7700194120407104,0.8544921278953552,-0.6103515625
1225375,0.0675048828125,0.6832275390625,0.8004150390625,0.7324218153953552,1.5258787870407104,-1.7700194120407104
1225392,0.059326171875,0.678955078125,0.80322265625,2.25830078125,1.4038084745407104,-2.0751953125
1225412,0.06396484375,0.77587890625,0.846923828125,5.065917491912842,1.5258787870407104,-1.5258787870407104
1225432,0.068359375,0.825439453125,1.0146484375,8.056640625,-0.1831054538488388,0.1831054538488388
1225452,0.0595703125,0.84521484375,1.032470703125,9.46044921875,-0.7324218153953552,0.2441406100988388
1225472,0.0706787109375,0.8682861328125,1.049560546875,9.94873046875,-1.2817381620407104,0.1220703050494194
1225492,0.08349609375,0.8935546875,1.04541015625,9.21630859375,-1.6479490995407104,0.7934569716453552
1225508,0.0802001953125,0.8583984375,1.0269775390625,8.1787109375,-1.5869139432907104,0.9155272841453552
1225524,0.0787353515625,0.8729248046875,1.072265625,5.920409679412842,-1.03759765625,0.4272460639476776
1225553,0.0809326171875,0.9005126953125,1.1573486328125,4.39453125,-1.8920897245407104,1.220703125
1225575,0.078857421875,0.8778076171875,1.1429443359375,2.807616949081421,-2.746581792831421,1.7700194120407104
1225591,0.0792236328125,0.8629150390625,1.12939453125,1.5869139432907104,-3.051757574081421,1.8310545682907104
1225608,0.0772705078125,0.85107421875,1.13134765625,0.8544921278953552,-3.051757574081421,1.7089842557907104
1225625,0.07177734375,0.8603515625,1.142578125,-0.30517578125,-2.990722417831421,1.7089842557907104
1225641,0.06591796875,0.8677978515625,1.153076171875,-0.4882812201976776,-3.173827886581421,1.6479490995407104
1225674,0.039794921875,0.833251953125,1.1092529296875,0.4882812201976776,-3.356933355331421,1.9531248807907104
1225696,0.0408935546875,0.8228759765625,1.0882568359375,0.6713866591453552,-3.112792730331421,1.7089842557907104
1225712,0.0506591796875,0.842529296875,1.0765380859375,1.2817381620407104,-2.868652105331421,1.6479490995407104
1225729,0.052001953125,0.8245849609375,1.0418701171875,1.6479490995407104,-2.990722417831421,2.01416015625
1225746,0.04345703125,0.7589111328125,0.97216796875,2.44140625,-2.929687261581421,2.3193359375
1225762,0.038818359375,0.738037109375,0.945068359375,3.112792730331421,-2.13623046875,1.8920897245407104
1225793,0.029541015625,0.684814453125,0.8935546875,2.990722417831421,-1.5869139432907104,1.6479490995407104
1225809,0.027587890625,0.656005859375,0.8626708984375,2.746581792831421,-1.4648436307907104,1.5869139432907104
1225825,0.0347900390625,0.6343994140625,0.8037109375,2.3193359375,-1.0986328125,1.3427733182907104
1225857,0.048828125,0.5618896484375,0.72314453125,1.5258787870407104,-0.54931640625,1.3427733182907104
1225873,0.051025390625,0.5416259765625,0.7008056640625,1.0986328125,-0.54931640625,1.220703125
1225889,0.0484619140625,0.5081787109375,0.6444091796875,0.2441406100988388,-0.30517578125,1.03759765625
1225905,0.03662109375,0.467529296875,0.6038818359375,-0.6103515625,-0.1831054538488388,0.7934569716453552
1225926,0.0216064453125,0.4483642578125,0.5667724609375,-1.3427733182907104,0.1831054538488388,0.54931640625
1225947,0.0130615234375,0.446044921875,0.5521240234375,-1.5869139432907104,0.4272460639476776,0.30517578125
1225964,0.0130615234375,0.452392578125,0.560302734375,-2.01416015625,0.8544921278953552,0.0610351525247097
1225981,0.009765625,0.4814453125,0.5751953125,-2.197265625,0.8544921278953552,0.0610351525247097
1225997,0.0084228515625,0.482421875,0.5693359375,-2.25830078125,0.9155272841453552,0.1831054538488388
1226030,0.0078125,0.4464111328125,0.5372314453125,-3.601073980331421,1.03759765625,0.8544921278953552
1226047,0.002685546875,0.3853759765625,0.4844970703125,-5.737304210662842,1.2817381620407104,0.9155272841453552
1226063,0.0023193359375,0.3603515625,0.461181640625,-6.958007335662842,1.5869139432907104,0.8544921278953552
1226095,0.023193359375,0.3201904296875,0.424072265625,-10.375975608825684,2.44140625,0.7934569716453552
1226111,0.025634765625,0.3148193359375,0.4189453125,-12.329100608825684,2.624511480331421,0.9765624403953552
1226127,0.024169921875,0.3048095703125,0.416015625,-14.099120140075684,3.112792730331421,0.9765624403953552
1226163,0.00634765625,0.3201904296875,0.4305419921875,-16.05224609375,3.662109136581421,1.0986328125
1226179,-0.0035400390625,0.3626708984375,0.4658203125,-16.7236328125,4.33349609375,0.7934569716453552
1226195,0.001708984375,0.41796875,0.52197265625,-16.78466796875,4.45556640625,0.7934569716453552
1226211,0.005859375,0.441650390625,0.5416259765625,-16.6015625,4.57763671875,0.8544921278953552
1226228,0.0185546875,0.4881591796875,0.58203125,-15.991209983825684,4.82177734375,0.8544921278953552
1226249,0.021728515625,0.5111083984375,0.60009765625,-15.563963890075684,5.0048828125,0.7324218153953552
1226265,0.022705078125,0.5609130859375,0.6385498046875,-14.038084983825684,5.432128429412842,0.6103515625
1226333,0.0379638671875,0.6466064453125,0.71630859375,-4.150390625,6.469726085662842,-0.4882812201976776
1226349,0.044189453125,0.7291259765625,0.7989501953125,0.0610351525247097,5.798339366912842,-0.1831054538488388
1226399,0.050048828125,0.75927734375,0.8636474609375,9.82666015625,4.150390625,1.5869139432907104
1226420,0.0550537109375,0.74609375,0.866943359375,11.047362327575684,3.784179449081421,1.7089842557907104
1226436,0.0565185546875,0.722412109375,0.8555908203125,12.573241233825684,3.234863042831421,2.25830078125
1226453,0.0498046875,0.679931640625,0.8406982421875,13.000487327575684,2.807616949081421,2.50244140625
1226470,0.046142578125,0.6617431640625,0.8448486328125,13.122557640075684,2.746581792831421,2.44140625
1226503,0.0491943359375,0.6505126953125,0.8245849609375,12.939452171325684,1.5869139432907104,2.685546636581421
1226524,0.051025390625,0.6170654296875,0.7962646484375,12.329100608825684,1.3427733182907104,2.685546636581421
1226540,0.0523681640625,0.5850830078125,0.7728271484375,11.413573265075684,1.2817381620407104,2.563476324081421
1226556,0.0498046875,0.5673828125,0.761962890625,10.803221702575684,1.2817381620407104,2.50244140625
1226572,0.048828125,0.570556640625,0.7623291015625,9.3994140625,1.2817381620407104,2.197265625
1226594,0.052001953125,0.57861328125,0.77490234375,8.36181640625,0.9155272841453552,2.25830078125
1226610,0.052978515625,0.573486328125,0.7506103515625,7.751464366912842,0.7934569716453552,2.25830078125
1226627,0.0565185546875,0.5745849609375,0.7520751953125,6.774901866912842,0.8544921278953552,2.3193359375
1226644,0.0623779296875,0.5849609375,0.7830810546875,5.859374523162842,0.7934569716453552,2.13623046875
1226660,0.0635986328125,0.599365234375,0.8017578125,5.432128429412842,0.6103515625,2.3193359375
1226693,0.0638427734375,0.6103515625,0.8035888671875,4.5166015625,0.30517578125,2.3193359375
1226710,0.0670166015625,0.615478515625,0.812744140625,4.39453125,0.0,2.44140625
1226726,0.070068359375,0.621826171875,0.8189697265625,4.08935546875,-0.0610351525247097,2.50244140625
1226759,0.0753173828125,0.630615234375,0.83642578125,3.845214605331421,-0.9155272841453552,3.051757574081421
1226780,0.072998046875,0.625,0.832763671875,3.601073980331421,-1.15966796875,3.234863042831421
1226796,0.068115234375,0.611328125,0.818359375,3.356933355331421,-1.5258787870407104,3.417968511581421
1226813,0.0648193359375,0.598388671875,0.8006591796875,2.746581792831421,-1.7700194120407104,3.417968511581421
1226879,0.0516357421875,0.630859375,0.8394775390625,2.13623046875,-1.8920897245407104,3.417968511581421
1226951,0.039794921875,0.598876953125,0.790283203125,1.3427733182907104,-1.4648436307907104,2.807616949081421
1226968,0.03857421875,0.588134765625,0.787353515625,1.03759765625,-1.220703125,2.50244140625
1226985,0.03759765625,0.583251953125,0.782958984375,0.7324218153953552,-0.8544921278953552,2.13623046875
1227001,0.035400390625,0.583984375,0.7772216796875,0.7934569716453552,-0.6713866591453552,1.8920897245407104
1227022,0.036865234375,0.594970703125,0.7841796875,0.8544921278953552,-0.30517578125,1.4648436307907104
1227052,0.037353515625,0.589111328125,0.781005859375,0.9765624403953552,-0.0610351525247097,1.0986328125
1227074,0.039306640625,0.590087890625,0.78515625,1.03759765625,0.1220703050494194,0.7934569716453552
1227090,0.042724609375,0.6051025390625,0.80615234375,1.0986328125,0.1831054538488388,0.6713866591453552
1227110,0.04443359375,0.607177734375,0.808837890625,1.15966796875,-0.0610351525247097,0.6713866591453552
1227127,0.0465087890625,0.5970458984375,0.7947998046875,1.220703125,-0.1831054538488388,0.7324218153953552
1227144,0.0511474609375,0.5955810546875,0.7950439453125,0.7934569716453552,-0.1831054538488388,0.6103515625
1227193,0.0511474609375,0.5946044921875,0.821533203125,-0.6103515625,-0.4272460639476776,0.4882812201976776
1227245,0.0506591796875,0.6175537109375,0.8466796875,-0.1220703050494194,-1.3427733182907104,0.30517578125
1227262,0.054931640625,0.6170654296875,0.8487548828125,0.1831054538488388,-1.4648436307907104,0.1831054538488388
1227292,0.0574951171875,0.630126953125,0.840087890625,2.3193359375,-2.13623046875,-0.2441406100988388
1227309,0.0557861328125,0.63330078125,0.8223876953125,2.929687261581421,-2.25830078125,-0.30517578125
1227325,0.0565185546875,0.63427734375,0.8189697265625,4.33349609375,-2.624511480331421,-0.30517578125
1227357,0.052734375,0.6142578125,0.7940673828125,5.920409679412842,-2.746581792831421,-0.6713866591453552
1227373,0.0572509765625,0.6302490234375,0.8138427734375,6.774901866912842,-2.807616949081421,-0.8544921278953552
1227389,0.068359375,0.6612548828125,0.843017578125,7.324218273162842,-2.990722417831421,-0.9765624403953552
1227405,0.0732421875,0.6802978515625,0.8585205078125,8.97216796875,-3.417968511581421,-1.0986328125
1227430,0.0692138671875,0.7115478515625,0.8765869140625,11.047362327575684,-4.150390625,-0.6713866591453552
1227446,0.0498046875,0.6759033203125,0.8380126953125,12.695311546325684,-4.69970703125,-0.1220703050494194
1227463,0.0308837890625,0.611572265625,0.78271484375,13.122557640075684,-4.69970703125,-0.1220703050494194
1227480,0.0252685546875,0.5848388671875,0.767822265625,13.061522483825684,-4.2724609375,-0.54931640625
1227496,0.0166015625,0.54931640625,0.746826171875,12.023924827575684,-3.967284917831421,-0.9155272841453552
1227530,-0.004150390625,0.5015869140625,0.6922607421875,9.8876953125,-2.868652105331421,-1.6479490995407104
1227547,-0.0045166015625,0.5,0.692138671875,8.4228515625,-1.8920897245407104,-2.0751953125
1227568,-0.00537109375,0.50439453125,0.6966552734375,7.019042491912842,-1.03759765625,-2.50244140625
1227584,-0.0059814453125,0.51123046875,0.7115478515625,6.347655773162842,-0.54931640625,-2.807616949081421
1227601,-0.0032958984375,0.54541015625,0.7508544921875,5.371093273162842,0.4272460639476776,-3.356933355331421
1227618,0.0008544921875,0.5657958984375,0.7803955078125,4.7607421875,1.0986328125,-3.540038824081421
1227651,0.0223388671875,0.599609375,0.821533203125,4.5166015625,1.8310545682907104,-3.479003667831421
1227668,0.0281982421875,0.60986328125,0.836669921875,4.5166015625,1.9531248807907104,-3.417968511581421
1227684,0.038818359375,0.625,0.86572265625,4.57763671875,1.9531248807907104,-3.173827886581421
1227714,0.0443115234375,0.633056640625,0.8779296875,4.94384765625,1.7700194120407104,-2.746581792831421
1227735,0.0482177734375,0.6312255859375,0.8839111328125,5.0048828125,1.6479490995407104,-2.563476324081421
1227752,0.0531005859375,0.62158203125,0.8843994140625,5.065917491912842,1.4648436307907104,-2.0751953125
1227769,0.0556640625,0.61474609375,0.8814697265625,4.5166015625,1.0986328125,-1.5869139432907104
1227785,0.0589599609375,0.606689453125,0.8790283203125,4.150390625,0.9155272841453552,-1.3427733182907104
1227802,0.059326171875,0.5989990234375,0.8798828125,2.44140625,0.4882812201976776,-0.54931640625
1227833,0.064697265625,0.6212158203125,0.904052734375,0.7324218153953552,-0.4272460639476776,0.30517578125
1227855,0.06494140625,0.6240234375,0.898193359375,0.30517578125,-0.7934569716453552,0.6103515625
1227871,0.0592041015625,0.617431640625,0.869384765625,-0.0610351525247097,-1.0986328125,0.8544921278953552
1227921,0.0318603515625,0.58349609375,0.812255859375,0.7324218153953552,-1.2817381620407104,1.5258787870407104
1227965,0.027099609375,0.5186767578125,0.7598876953125,-0.4272460639476776,-0.8544921278953552,1.15966796875
1227982,0.0250244140625,0.5098876953125,0.7484130859375,-1.5258787870407104,-0.6103515625,1.03759765625
1228012,0.0137939453125,0.4940185546875,0.724609375,-3.295898199081421,0.4882812201976776,0.4272460639476776
1228029,0.012451171875,0.4898681640625,0.7232666015625,-3.723144292831421,0.9765624403953552,0.0610351525247097
1228045,0.0157470703125,0.5147705078125,0.7586669921875,-4.39453125,1.5258787870407104,-0.30517578125
1228077,0.0196533203125,0.524169921875,0.763671875,-4.94384765625,1.8920897245407104,-0.4882812201976776
1228093,0.0238037109375,0.5181884765625,0.7603759765625,-5.310058116912842,2.50244140625,-0.8544921278953552
1228109,0.028564453125,0.528076171875,0.76708984375,-5.554198741912842,2.746581792831421,-0.9765624403953552
1228125,0.0377197265625,0.549072265625,0.7860107421875,-5.981444835662842,2.929687261581421,-0.9155272841453552
1228179,0.04150390625,0.5391845703125,0.7567138671875,-7.568358898162842,3.356933355331421,-0.0610351525247097
1228205,0.0430908203125,0.557861328125,0.8095703125,-8.36181640625,3.540038824081421,0.1220703050494194
1228222,0.0433349609375,0.562255859375,0.81396484375,-9.033203125,2.868652105331421,0.7324218153953552
1228255,0.03955078125,0.524658203125,0.7586669921875,-10.070799827575684,2.50244140625,1.220703125
1228329,0.0499267578125,0.541748046875,0.7845458984375,-11.413573265075684,1.5258787870407104,1.9531248807907104
1228349,0.0394287109375,0.4906005859375,0.721435546875,-11.718749046325684,1.15966796875,2.3193359375
1228366,0.0369873046875,0.4580078125,0.678466796875,-12.023924827575684,1.4038084745407104,2.13623046875
1228383,0.0439453125,0.4971923828125,0.70849609375,-12.512206077575684,2.01416015625,1.4038084745407104
1228399,0.0499267578125,0.532470703125,0.7313232421875,-12.145995140075684,1.8310545682907104,1.2817381620407104
1228432,0.048828125,0.5496826171875,0.7021484375,-10.009765625,1.0986328125,1.9531248807907104
1228448,0.0386962890625,0.5137939453125,0.64453125,-8.544921875,1.5258787870407104,1.6479490995407104
1228464,0.0404052734375,0.534423828125,0.6673583984375,-7.202147960662842,2.50244140625,0.54931640625
1228496,0.059326171875,0.661376953125,0.799072265625,-3.479003667831421,2.13623046875,0.4272460639476776
1228512,0.0577392578125,0.6806640625,0.807861328125,-1.7089842557907104,1.7700194120407104,0.7324218153953552
1228528,0.0489501953125,0.6573486328125,0.797607421875,1.7089842557907104,1.0986328125,1.03759765625
1228544,0.0400390625,0.5985107421875,0.7431640625,4.45556640625,1.2817381620407104,0.8544921278953552
1228569,0.047119140625,0.565185546875,0.7376708984375,6.103515148162842,1.4038084745407104,0.1220703050494194
1228585,0.051025390625,0.54150390625,0.72216796875,6.652831554412842,1.220703125,0.0
1228602,0.0487060546875,0.528076171875,0.7049560546875,7.690429210662842,0.9765624403953552,-0.3662109076976776
1228622,0.0443115234375,0.521728515625,0.675048828125,8.6669921875,1.4038084745407104,-1.03759765625
1228638,0.048583984375,0.5577392578125,0.7083740234375,9.1552734375,1.7089842557907104,-1.4648436307907104
1228672,0.0711669921875,0.6861572265625,0.863525390625,12.512206077575684,1.7089842557907104,-2.38037109375
1228688,0.0718994140625,0.740966796875,0.908447265625,15.319823265075684,-0.1831054538488388,-0.9765624403953552
1228704,0.052001953125,0.639404296875,0.7847900390625,16.54052734375,-0.9765624403953552,-0.4272460639476776
1228733,0.0487060546875,0.559326171875,0.7115478515625,18.4326171875,-0.1220703050494194,-1.2817381620407104
1228755,0.0543212890625,0.56884765625,0.7315673828125,18.4326171875,0.2441406100988388,-1.7089842557907104
1228771,0.0618896484375,0.5911865234375,0.7635498046875,18.73779296875,0.0,-1.6479490995407104
1228788,0.06640625,0.6171875,0.7763671875,18.9208984375,-0.2441406100988388,-1.5258787870407104
1228805,0.062255859375,0.5987548828125,0.7415771484375,19.53125,-0.54931640625,-1.15966796875
1228821,0.0753173828125,0.6192626953125,0.767822265625,20.080564498901367,0.9155272841453552,-2.01416015625
1228853,0.093017578125,0.6612548828125,0.831787109375,21.301267623901367,-0.54931640625,-0.1831054538488388
1228875,0.0819091796875,0.608154296875,0.7791748046875,21.362302780151367,-0.8544921278953552,0.4882812201976776
1228891,0.064697265625,0.5101318359375,0.7147216796875,20.141599655151367,0.1831054538488388,-0.30517578125
1228908,0.0653076171875,0.5069580078125,0.74169921875,19.4091796875,0.6713866591453552,-0.7934569716453552
1228925,0.0697021484375,0.5213623046875,0.7799072265625,18.49365234375,1.5869139432907104,-1.8310545682907104
1228942,0.085693359375,0.5989990234375,0.880859375,18.4326171875,1.15966796875,-1.9531248807907104
1228975,0.08203125,0.6370849609375,0.937744140625,20.812986373901367,1.220703125,-2.3193359375
1228991,0.07958984375,0.6378173828125,0.9610595703125,22.644041061401367,0.8544921278953552,-2.197265625
1229007,0.0706787109375,0.6124267578125,0.951416015625,24.047849655151367,0.1220703050494194,-2.197265625
1229048,0.061767578125,0.555419921875,0.88427734375,24.841306686401367,0.30517578125,-2.746581792831421
1229064,0.055419921875,0.52392578125,0.8695068359375,24.475095748901367,0.9155272841453552,-3.112792730331421
1229081,0.0478515625,0.4981689453125,0.889892578125,23.193357467651367,1.7089842557907104,-3.784179449081421
1229102,0.0550537109375,0.529541015625,0.977783203125,21.667478561401367,1.4648436307907104,-3.967284917831421
1229118,0.055908203125,0.547607421875,0.990234375,20.996091842651367,1.03759765625,-3.906249761581421
1229135,0.0601806640625,0.5443115234375,0.9547119140625,19.83642578125,0.30517578125,-3.540038824081421
1229152,0.059326171875,0.517333984375,0.916015625,18.49365234375,0.1831054538488388,-3.173827886581421
1229168,0.06982421875,0.5001220703125,0.9163818359375,16.29638671875,0.6103515625,-3.112792730331421
1229184,0.077392578125,0.5001220703125,0.9356689453125,15.258788108825684,0.6713866591453552,-3.051757574081421
1229215,0.096923828125,0.5343017578125,1.02978515625,12.023924827575684,-0.6103515625,-2.685546636581421
1229237,0.0936279296875,0.5306396484375,0.994873046875,10.620116233825684,-1.8310545682907104,-1.8310545682907104
1229253,0.0927734375,0.525146484375,0.97265625,8.7890625,-2.0751953125,-1.4648436307907104
1229270,0.0911865234375,0.50634765625,0.9833984375,7.995604991912842,-2.25830078125,-1.220703125
1229287,0.0963134765625,0.5224609375,1.011474609375,6.042479991912842,-2.563476324081421,-1.03759765625
1229303,0.09765625,0.539306640625,1.0045166015625,5.0048828125,-3.295898199081421,-0.4272460639476776
1229336,0.08984375,0.481689453125,0.95654296875,3.051757574081421,-4.150390625,0.3662109076976776
1229353,0.09033203125,0.49267578125,0.97900390625,1.5258787870407104,-3.540038824081421,0.1220703050494194
1229369,0.0963134765625,0.5238037109375,1.0362548828125,-0.4272460639476776,-4.33349609375,0.3662109076976776
1229385,0.09130859375,0.529052734375,1.02099609375,-0.9765624403953552,-4.5166015625,0.4882812201976776
1229405,0.080810546875,0.534423828125,1.003173828125,-2.13623046875,-4.82177734375,0.7934569716453552
1229421,0.0638427734375,0.49609375,0.949951171875,-3.479003667831421,-4.5166015625,0.8544921278953552
1229437,0.056884765625,0.4598388671875,0.93310546875,-5.0048828125,-3.906249761581421,0.30517578125
1229453,0.05712890625,0.4638671875,0.9398193359375,-5.798339366912842,-3.479003667831421,-0.1220703050494194
1229474,0.067138671875,0.5054931640625,0.9962158203125,-6.530761241912842,-3.479003667831421,-0.3662109076976776
1229490,0.06689453125,0.52490234375,0.9906005859375,-6.896972179412842,-3.662109136581421,-0.30517578125
1229507,0.0667724609375,0.531982421875,0.9874267578125,-7.080077648162842,-3.784179449081421,-0.30517578125
1229524,0.0579833984375,0.5169677734375,0.9486083984375,-7.324218273162842,-3.601073980331421,-0.30517578125
1229540,0.05419921875,0.517822265625,0.95361328125,-7.507323741912842,-3.173827886581421,-0.54931640625
1229577,0.0394287109375,0.4891357421875,0.8895263671875,-8.1787109375,-2.929687261581421,-0.7324218153953552
1229594,0.0394287109375,0.4873046875,0.884765625,-8.23974609375,-1.9531248807907104,-1.4038084745407104
1229614,0.04150390625,0.508056640625,0.9088134765625,-8.36181640625,-1.03759765625,-2.197265625
1229630,0.0484619140625,0.5550537109375,0.967041015625,-7.751464366912842,-1.0986328125,-1.9531248807907104
1229652,0.0440673828125,0.5513916015625,0.9476318359375,-7.385253429412842,-1.0986328125,-1.8920897245407104
1229668,0.047119140625,0.5494384765625,0.9375,-6.591796398162842,-1.03759765625,-1.9531248807907104
1229689,0.046142578125,0.533203125,0.90966796875,-6.286620616912842,-0.9765624403953552,-1.8920897245407104
1229706,0.048583984375,0.5177001953125,0.8809814453125,-6.042479991912842,-0.4882812201976776,-2.0751953125
1229722,0.0513916015625,0.5157470703125,0.8778076171875,-5.920409679412842,-0.3662109076976776,-2.197265625
1229754,0.0592041015625,0.523193359375,0.88671875,-4.82177734375,-0.30517578125,-2.197265625
1229771,0.119140625,0.6834716796875,1.0980224609375,-5.859374523162842,-1.0986328125,-1.2817381620407104
1229787,0.1820068359375,0.815185546875,1.3121337890625,-6.591796398162842,-3.173827886581421,0.30517578125
1229823,0.0343017578125,0.4266357421875,0.7210693359375,-8.1787109375,-5.615233898162842,2.44140625
1229839,0.0467529296875,0.5015869140625,0.8336181640625,-7.263183116912842,-5.432128429412842,2.197265625
1229855,0.0516357421875,0.52197265625,0.8565673828125,-6.713866710662842,-5.798339366912842,2.38037109375
1229871,0.0406494140625,0.500732421875,0.8226318359375,-5.187987804412842,-6.042479991912842,2.563476324081421
1229888,0.0286865234375,0.4827880859375,0.7862548828125,-4.39453125,-5.737304210662842,2.44140625
1229909,0.0262451171875,0.4927978515625,0.7904052734375,-2.563476324081421,-4.94384765625,1.8310545682907104
1229925,-0.016357421875,0.44189453125,0.6605224609375,2.38037109375,-1.8920897245407104,0.30517578125
1229992,0.039306640625,0.4373779296875,0.7489013671875,3.173827886581421,-2.624511480331421,1.8310545682907104
1230009,0.0235595703125,0.39794921875,0.676025390625,3.051757574081421,-2.0751953125,1.4038084745407104
1230025,0.0308837890625,0.437744140625,0.757568359375,5.432128429412842,-0.7324218153953552,0.54931640625
1230058,0.05419921875,0.6195068359375,1.067626953125,4.82177734375,-1.2817381620407104,0.6103515625
1230079,0.0394287109375,0.457275390625,0.795654296875,5.493163585662842,-2.13623046875,1.220703125
1230095,0.0445556640625,0.4930419921875,0.83349609375,5.432128429412842,-0.6103515625,0.1831054538488388
1230112,0.061767578125,0.5589599609375,0.9757080078125,5.615233898162842,-0.8544921278953552,0.54931640625
1230129,0.0511474609375,0.4989013671875,0.877685546875,5.249022960662842,-1.4038084745407104,0.7324218153953552
1230145,0.0377197265625,0.4757080078125,0.85986328125,4.8828125,-0.4882812201976776,0.2441406100988388
1230182,0.0491943359375,0.4912109375,0.8642578125,3.967284917831421,-0.6713866591453552,0.3662109076976776
1230198,0.0482177734375,0.4981689453125,0.8670654296875,3.845214605331421,-0.3662109076976776,0.30517578125
1230214,0.0439453125,0.503173828125,0.894287109375,3.540038824081421,-0.4882812201976776,0.4272460639476776
1230230,0.039794921875,0.4832763671875,0.8817138671875,2.807616949081421,-0.4882812201976776,0.3662109076976776
1230247,0.043212890625,0.486083984375,0.891357421875,2.3193359375,-0.4882812201976776,0.30517578125
1230284,0.0462646484375,0.504150390625,0.883544921875,1.5869139432907104,-0.3662109076976776,0.1831054538488388
1230301,0.045654296875,0.506103515625,0.88623046875,1.6479490995407104,-0.3662109076976776,0.30517578125
1230318,0.0467529296875,0.502197265625,0.8800048828125,1.7089842557907104,-0.2441406100988388,0.30517578125
1230351,0.043212890625,0.49365234375,0.890625,1.2817381620407104,-0.30517578125,0.30517578125
1230367,0.04052734375,0.48974609375,0.884521484375,0.8544921278953552,-0.30517578125,0.30517578125
1230383,0.043212890625,0.501708984375,0.8927001953125,0.4882812201976776,-0.1831054538488388,0.30517578125
1230416,0.044677734375,0.49560546875,0.884521484375,-0.0610351525247097,-0.1831054538488388,0.3662109076976776
1230464,0.0455322265625,0.4993896484375,0.886474609375,-1.03759765625,-0.1831054538488388,0.30517578125
1230486,0.0445556640625,0.5037841796875,0.8875732421875,-1.15966796875,-0.2441406100988388,0.30517578125
1230503,0.0419921875,0.498046875,0.8829345703125,-1.220703125,-0.2441406100988388,0.3662109076976776
1230536,0.044677734375,0.4949951171875,0.8870849609375,-1.9531248807907104,-0.1220703050494194,0.4272460639476776
1230553,0.04443359375,0.4954833984375,0.888427734375,-2.624511480331421,-0.1831054538488388,0.4272460639476776
1230570,0.0450439453125,0.49560546875,0.8870849609375,-2.990722417831421,-0.1220703050494194,0.4272460639476776
1230586,0.046875,0.4981689453125,0.885009765625,-3.662109136581421,-0.1831054538488388,0.4272460639476776
1230606,0.0460205078125,0.505615234375,0.8843994140625,-4.150390625,-0.1220703050494194,0.4882812201976776
1230627,0.0426025390625,0.5068359375,0.877197265625,-4.33349609375,-0.0610351525247097,0.4882812201976776
1230644,0.0430908203125,0.51171875,0.881591796875,-4.39453125,0.0,0.4272460639476776
1230661,0.044189453125,0.5145263671875,0.8809814453125,-4.2724609375,-0.0610351525247097,0.4272460639476776
1230678,0.0439453125,0.51611328125,0.8734130859375,-3.906249761581421,-0.0610351525247097,0.3662109076976776
1230711,0.0440673828125,0.5179443359375,0.8726806640625,-3.356933355331421,-0.1220703050494194,0.4882812201976776
1230728,0.0438232421875,0.5181884765625,0.873779296875,-2.868652105331421,-0.1220703050494194,0.4272460639476776
1230753,0.0450439453125,0.5185546875,0.87646484375,-2.624511480331421,-0.1220703050494194,0.3662109076976776
1230769,0.0450439453125,0.5181884765625,0.87353515625,-2.50244140625,-0.1220703050494194,0.3662109076976776
1230790,0.044677734375,0.519287109375,0.8739013671875,-2.44140625,-0.0610351525247097,0.4272460639476776
1230807,0.04541015625,0.5185546875,0.8751220703125,-2.44140625,-0.1220703050494194,0.3662109076976776
1230823,0.0452880859375,0.514404296875,0.8748779296875,-2.563476324081421,-0.0610351525247097,0.3662109076976776
1230844,0.045166015625,0.5203857421875,0.8763427734375,-2.868652105331421,-0.0610351525247097,0.4272460639476776
1230860,0.0445556640625,0.521240234375,0.8756103515625,-2.929687261581421,-0.1220703050494194,0.3662109076976776
1230876,0.0430908203125,0.5213623046875,0.8668212890625,-2.868652105331421,-0.0610351525247097,0.30517578125
1230892,0.04296875,0.526123046875,0.873291015625,-2.807616949081421,-0.0610351525247097,0.30517578125
1230908,0.04345703125,0.5262451171875,0.873291015625,-2.746581792831421,-0.1220703050494194,0.4272460639476776
1230924,0.04541015625,0.5228271484375,0.8682861328125,-2.685546636581421,-0.0610351525247097,0.4272460639476776
1230956,0.0458984375,0.5296630859375,0.8692626953125,-2.50244140625,-0.0610351525247097,0.3662109076976776
1230972,0.0450439453125,0.529052734375,0.864990234375,-2.38037109375,-0.0610351525247097,0.30517578125
1230988,0.0445556640625,0.5299072265625,0.8662109375,-2.197265625,-0.0610351525247097,0.30517578125
1231004,0.04541015625,0.5299072265625,0.8675537109375,-2.01416015625,-0.0610351525247097,0.30517578125
1231024,0.046875,0.5330810546875,0.8663330078125,-1.5869139432907104,-0.1220703050494194,0.30517578125
1231046,0.0458984375,0.5364990234375,0.8668212890625,-1.3427733182907104,-0.1220703050494194,0.3662109076976776
1231062,0.0399169921875,0.538818359375,0.863525390625,-0.9155272841453552,-0.1831054538488388,0.30517578125
1231079,0.04150390625,0.5330810546875,0.86328125,-0.4882812201976776,-0.1831054538488388,0.3662109076976776
1231129,0.04443359375,0.536865234375,0.8602294921875,0.3662109076976776,-0.2441406100988388,0.2441406100988388
1231145,0.04052734375,0.5443115234375,0.85986328125,1.3427733182907104,-0.2441406100988388,0.2441406100988388
1231162,0.04248046875,0.5452880859375,0.8592529296875,1.8920897245407104,-0.1831054538488388,0.2441406100988388
1231194,0.044677734375,0.53564453125,0.86328125,3.601073980331421,-0.2441406100988388,0.2441406100988388
1231215,0.0447998046875,0.531005859375,0.866455078125,3.845214605331421,-0.30517578125,0.2441406100988388
1231231,0.0458984375,0.529296875,0.868896484375,4.0283203125,-0.30517578125,0.1831054538488388
1231248,0.0462646484375,0.5267333984375,0.8687744140625,4.08935546875,-0.2441406100988388,0.1220703050494194
1231265,0.0447998046875,0.525146484375,0.8697509765625,4.08935546875,-0.30517578125,0.1220703050494194
1231282,0.0435791015625,0.5238037109375,0.8721923828125,4.08935546875,-0.30517578125,0.0610351525247097
1231314,0.0474853515625,0.517822265625,0.874755859375,3.479003667831421,-0.30517578125,0.1220703050494194
1231330,0.0469970703125,0.518798828125,0.8739013671875,3.295898199081421,-0.3662109076976776,0.1831054538488388
1231346,0.04345703125,0.518310546875,0.872314453125,2.929687261581421,-0.30517578125,0.1831054538488388
1231378,0.0450439453125,0.5172119140625,0.8768310546875,2.38037109375,-0.3662109076976776,0.30517578125
1231394,0.0455322265625,0.5146484375,0.8760986328125,1.9531248807907104,-0.3662109076976776,0.1831054538488388
1231410,0.044189453125,0.5145263671875,0.874755859375,1.7089842557907104,-0.30517578125,0.1831054538488388
1231458,0.046142578125,0.5191650390625,0.8743896484375,0.7934569716453552,-0.1831054538488388,0.1831054538488388
1231510,0.044921875,0.517822265625,0.875244140625,0.0,-0.1220703050494194,0.2441406100988388
1231527,0.04443359375,0.5184326171875,0.8760986328125,-0.0610351525247097,-0.1220703050494194,0.30517578125
1231544,0.0439453125,0.519287109375,0.873779296875,-0.30517578125,-0.1831054538488388,0.30517578125
1231564,0.0433349609375,0.5201416015625,0.873046875,-0.4272460639476776,-0.1220703050494194,0.1831054538488388
1231581,0.043701171875,0.52197265625,0.874267578125,-0.54931640625,-0.1831054538488388,0.30517578125
1231597,0.0452880859375,0.5208740234375,0.8743896484375,-0.54931640625,-0.1831054538488388,0.30517578125
1231614,0.0447998046875,0.5211181640625,0.8726806640625,-0.6713866591453552,-0.1831054538488388,0.30517578125
1231662,0.04443359375,0.5184326171875,0.86865234375,-0.8544921278953552,0.0,0.1220703050494194
1231701,0.0504150390625,0.5484619140625,0.875732421875,0.0610351525247097,1.7700194120407104,-1.0986328125
1231746,0.046875,0.5897216796875,0.907958984375,0.9155272841453552,2.563476324081421,-1.6479490995407104
1231763,0.04443359375,0.636962890625,0.9610595703125,0.54931640625,1.7700194120407104,-1.220703125
1231796,0.1173095703125,0.7156982421875,1.0816650390625,2.929687261581421,0.0610351525247097,1.03759765625
1231813,0.1065673828125,0.7005615234375,1.0626220703125,2.44140625,0.2441406100988388,0.6713866591453552
1231830,0.0948486328125,0.6993408203125,1.138671875,1.7700194120407104,0.9765624403953552,-0.3662109076976776
1231846,0.0889892578125,0.8033447265625,1.27099609375,0.8544921278953552,0.9155272841453552,-0.6103515625
1231866,0.0887451171875,0.892333984375,1.357666015625,0.8544921278953552,-0.7324218153953552,0.0
1231882,0.08984375,0.90234375,1.3514404296875,1.220703125,-1.4038084745407104,0.4882812201976776
1231898,0.0869140625,0.8861083984375,1.2745361328125,1.9531248807907104,-1.9531248807907104,1.220703125
1231915,0.082275390625,0.793212890625,1.2626953125,2.25830078125,-1.5869139432907104,1.7089842557907104
1231936,0.07470703125,0.7711181640625,1.249755859375,1.5869139432907104,-1.220703125,1.220703125
1231952,0.0792236328125,0.7626953125,1.306640625,0.30517578125,-1.0986328125,0.7934569716453552
1231969,0.0750732421875,0.81591796875,1.310791015625,0.0,-1.5869139432907104,0.6713866591453552
1231986,0.0655517578125,0.8372802734375,1.3050537109375,0.7324218153953552,-2.197265625,1.03759765625
1232002,0.061279296875,0.8525390625,1.3006591796875,2.0751953125,-2.807616949081421,1.8310545682907104
1232036,0.0518798828125,0.705810546875,1.219482421875,1.8310545682907104,-3.540038824081421,2.929687261581421
1232084,0.037109375,0.6240234375,1.1212158203125,-1.4648436307907104,-3.601073980331421,2.38037109375
1232123,-0.0047607421875,0.566650390625,0.9771728515625,-3.051757574081421,-2.13623046875,1.8310545682907104
1232168,0.01513671875,0.4776611328125,0.831787109375,-4.94384765625,-0.8544921278953552,1.15966796875
1232185,0.01904296875,0.4669189453125,0.8023681640625,-5.615233898162842,-0.1831054538488388,0.8544921278953552
1232202,0.0234375,0.435302734375,0.7598876953125,-6.103515148162842,0.1831054538488388,0.6713866591453552
1232222,0.0211181640625,0.4031982421875,0.6976318359375,-6.896972179412842,0.3662109076976776,0.4272460639476776
1232239,0.021240234375,0.3992919921875,0.6689453125,-7.690429210662842,0.4272460639476776,0.4272460639476776
1232256,0.021484375,0.394775390625,0.6439208984375,-8.056640625,0.3662109076976776,0.54931640625
1232288,0.018798828125,0.3614501953125,0.58154296875,-9.033203125,-0.54931640625,1.3427733182907104
1232350,0.0145263671875,0.2811279296875,0.4300537109375,-9.70458984375,-1.3427733182907104,2.38037109375
1232367,0.0111083984375,0.2747802734375,0.4111328125,-10.253905296325684,-0.9155272841453552,2.38037109375
1232384,0.0042724609375,0.2598876953125,0.4266357421875,-10.864256858825684,-0.6713866591453552,2.38037109375
1232404,-0.0032958984375,0.2542724609375,0.4090576171875,-11.413573265075684,-0.7934569716453552,2.624511480331421
1232420,-0.0048828125,0.224365234375,0.372802734375,-12.268065452575684,-0.3662109076976776,2.563476324081421
1232437,0.002197265625,0.2293701171875,0.3853759765625,-12.939452171325684,0.30517578125,2.197265625
1232453,0.009033203125,0.274169921875,0.437744140625,-14.343260765075684,1.5869139432907104,1.7089842557907104
1232501,0.0128173828125,0.3804931640625,0.611328125,-13.488768577575684,1.0986328125,2.44140625
1232524,0.01513671875,0.423583984375,0.65185546875,-12.390135765075684,0.9155272841453552,2.50244140625
1232540,0.0147705078125,0.41650390625,0.651611328125,-11.901854515075684,0.7324218153953552,2.746581792831421
1232606,0.038330078125,0.531494140625,0.7435302734375,-6.286620616912842,1.4648436307907104,1.5258787870407104
1232665,0.04296875,0.569091796875,0.8057861328125,-0.1831054538488388,0.7324218153953552,1.2817381620407104
1232710,0.0548095703125,0.6068115234375,0.83251953125,4.5166015625,0.4882812201976776,0.8544921278953552
1232727,0.056640625,0.5948486328125,0.83349609375,6.713866710662842,0.0610351525247097,1.15966796875
1232743,0.058349609375,0.5814208984375,0.814453125,8.4228515625,-0.1220703050494194,0.8544921278953552
1232764,0.058349609375,0.5772705078125,0.82373046875,10.070799827575684,-0.1220703050494194,0.7324218153953552
1232780,0.05712890625,0.5892333984375,0.83740234375,11.169432640075684,-0.3662109076976776,0.7934569716453552
1232797,0.0555419921875,0.579833984375,0.836669921875,11.779784202575684,-0.54931640625,0.9155272841453552
1232813,0.0523681640625,0.567138671875,0.825927734375,12.634276390075684,-0.7934569716453552,0.9155272841453552
1232835,0.0489501953125,0.5625,0.82568359375,13.244627952575684,-0.9155272841453552,0.9765624403953552
1232851,0.039794921875,0.5572509765625,0.8248291015625,13.549803733825684,-0.9155272841453552,0.9155272841453552
1232868,0.037109375,0.5523681640625,0.8304443359375,13.793944358825684,-0.8544921278953552,0.9155272841453552
1232885,0.033447265625,0.5604248046875,0.8341064453125,13.977049827575684,-0.9765624403953552,0.9155272841453552
1232901,0.0294189453125,0.551513671875,0.8336181640625,13.977049827575684,-0.8544921278953552,0.9155272841453552
1232935,0.0262451171875,0.550048828125,0.8414306640625,13.916014671325684,-0.6713866591453552,0.7324218153953552
1232951,0.0269775390625,0.554931640625,0.843017578125,13.854979515075684,-0.3662109076976776,0.6103515625
1232967,0.0281982421875,0.5543212890625,0.8519287109375,13.793944358825684,-0.30517578125,0.6103515625
1233003,0.03369140625,0.5484619140625,0.8597412109375,13.183592796325684,0.0,0.4882812201976776
1233051,0.027587890625,0.53515625,0.856689453125,12.145995140075684,0.0,0.6713866591453552
1233068,0.02734375,0.5294189453125,0.8607177734375,11.718749046325684,0.0610351525247097,0.6713866591453552
1233089,0.0289306640625,0.528564453125,0.870849609375,10.742186546325684,-0.1220703050494194,0.7324218153953552
1233105,0.0291748046875,0.5172119140625,0.85693359375,9.58251953125,-0.0610351525247097,0.7324218153953552
1233122,0.028564453125,0.5224609375,0.8631591796875,9.033203125,0.1220703050494194,0.6713866591453552
1233139,0.029296875,0.5252685546875,0.873291015625,7.995604991912842,0.1831054538488388,0.7934569716453552
1233172,0.033203125,0.5213623046875,0.876708984375,5.737304210662842,-0.1220703050494194,1.15966796875
1233189,0.0333251953125,0.5386962890625,0.899169921875,5.187987804412842,0.0,1.0986328125
1233205,0.0340576171875,0.5557861328125,0.9205322265625,4.08935546875,-0.2441406100988388,1.2817381620407104
1233237,0.02587890625,0.5445556640625,0.89990234375,2.685546636581421,-1.03759765625,2.01416015625
1233285,0.0196533203125,0.503173828125,0.849853515625,0.1831054538488388,-0.9765624403953552,2.197265625
1233307,0.0238037109375,0.485107421875,0.8311767578125,-0.9765624403953552,-0.6713866591453552,1.8920897245407104
1233324,0.0296630859375,0.5001220703125,0.8385009765625,-1.5258787870407104,-0.4882812201976776,1.7089842557907104
1233361,0.036376953125,0.520263671875,0.8690185546875,-2.685546636581421,-0.3662109076976776,1.6479490995407104
1233378,0.038818359375,0.5260009765625,0.878662109375,-2.746581792831421,-0.30517578125,1.5258787870407104
1233394,0.0452880859375,0.5513916015625,0.917724609375,-2.38037109375,-0.4882812201976776,1.3427733182907104
1233411,0.0498046875,0.5740966796875,0.9425048828125,-1.2817381620407104,-0.9155272841453552,1.4648436307907104
1233428,0.0501708984375,0.572998046875,0.9471435546875,-0.6103515625,-1.2817381620407104,1.5869139432907104
1233449,0.0452880859375,0.5401611328125,0.9036865234375,0.6713866591453552,-1.7700194120407104,1.4648436307907104
1233465,0.0421142578125,0.514404296875,0.868896484375,1.220703125,-1.7089842557907104,1.2817381620407104
1233482,0.0355224609375,0.4951171875,0.83935546875,2.01416015625,-1.5869139432907104,0.8544921278953552
1233499,0.03369140625,0.4833984375,0.8240966796875,2.38037109375,-1.5258787870407104,0.54931640625
1233532,0.0313720703125,0.4736328125,0.8057861328125,2.0751953125,-0.9155272841453552,-0.0610351525247097
1233549,0.031982421875,0.47705078125,0.8126220703125,2.01416015625,-0.8544921278953552,-0.1220703050494194
1233565,0.026123046875,0.473388671875,0.812744140625,1.8310545682907104,-0.7324218153953552,-0.30517578125
1233597,0.0211181640625,0.476318359375,0.813232421875,1.4038084745407104,-0.2441406100988388,-0.7934569716453552
1233613,0.0220947265625,0.48046875,0.818603515625,1.03759765625,0.1220703050494194,-1.0986328125
1233629,0.0224609375,0.4801025390625,0.8189697265625,0.7934569716453552,0.30517578125,-1.220703125
1233645,0.024658203125,0.4906005859375,0.8291015625,0.30517578125,0.7324218153953552,-1.5258787870407104
1233665,0.0289306640625,0.510986328125,0.853271484375,-0.0610351525247097,0.8544921278953552,-1.5869139432907104
1233681,0.0350341796875,0.521484375,0.8646240234375,-0.2441406100988388,0.7934569716453552,-1.5258787870407104
1233697,0.037109375,0.5291748046875,0.869140625,-0.3662109076976776,0.9765624403953552,-1.7089842557907104
1233713,0.0389404296875,0.548095703125,0.88525390625,-0.2441406100988388,1.15966796875,-1.7089842557907104
1233778,0.02685546875,0.5306396484375,0.8895263671875,0.1831054538488388,1.6479490995407104,-1.8920897245407104
1233799,0.0274658203125,0.535888671875,0.892578125,0.2441406100988388,1.6479490995407104,-1.9531248807907104
1233832,0.02734375,0.530517578125,0.8975830078125,0.4272460639476776,1.8920897245407104,-2.0751953125
1233849,0.02880859375,0.527099609375,0.8905029296875,0.4882812201976776,1.8310545682907104,-2.0751953125
1233865,0.0289306640625,0.5159912109375,0.8677978515625,0.4272460639476776,1.8920897245407104,-2.0751953125
1233903,0.031005859375,0.5028076171875,0.855712890625,-0.1220703050494194,2.13623046875,-2.0751953125
1233923,0.032470703125,0.5048828125,0.8558349609375,-0.4272460639476776,2.38037109375,-2.13623046875
1233939,0.0345458984375,0.5142822265625,0.86669921875,-0.4882812201976776,2.38037109375,-2.13623046875
1233959,0.0377197265625,0.52978515625,0.8917236328125,-0.3662109076976776,2.01416015625,-1.8920897245407104
1233975,0.036865234375,0.528564453125,0.893310546875,-0.30517578125,1.8920897245407104,-1.7089842557907104
1233992,0.0362548828125,0.5264892578125,0.8902587890625,-0.0610351525247097,1.6479490995407104,-1.6479490995407104
1234009,0.0380859375,0.53515625,0.9017333984375,0.1220703050494194,1.5869139432907104,-1.5258787870407104
1234025,0.0406494140625,0.5474853515625,0.9158935546875,0.2441406100988388,1.4038084745407104,-1.4038084745407104
1234074,0.0391845703125,0.5372314453125,0.898193359375,1.15966796875,0.54931640625,-0.8544921278953552
1234095,0.039306640625,0.5416259765625,0.9027099609375,1.2817381620407104,0.4272460639476776,-0.7324218153953552
1234111,0.0343017578125,0.5267333984375,0.885498046875,1.4648436307907104,-0.0610351525247097,-0.4272460639476776
1234128,0.0238037109375,0.50244140625,0.8470458984375,1.0986328125,0.0610351525247097,-0.6103515625
1234145,0.0189208984375,0.49755859375,0.850830078125,0.7934569716453552,0.3662109076976776,-0.7324218153953552
1234161,0.0184326171875,0.5052490234375,0.86865234375,0.0610351525247097,0.6713866591453552,-0.7324218153953552
1234195,0.0166015625,0.5174560546875,0.87060546875,-1.220703125,0.4882812201976776,-0.6103515625
1234259,0.0322265625,0.5352783203125,0.89697265625,-1.4038084745407104,0.1220703050494194,0.0
1234275,0.0423583984375,0.5364990234375,0.905029296875,-1.3427733182907104,-0.1831054538488388,0.1220703050494194
1234291,0.0455322265625,0.5350341796875,0.90234375,-1.2817381620407104,-0.3662109076976776,0.1831054538488388
1234307,0.04833984375,0.52587890625,0.88671875,-1.220703125,-0.4272460639476776,0.1220703050494194
1234324,0.051025390625,0.52734375,0.8929443359375,-0.9155272841453552,-0.4882812201976776,0.1831054538488388
1234345,0.050048828125,0.5269775390625,0.895751953125,-0.8544921278953552,-0.6713866591453552,0.30517578125
1234361,0.046875,0.5220947265625,0.890625,-0.9155272841453552,-0.8544921278953552,0.3662109076976776
1234382,0.04833984375,0.532958984375,0.8956298828125,-0.9155272841453552,-1.15966796875,0.4272460639476776
1234398,0.0458984375,0.5289306640625,0.88134765625,-0.9155272841453552,-1.3427733182907104,0.54931640625
1234415,0.0440673828125,0.515625,0.8614501953125,-0.9155272841453552,-1.6479490995407104,0.9155272841453552
1234432,0.04296875,0.508544921875,0.8497314453125,-0.9155272841453552,-1.6479490995407104,0.8544921278953552
1234449,0.044189453125,0.5155029296875,0.8570556640625,-1.03759765625,-1.6479490995407104,0.7934569716453552
1234470,0.046142578125,0.520263671875,0.86279296875,-0.9155272841453552,-1.9531248807907104,1.0986328125
1234486,0.0426025390625,0.5108642578125,0.8458251953125,-0.7934569716453552,-2.0751953125,1.220703125
1234551,0.0357666015625,0.4991455078125,0.8338623046875,-0.7324218153953552,-1.8310545682907104,1.03759765625
1234568,0.03271484375,0.5040283203125,0.829833984375,-0.6103515625,-1.5258787870407104,0.9155272841453552
1234616,0.027587890625,0.4820556640625,0.8232421875,-0.3662109076976776,-1.0986328125,0.7324218153953552
1234686,0.0411376953125,0.4547119140625,0.7911376953125,-1.03759765625,-0.2441406100988388,0.1831054538488388
1234703,0.040283203125,0.4495849609375,0.7811279296875,-0.8544921278953552,-0.1220703050494194,0.1831054538488388
1234736,0.0538330078125,0.4775390625,0.8262939453125,-0.7934569716453552,-0.0610351525247097,0.0610351525247097
1234753,0.0582275390625,0.48779296875,0.8411865234375,-0.6713866591453552,-0.4882812201976776,0.30517578125
1234769,0.0584716796875,0.473388671875,0.8065185546875,-0.7324218153953552,-1.5258787870407104,1.0986328125
1234785,0.047607421875,0.423583984375,0.723388671875,-0.9765624403953552,-1.3427733182907104,1.03759765625
1234805,0.0462646484375,0.4210205078125,0.731201171875,-1.220703125,-0.9155272841453552,0.8544921278953552
1234821,0.0458984375,0.4342041015625,0.7574462890625,-1.6479490995407104,-0.7324218153953552,0.6713866591453552
1234837,0.0394287109375,0.447021484375,0.7734375,-1.6479490995407104,-1.0986328125,0.8544921278953552
1234853,0.0357666015625,0.4454345703125,0.7724609375,-1.5869139432907104,-1.220703125,0.9765624403953552
1234869,0.0272216796875,0.427978515625,0.737060546875,-1.5869139432907104,-1.3427733182907104,1.0986328125
1234885,0.0233154296875,0.4034423828125,0.69873046875,-1.8310545682907104,-1.0986328125,1.03759765625
1234917,0.02685546875,0.40771484375,0.7025146484375,-2.990722417831421,0.3662109076976776,0.1220703050494194
1234933,0.0301513671875,0.4278564453125,0.725341796875,-2.929687261581421,0.7324218153953552,-0.1220703050494194
1234949,0.02978515625,0.4622802734375,0.76806640625,-2.3193359375,1.220703125,-0.4272460639476776
1234965,0.02978515625,0.4991455078125,0.808349609375,-1.8920897245407104,1.220703125,-0.54931640625
1234986,0.025634765625,0.4796142578125,0.7701416015625,-0.4882812201976776,1.220703125,-0.3662109076976776
1235007,0.024169921875,0.4676513671875,0.7574462890625,-0.2441406100988388,1.4038084745407104,-0.4882812201976776
1235023,0.021240234375,0.443603515625,0.7418212890625,-0.4882812201976776,1.9531248807907104,-0.6713866591453552
1235040,0.0272216796875,0.44140625,0.752197265625,-0.7934569716453552,2.0751953125,-0.8544921278953552
1235057,0.0340576171875,0.4466552734375,0.7523193359375,-1.15966796875,2.197265625,-0.9765624403953552
1235090,0.0416259765625,0.4998779296875,0.7828369140625,-0.7324218153953552,2.44140625,-1.220703125
1235107,0.046875,0.549560546875,0.8419189453125,0.1220703050494194,2.13623046875,-0.9155272841453552
1235123,0.0426025390625,0.5487060546875,0.8465576171875,0.7934569716453552,2.0751953125,-0.7934569716453552
1235153,0.0350341796875,0.5675048828125,0.8548583984375,2.868652105331421,1.0986328125,-0.3662109076976776
1235175,0.031005859375,0.5272216796875,0.7962646484375,4.08935546875,1.3427733182907104,-0.54931640625
1235191,0.0269775390625,0.5079345703125,0.7783203125,4.39453125,1.7700194120407104,-0.7934569716453552
1235208,0.028076171875,0.517822265625,0.8292236328125,4.39453125,2.868652105331421,-1.4038084745407104
1235225,0.03466796875,0.552490234375,0.8870849609375,4.33349609375,3.173827886581421,-1.8920897245407104
1235241,0.040283203125,0.576904296875,0.89990234375,4.45556640625,2.563476324081421,-1.6479490995407104
1235275,0.035888671875,0.5074462890625,0.7716064453125,4.94384765625,2.44140625,-1.3427733182907104
1235291,0.0386962890625,0.4808349609375,0.7532958984375,4.150390625,3.784179449081421,-1.9531248807907104
1235307,0.0565185546875,0.5113525390625,0.8594970703125,3.540038824081421,4.150390625,-2.38037109375
1235342,0.0692138671875,0.546630859375,0.899658203125,3.356933355331421,2.685546636581421,-2.13623046875
1235363,0.0697021484375,0.5467529296875,0.86572265625,3.234863042831421,2.624511480331421,-2.01416015625
1235433,0.084716796875,0.646240234375,1.0140380859375,3.662109136581421,0.8544921278953552,-0.7934569716453552
1235526,0.0443115234375,0.54443359375,0.9241943359375,0.6713866591453552,-1.4648436307907104,0.54931640625
1235543,0.0413818359375,0.5716552734375,0.9598388671875,-0.30517578125,-1.5258787870407104,0.2441406100988388
1235576,0.0557861328125,0.6241455078125,0.99365234375,-0.3662109076976776,-3.051757574081421,0.9765624403953552
1235610,0.069091796875,0.591796875,0.9102783203125,-0.1831054538488388,-2.563476324081421,0.8544921278953552
1235642,0.060302734375,0.5618896484375,0.8931884765625,-0.0610351525247097,-2.624511480331421,0.9155272841453552
1235659,0.0555419921875,0.5626220703125,0.9027099609375,-0.0610351525247097,-2.25830078125,0.4882812201976776
1235692,0.052001953125,0.5543212890625,0.892822265625,0.0,-2.807616949081421,0.54931640625
1235709,0.0572509765625,0.5679931640625,0.9022216796875,0.1831054538488388,-2.38037109375,0.0
1235726,0.0595703125,0.574951171875,0.9119873046875,0.4272460639476776,-2.3193359375,0.0
1235759,0.0616455078125,0.5760498046875,0.9400634765625,1.220703125,-3.173827886581421,0.2441406100988388
1235780,0.0540771484375,0.562255859375,0.9190673828125,1.4648436307907104,-3.051757574081421,0.0610351525247097
1235796,0.0521240234375,0.572021484375,0.927490234375,2.25830078125,-2.624511480331421,-0.4272460639476776
1235813,0.059814453125,0.592041015625,0.9599609375,2.807616949081421,-2.563476324081421,-0.4882812201976776
1235883,0.05126953125,0.564208984375,0.9393310546875,7.141112804412842,-2.746581792831421,-0.9765624403953552
1235900,0.056640625,0.591796875,0.97119140625,7.690429210662842,-3.112792730331421,-0.8544921278953552
1235916,0.0560302734375,0.5765380859375,0.9549560546875,7.995604991912842,-3.295898199081421,-0.7934569716453552
1235932,0.0570068359375,0.5604248046875,0.924560546875,8.60595703125,-3.051757574081421,-1.0986328125
1235952,0.054443359375,0.534423828125,0.9163818359375,8.85009765625,-2.624511480331421,-1.4038084745407104
1235968,0.0545654296875,0.549072265625,0.966064453125,8.9111328125,-2.25830078125,-1.8920897245407104
1235984,0.0546875,0.5609130859375,0.991943359375,8.7890625,-2.807616949081421,-1.9531248807907104
1236004,0.045654296875,0.554443359375,0.941162109375,8.7890625,-3.540038824081421,-1.8310545682907104
1236026,0.042236328125,0.52978515625,0.8719482421875,8.7890625,-3.173827886581421,-1.8310545682907104
1236042,0.0474853515625,0.519775390625,0.854248046875,8.6669921875,-2.563476324081421,-2.0751953125
1236059,0.0543212890625,0.5330810546875,0.88330078125,8.4228515625,-1.7700194120407104,-2.50244140625
1236108,0.05712890625,0.520751953125,0.9140625,8.6669921875,-2.25830078125,-2.50244140625
1236126,0.0540771484375,0.5057373046875,0.8927001953125,7.934569835662842,-2.197265625,-2.563476324081421
1236142,0.047119140625,0.487060546875,0.8714599609375,6.835937023162842,-1.5869139432907104,-2.685546636581421
1236174,0.0472412109375,0.5155029296875,0.9217529296875,5.493163585662842,-1.2817381620407104,-2.868652105331421
1236190,0.049072265625,0.5260009765625,0.932861328125,5.0048828125,-1.7089842557907104,-2.624511480331421
1236206,0.048095703125,0.5247802734375,0.9193115234375,4.82177734375,-1.8920897245407104,-2.50244140625
1236239,0.0352783203125,0.488037109375,0.8642578125,3.784179449081421,-1.03759765625,-2.746581792831421
1236260,-0.053466796875,0.464599609375,0.80517578125,5.065917491912842,1.5869139432907104,-3.967284917831421
1236276,0.0123291015625,0.4073486328125,0.7965087890625,6.652831554412842,3.417968511581421,-5.065917491912842
1236293,0.052734375,0.463134765625,0.832275390625,5.249022960662842,4.57763671875,-5.615233898162842
1236310,0.04248046875,0.4674072265625,0.82373046875,2.746581792831421,4.57763671875,-5.432128429412842
1236326,0.1246337890625,0.89111328125,1.4913330078125,-4.57763671875,1.6479490995407104,-2.624511480331421
1236343,0.089599609375,0.7996826171875,1.333740234375,-7.568358898162842,-5.432128429412842,2.01416015625
1236364,0.0152587890625,0.2952880859375,0.5418701171875,-11.474608421325684,-3.356933355331421,1.3427733182907104
1236380,0.0181884765625,0.4278564453125,0.6246337890625,-11.718749046325684,-2.563476324081421,0.8544921278953552
1236400,-0.00634765625,0.5081787109375,0.7557373046875,-0.0610351525247097,0.8544921278953552,0.0610351525247097
1236418,0.09521484375,0.614013671875,1.2733154296875,7.019042491912842,2.0751953125,0.0
1236440,0.075927734375,0.6134033203125,1.2431640625,0.4272460639476776,-2.38037109375,1.7700194120407104
1236456,-0.014404296875,0.367919921875,0.65283203125,0.4272460639476776,-1.4648436307907104,1.0986328125
1236473,0.0242919921875,0.4810791015625,0.8416748046875,0.9155272841453552,0.0610351525247097,-0.0610351525247097
1236490,0.0640869140625,0.601806640625,1.044189453125,2.563476324081421,-0.4882812201976776,0.6103515625
1236506,0.0718994140625,0.45849609375,0.885009765625,2.13623046875,-1.9531248807907104,1.03759765625
1236523,0.04443359375,0.4478759765625,0.821533203125,1.6479490995407104,-0.30517578125,0.3662109076976776
1236544,0.0372314453125,0.541748046875,0.966552734375,1.7089842557907104,-0.9765624403953552,0.6713866591453552
1236560,0.0322265625,0.4398193359375,0.84619140625,1.7089842557907104,-1.0986328125,0.9155272841453552
1236576,0.040771484375,0.4630126953125,0.8658447265625,1.220703125,-0.4272460639476776,0.2441406100988388
1236592,0.05615234375,0.5013427734375,0.93359375,1.03759765625,-0.54931640625,0.2441406100988388
1236609,0.0533447265625,0.4884033203125,0.8939208984375,0.9155272841453552,-0.6103515625,0.2441406100988388
1236630,0.04052734375,0.48486328125,0.878662109375,1.0986328125,-0.3662109076976776,0.2441406100988388
1236646,0.040771484375,0.5042724609375,0.9024658203125,1.4648436307907104,-0.3662109076976776,0.4272460639476776
1236664,0.0457763671875,0.4827880859375,0.880126953125,1.6479490995407104,-0.3662109076976776,0.3662109076976776
1236681,0.04638671875,0.4898681640625,0.8944091796875,1.8310545682907104,-0.3662109076976776,0.2441406100988388
1236711,0.0416259765625,0.486328125,0.888427734375,1.8920897245407104,-0.4272460639476776,0.30517578125
1236728,0.042724609375,0.48828125,0.8931884765625,1.9531248807907104,-0.4272460639476776,0.3662109076976776
1236773,0.044677734375,0.4779052734375,0.891845703125,1.4648436307907104,-0.30517578125,0.2441406100988388
1236795,0.0439453125,0.4810791015625,0.894287109375,1.4038084745407104,-0.30517578125,0.30517578125
1236811,0.0426025390625,0.484130859375,0.89599609375,1.3427733182907104,-0.2441406100988388,0.30517578125
1236828,0.0428466796875,0.484130859375,0.891845703125,1.220703125,-0.30517578125,0.2441406100988388
1236845,0.0443115234375,0.4853515625,0.895263671875,1.15966796875,-0.30517578125,0.30517578125
1236861,0.044189453125,0.485107421875,0.8956298828125,1.220703125,-0.2441406100988388,0.2441406100988388
1236893,0.04296875,0.4854736328125,0.8974609375,1.3427733182907104,-0.30517578125,0.2441406100988388
1236915,0.0423583984375,0.4847412109375,0.8948974609375,1.3427733182907104,-0.2441406100988388,0.1831054538488388
1236931,0.04345703125,0.4857177734375,0.891845703125,1.4038084745407104,-0.2441406100988388,0.1831054538488388
1236948,0.0430908203125,0.4842529296875,0.896484375,1.4038084745407104,-0.2441406100988388,0.1831054538488388
1236965,0.04296875,0.48388671875,0.894775390625,1.4648436307907104,-0.2441406100988388,0.2441406100988388
1236981,0.0438232421875,0.4844970703125,0.8968505859375,1.5869139432907104,-0.2441406100988388,0.1831054538488388
1237015,0.0430908203125,0.4862060546875,0.8958740234375,1.7700194120407104,-0.30517578125,0.1831054538488388
1237081,0.041259765625,0.479736328125,0.8974609375,2.01416015625,-0.2441406100988388,0.1831054538488388
1237103,0.041259765625,0.4803466796875,0.8992919921875,1.8920897245407104,-0.1831054538488388,0.1220703050494194
1237119,0.0438232421875,0.4786376953125,0.8961181640625,1.7700194120407104,-0.2441406100988388,0.1220703050494194
1237139,0.0443115234375,0.4815673828125,0.8983154296875,1.7089842557907104,-0.2441406100988388,0.2441406100988388
1237189,0.04248046875,0.4820556640625,0.8956298828125,2.0751953125,-0.1831054538488388,0.1831054538488388
1237207,0.0433349609375,0.4830322265625,0.8953857421875,2.38037109375,-0.2441406100988388,0.1220703050494194
1237223,0.0433349609375,0.4827880859375,0.8961181640625,2.624511480331421,-0.2441406100988388,0.1831054538488388
1237255,0.044189453125,0.479736328125,0.899169921875,3.051757574081421,-0.2441406100988388,0.1831054538488388
1237275,0.042236328125,0.474853515625,0.8983154296875,3.112792730331421,-0.2441406100988388,0.2441406100988388
1237295,0.043212890625,0.471435546875,0.896728515625,3.112792730331421,-0.1831054538488388,0.1831054538488388
1237311,0.043701171875,0.4730224609375,0.89990234375,3.112792730331421,-0.2441406100988388,0.1220703050494194
1237328,0.043212890625,0.4739990234375,0.900146484375,2.990722417831421,-0.1831054538488388,0.1220703050494194
1237349,0.0423583984375,0.4735107421875,0.901123046875,2.990722417831421,-0.1831054538488388,0.1831054538488388
1237365,0.0435791015625,0.47314453125,0.9017333984375,2.990722417831421,-0.2441406100988388,0.1220703050494194
1237382,0.043701171875,0.4716796875,0.8992919921875,2.990722417831421,-0.30517578125,0.0610351525247097
1237399,0.045166015625,0.471923828125,0.9036865234375,2.929687261581421,-0.2441406100988388,0.1220703050494194
1237432,0.0430908203125,0.4710693359375,0.9007568359375,2.929687261581421,-0.30517578125,0.1220703050494194
1237449,0.04345703125,0.4693603515625,0.9031982421875,2.868652105331421,-0.2441406100988388,0.1831054538488388
1237465,0.04248046875,0.4664306640625,0.9051513671875,2.746581792831421,-0.30517578125,0.1831054538488388
1237496,0.0430908203125,0.4686279296875,0.9066162109375,2.50244140625,-0.30517578125,0.1831054538488388
1237518,0.0435791015625,0.46875,0.90576171875,2.50244140625,-0.3662109076976776,0.1831054538488388
1237534,0.0433349609375,0.4656982421875,0.9014892578125,2.38037109375,-0.30517578125,0.1831054538488388
1237550,0.0433349609375,0.467041015625,0.906005859375,2.3193359375,-0.2441406100988388,0.1831054538488388
1237566,0.0430908203125,0.46630859375,0.9031982421875,2.38037109375,-0.30517578125,0.2441406100988388
1237613,0.0445556640625,0.4635009765625,0.9061279296875,2.13623046875,-0.2441406100988388,0.2441406100988388
1237635,0.0439453125,0.4622802734375,0.906982421875,2.01416015625,-0.1831054538488388,0.1831054538488388
1237651,0.0423583984375,0.4610595703125,0.9056396484375,1.8310545682907104,-0.2441406100988388,0.1831054538488388
1237668,0.0426025390625,0.4625244140625,0.9072265625,1.7700194120407104,-0.2441406100988388,0.1220703050494194
1237685,0.0430908203125,0.4632568359375,0.908935546875,1.5869139432907104,-0.1831054538488388,0.1831054538488388
1237701,0.0447998046875,0.4617919921875,0.906494140625,1.4038084745407104,-0.2441406100988388,0.1831054538488388
1237735,0.0421142578125,0.4619140625,0.9053955078125,1.220703125,-0.2441406100988388,0.1831054538488388
1237751,0.0416259765625,0.4622802734375,0.9053955078125,1.0986328125,-0.2441406100988388,0.2441406100988388
1237767,0.04296875,0.46484375,0.90771484375,1.0986328125,-0.2441406100988388,0.1831054538488388
1237803,0.0440673828125,0.4637451171875,0.9072265625,1.0986328125,-0.1831054538488388,0.2441406100988388
1237819,0.0435791015625,0.462646484375,0.908447265625,1.0986328125,-0.2441406100988388,0.30517578125
1237851,0.0438232421875,0.4620361328125,0.90625,1.03759765625,-0.2441406100988388,0.2441406100988388
1237873,0.04296875,0.4632568359375,0.9075927734375,1.03759765625,-0.30517578125,0.30517578125
1237889,0.042724609375,0.464111328125,0.905517578125,1.03759765625,-0.30517578125,0.2441406100988388
1237906,0.043701171875,0.4642333984375,0.905029296875,1.15966796875,-0.2441406100988388,0.2441406100988388
1237923,0.044189453125,0.4642333984375,0.9051513671875,1.3427733182907104,-0.2441406100988388,0.1831054538488388
1237939,0.0438232421875,0.4661865234375,0.906494140625,1.4038084745407104,-0.1831054538488388,0.1831054538488388
1237968,0.0438232421875,0.4639892578125,0.9061279296875,1.7700194120407104,-0.2441406100988388,0.2441406100988388
1237986,0.04248046875,0.4608154296875,0.906005859375,1.8310545682907104,-0.2441406100988388,0.1831054538488388
1238007,0.0423583984375,0.45751953125,0.90283203125,1.8310545682907104,-0.0610351525247097,0.0
1238023,0.0418701171875,0.458984375,0.891845703125,2.13623046875,0.6103515625,-0.54931640625
1238040,0.049560546875,0.486328125,0.9061279296875,2.50244140625,1.220703125,-0.9155272841453552
1238057,0.046630859375,0.4495849609375,0.885498046875,3.906249761581421,2.50244140625,-1.2817381620407104
1238090,0.0543212890625,0.435302734375,0.990966796875,4.08935546875,3.906249761581421,-1.9531248807907104
1238107,0.1004638671875,0.7174072265625,1.2769775390625,0.9765624403953552,2.624511480331421,-1.8920897245407104
1238123,0.1326904296875,0.802734375,1.3890380859375,1.0986328125,0.0610351525247097,-0.30517578125
1238154,0.124267578125,0.7896728515625,1.2314453125,-0.8544921278953552,-1.6479490995407104,2.38037109375
1238175,0.089111328125,0.693115234375,1.2025146484375,-3.356933355331421,-1.3427733182907104,2.807616949081421
1238191,0.04541015625,0.6234130859375,1.144775390625,-5.737304210662842,-1.2817381620407104,2.990722417831421
1238208,0.0430908203125,0.62451171875,1.1688232421875,-10.375975608825684,-0.4272460639476776,2.44140625
1238225,0.0556640625,0.666015625,1.2230224609375,-13.244627952575684,0.54931640625,2.13623046875
1238241,0.0830078125,0.7567138671875,1.352294921875,-14.160155296325684,0.30517578125,2.25830078125
1238275,0.03662109375,0.66845703125,1.2152099609375,-15.686034202575684,-1.5869139432907104,3.967284917831421
1238343,0.0185546875,0.6558837890625,1.091064453125,-18.85986328125,4.638671875,0.6713866591453552
1238365,0.044921875,0.744140625,1.185546875,-17.08984375,4.94384765625,1.03759765625
1238381,0.049072265625,0.674560546875,1.1488037109375,-16.11328125,4.5166015625,1.4648436307907104
1238400,0.04638671875,0.61279296875,1.0755615234375,-15.808104515075684,4.8828125,1.15966796875
1238417,0.0509033203125,0.6102294921875,1.0721435546875,-15.869139671325684,5.676269054412842,0.4882812201976776
1238433,0.0626220703125,0.6175537109375,1.0633544921875,-15.808104515075684,5.249022960662842,0.6713866591453552
1238450,0.0621337890625,0.61865234375,1.009521484375,-14.648436546325684,5.187987804412842,0.7934569716453552
1238467,0.0687255859375,0.62646484375,1.011962890625,-13.732909202575684,5.187987804412842,0.8544921278953552
1238483,0.069091796875,0.6326904296875,1.0068359375,-11.718749046325684,4.638671875,1.15966796875
1238523,0.0513916015625,0.589111328125,0.935791015625,-6.591796398162842,3.906249761581421,1.6479490995407104
1238539,0.0430908203125,0.568603515625,0.8895263671875,-3.173827886581421,4.39453125,1.3427733182907104
1238555,0.0489501953125,0.5816650390625,0.8975830078125,-1.03759765625,4.45556640625,1.4038084745407104
1238571,0.0511474609375,0.5528564453125,0.863525390625,2.990722417831421,3.906249761581421,1.9531248807907104
1238591,0.044677734375,0.495361328125,0.7794189453125,6.591796398162842,3.417968511581421,2.38037109375
1238607,0.0347900390625,0.412841796875,0.6451416015625,7.934569835662842,3.295898199081421,2.38037109375
1238643,0.02490234375,0.3084716796875,0.476318359375,10.803221702575684,4.39453125,2.25830078125
1238659,0.0240478515625,0.2791748046875,0.434326171875,11.230467796325684,5.371093273162842,1.7700194120407104
1238675,0.0245361328125,0.2890625,0.4405517578125,11.596678733825684,5.920409679412842,1.5869139432907104
1238691,0.02783203125,0.31884765625,0.484375,13.000487327575684,5.920409679412842,2.01416015625
1238707,0.0255126953125,0.318115234375,0.4874267578125,13.916014671325684,5.798339366912842,2.197265625
1238755,0.0262451171875,0.286376953125,0.4664306640625,17.39501953125,6.225585460662842,2.25830078125
1238771,0.0364990234375,0.30810546875,0.5279541015625,18.310546875,6.469726085662842,2.197265625
1238787,0.0423583984375,0.313232421875,0.556396484375,18.798828125,6.286620616912842,2.38037109375
1238823,0.048095703125,0.254150390625,0.56396484375,18.798828125,5.493163585662842,2.44140625
1238839,0.0526123046875,0.2547607421875,0.5604248046875,18.6767578125,5.676269054412842,2.13623046875
1238855,0.0533447265625,0.2655029296875,0.5572509765625,18.9208984375,5.798339366912842,1.8920897245407104
1238871,0.05908203125,0.29052734375,0.612060546875,19.47021484375,5.981444835662842,1.7700194120407104
1238935,0.0989990234375,0.3533935546875,0.79833984375,19.83642578125,4.150390625,2.44140625
1238956,0.107421875,0.3631591796875,0.860107421875,19.775390625,3.051757574081421,2.746581792831421
1238972,0.1068115234375,0.3580322265625,0.886962890625,19.6533203125,2.624511480331421,2.746581792831421
1238989,0.1083984375,0.3726806640625,0.90966796875,18.4326171875,1.8920897245407104,2.624511480331421
1239006,0.1072998046875,0.392822265625,0.94482421875,17.333984375,0.7934569716453552,2.746581792831421
1239022,0.102783203125,0.42041015625,0.92626953125,17.15087890625,0.2441406100988388,2.868652105331421
1239054,0.09375,0.42041015625,0.936279296875,17.15087890625,-0.8544921278953552,3.051757574081421
1239071,0.088623046875,0.400634765625,0.9403076171875,16.6015625,-1.5258787870407104,3.234863042831421
1239087,0.0872802734375,0.3990478515625,0.9410400390625,16.05224609375,-1.7700194120407104,3.112792730331421
1239121,0.07763671875,0.384521484375,0.90234375,13.977049827575684,-2.197265625,3.112792730331421
1239175,0.0731201171875,0.389404296875,0.9287109375,11.169432640075684,-2.50244140625,2.807616949081421
1239192,0.0718994140625,0.3843994140625,0.9342041015625,10.742186546325684,-2.50244140625,2.746581792831421
1239209,0.0716552734375,0.391357421875,0.9462890625,9.8876953125,-2.38037109375,2.44140625
1239225,0.0716552734375,0.406982421875,0.9713134765625,9.09423828125,-2.746581792831421,2.50244140625
1239275,0.072998046875,0.404296875,0.973876953125,7.019042491912842,-2.685546636581421,2.197265625
1239307,0.077880859375,0.39892578125,0.98095703125,5.554198741912842,-3.234863042831421,2.3193359375
1239324,0.0770263671875,0.38671875,0.96826171875,5.126952648162842,-3.295898199081421,2.25830078125
1239361,0.070556640625,0.3671875,0.940185546875,3.540038824081421,-3.662109136581421,2.01416015625
1239378,0.0721435546875,0.373779296875,0.9420166015625,2.746581792831421,-3.601073980331421,1.8310545682907104
1239394,0.0775146484375,0.384765625,0.9571533203125,2.0751953125,-3.906249761581421,2.0751953125
1239411,0.0721435546875,0.375244140625,0.9521484375,1.220703125,-4.39453125,2.25830078125
1239428,0.0687255859375,0.3671875,0.9451904296875,0.6713866591453552,-4.5166015625,2.3193359375
1239449,0.0689697265625,0.357666015625,0.933349609375,-0.4882812201976776,-4.57763671875,2.13623046875
1239465,0.0693359375,0.36083984375,0.9300537109375,-0.9765624403953552,-4.5166015625,2.13623046875
1239482,0.0704345703125,0.370361328125,0.95166015625,-1.7700194120407104,-4.45556640625,2.01416015625
1239499,0.06884765625,0.3724365234375,0.954833984375,-2.44140625,-4.7607421875,2.13623046875
1239529,0.062744140625,0.368896484375,0.947509765625,-3.112792730331421,-4.69970703125,1.7700194120407104
1239594,0.053466796875,0.366455078125,0.92431640625,-4.0283203125,-4.69970703125,1.15966796875
