tMillis,ax,ay,az,gx,gy,gz
1693005,0.04052734375,-0.299560546875,0.97802734375,0.6713866591453552,-0.2441406100988388,0.30517578125
1693026,0.0401611328125,-0.2994384765625,0.97802734375,0.7324218153953552,-0.2441406100988388,0.30517578125
1693043,0.04052734375,-0.301513671875,0.9814453125,0.7324218153953552,-0.2441406100988388,0.2441406100988388
1693060,0.0404052734375,-0.30029296875,0.979736328125,0.7324218153953552,-0.1831054538488388,0.2441406100988388
1693076,0.04052734375,-0.30078125,0.9774169921875,0.7324218153953552,-0.2441406100988388,0.2441406100988388
1693097,0.041259765625,-0.2999267578125,0.97900390625,0.6713866591453552,-0.30517578125,0.2441406100988388
1693117,0.041015625,-0.2994384765625,0.97802734375,0.6713866591453552,-0.2441406100988388,0.1831054538488388
1693134,0.039794921875,-0.2994384765625,0.9779052734375,0.6713866591453552,-0.2441406100988388,0.2441406100988388
1693150,0.0390625,-0.3006591796875,0.9791259765625,0.7934569716453552,-0.2441406100988388,0.2441406100988388
1693168,0.039794921875,-0.299560546875,0.97900390625,0.7324218153953552,-0.2441406100988388,0.2441406100988388
1693190,0.040283203125,-0.300537109375,0.9783935546875,0.6713866591453552,-0.2441406100988388,0.30517578125
1693220,0.0418701171875,-0.30126953125,0.9781494140625,0.6713866591453552,-0.2441406100988388,0.1831054538488388
1693286,0.040771484375,-0.2994384765625,0.9786376953125,0.6713866591453552,-0.1831054538488388,0.1831054538488388
1693358,0.0394287109375,-0.301025390625,0.9808349609375,0.7324218153953552,-0.2441406100988388,0.2441406100988388
1693375,0.0389404296875,-0.30126953125,0.981201171875,0.7934569716453552,-0.2441406100988388,0.2441406100988388
1693408,0.040771484375,-0.300048828125,0.9781494140625,0.7324218153953552,-0.30517578125,0.1831054538488388
1693425,0.041259765625,-0.3001708984375,0.978515625,0.7934569716453552,-0.2441406100988388,0.1831054538488388
1693441,0.0401611328125,-0.30029296875,0.979736328125,0.7934569716453552,-0.30517578125,0.30517578125
1693458,0.039794921875,-0.3004150390625,0.978759765625,0.7324218153953552,-0.30517578125,0.2441406100988388
1693478,0.040771484375,-0.300048828125,0.9779052734375,0.7324218153953552,-0.30517578125,0.30517578125
1693494,0.0413818359375,-0.299560546875,0.978271484375,0.7934569716453552,-0.30517578125,0.30517578125
1693510,0.0413818359375,-0.30126953125,0.9796142578125,0.7324218153953552,-0.1831054538488388,0.2441406100988388
1693527,0.040283203125,-0.300537109375,0.978271484375,0.7324218153953552,-0.2441406100988388,0.2441406100988388
1693580,0.041259765625,-0.299072265625,0.978271484375,0.6713866591453552,-0.30517578125,0.1831054538488388
1693598,0.0389404296875,-0.3009033203125,0.980224609375,0.7324218153953552,-0.2441406100988388,0.2441406100988388
1693614,0.0394287109375,-0.3001708984375,0.9794921875,0.7324218153953552,-0.2441406100988388,0.2441406100988388
1693645,0.0408935546875,-0.2996826171875,0.9786376953125,0.7324218153953552,-0.1831054538488388,0.1831054538488388
1693661,0.0411376953125,-0.2996826171875,0.9793701171875,0.7324218153953552,-0.1831054538488388,0.2441406100988388
1693678,0.039794921875,-0.299072265625,0.978271484375,0.7324218153953552,-0.2441406100988388,0.30517578125
1693710,0.0400390625,-0.30029296875,0.9815673828125,0.7324218153953552,-0.30517578125,0.2441406100988388
1693726,0.0406494140625,-0.3004150390625,0.9793701171875,0.7324218153953552,-0.30517578125,0.2441406100988388
1693742,0.041015625,-0.300537109375,0.978271484375,0.7324218153953552,-0.2441406100988388,0.1831054538488388
1693758,0.0400390625,-0.3011474609375,0.9783935546875,0.7324218153953552,-0.30517578125,0.2441406100988388
1693783,0.0399169921875,-0.3009033203125,0.980224609375,0.6713866591453552,-0.30517578125,0.2441406100988388
1693799,0.040283203125,-0.30029296875,0.978759765625,0.6713866591453552,-0.30517578125,0.2441406100988388
1693816,0.04052734375,-0.300048828125,0.9779052734375,0.6713866591453552,-0.2441406100988388,0.2441406100988388
1693833,0.0406494140625,-0.2999267578125,0.978515625,0.6713866591453552,-0.30517578125,0.30517578125
1693849,0.04052734375,-0.298828125,0.979248046875,0.7324218153953552,-0.2441406100988388,0.30517578125
1693883,0.041015625,-0.30126953125,0.978759765625,0.7324218153953552,-0.2441406100988388,0.2441406100988388
1693900,0.04052734375,-0.30029296875,0.9796142578125,0.7324218153953552,-0.3662109076976776,0.2441406100988388
1693921,0.040283203125,-0.30029296875,0.9794921875,0.7324218153953552,-0.30517578125,0.2441406100988388
1693937,0.0408935546875,-0.299560546875,0.980224609375,0.6713866591453552,-0.1831054538488388,0.2441406100988388
1693955,0.0408935546875,-0.2999267578125,0.9815673828125,0.7324218153953552,-0.2441406100988388,0.30517578125
1693972,0.0391845703125,-0.2996826171875,0.9776611328125,0.7324218153953552,-0.2441406100988388,0.30517578125
1694005,0.040771484375,-0.301025390625,0.9805908203125,0.6103515625,-0.30517578125,0.2441406100988388
1694021,0.0404052734375,-0.2999267578125,0.9786376953125,0.7324218153953552,-0.2441406100988388,0.2441406100988388
1694037,0.0394287109375,-0.301025390625,0.97900390625,0.7324218153953552,-0.1831054538488388,0.1831054538488388
1694067,0.0426025390625,-0.30029296875,0.9801025390625,0.7934569716453552,-0.30517578125,0.2441406100988388
1694088,0.040283203125,-0.30078125,0.978515625,0.7324218153953552,-0.30517578125,0.30517578125
1694105,0.0396728515625,-0.300537109375,0.978271484375,0.7324218153953552,-0.2441406100988388,0.30517578125
1694122,0.0400390625,-0.301025390625,0.9805908203125,0.7934569716453552,-0.30517578125,0.30517578125
1694139,0.040771484375,-0.300048828125,0.97900390625,0.7324218153953552,-0.2441406100988388,0.1831054538488388
1694156,0.040771484375,-0.3001708984375,0.9791259765625,0.6713866591453552,-0.2441406100988388,0.2441406100988388
1694186,0.03955078125,-0.300537109375,0.9803466796875,0.7324218153953552,-0.2441406100988388,0.2441406100988388
1694202,0.0399169921875,-0.3006591796875,0.980224609375,0.7324218153953552,-0.30517578125,0.30517578125
1694222,0.040771484375,-0.3009033203125,0.980224609375,0.7324218153953552,-0.30517578125,0.2441406100988388
1694238,0.041015625,-0.29931640625,0.9783935546875,0.6713866591453552,-0.30517578125,0.2441406100988388
1694263,0.04052734375,-0.300537109375,0.9788818359375,0.7324218153953552,-0.30517578125,0.2441406100988388
1694279,0.040771484375,-0.3011474609375,0.9793701171875,0.6713866591453552,-0.30517578125,0.2441406100988388
1694296,0.0406494140625,-0.3006591796875,0.9798583984375,0.6713866591453552,-0.2441406100988388,0.30517578125
1694313,0.040283203125,-0.2998046875,0.978515625,0.6713866591453552,-0.2441406100988388,0.30517578125
1694329,0.040283203125,-0.300537109375,0.979248046875,0.7324218153953552,-0.2441406100988388,0.2441406100988388
1694363,0.04052734375,-0.3016357421875,0.9798583984375,0.7324218153953552,-0.30517578125,0.2441406100988388
1694380,0.0406494140625,-0.3018798828125,0.9805908203125,0.6713866591453552,-0.2441406100988388,0.1831054538488388
1694401,0.0400390625,-0.3006591796875,0.9779052734375,0.6103515625,-0.2441406100988388,0.1831054538488388
1694417,0.0406494140625,-0.3009033203125,0.9766845703125,0.7324218153953552,-0.2441406100988388,0.2441406100988388
1694485,0.0411376953125,-0.2994384765625,0.9786376953125,0.6103515625,-0.2441406100988388,0.2441406100988388
1694501,0.0418701171875,-0.299560546875,0.9779052734375,0.6713866591453552,-0.1831054538488388,0.2441406100988388
1694517,0.0411376953125,-0.300048828125,0.977783203125,0.6713866591453552,-0.1831054538488388,0.2441406100988388
1694550,0.0396728515625,-0.2996826171875,0.977294921875,0.7934569716453552,-0.2441406100988388,0.2441406100988388
1694566,0.0396728515625,-0.300048828125,0.9783935546875,0.7324218153953552,-0.30517578125,0.30517578125
1694582,0.040283203125,-0.3004150390625,0.9791259765625,0.6713866591453552,-0.2441406100988388,0.2441406100988388
1694598,0.039794921875,-0.3004150390625,0.977783203125,0.6713866591453552,-0.1831054538488388,0.1831054538488388
1694671,0.0411376953125,-0.301025390625,0.980224609375,0.7934569716453552,-0.30517578125,0.2441406100988388
1694688,0.0404052734375,-0.3004150390625,0.9783935546875,0.7324218153953552,-0.30517578125,0.1831054538488388
1694704,0.039794921875,-0.30029296875,0.9779052734375,0.7324218153953552,-0.30517578125,0.2441406100988388
1694721,0.0406494140625,-0.3001708984375,0.9779052734375,0.7324218153953552,-0.2441406100988388,0.1831054538488388
1694738,0.041015625,-0.300537109375,0.979248046875,0.7324218153953552,-0.2441406100988388,0.1831054538488388
1694754,0.041259765625,-0.300048828125,0.9805908203125,0.6713866591453552,-0.3662109076976776,0.2441406100988388
1694786,0.040771484375,-0.2999267578125,0.9788818359375,0.6713866591453552,-0.2441406100988388,0.30517578125
1694807,0.0404052734375,-0.300537109375,0.977294921875,0.7324218153953552,-0.30517578125,0.2441406100988388
1694823,0.0408935546875,-0.3009033203125,0.9794921875,0.7324218153953552,-0.30517578125,0.2441406100988388
1694840,0.0399169921875,-0.299560546875,0.9791259765625,0.7324218153953552,-0.30517578125,0.1831054538488388
1694858,0.0396728515625,-0.2994384765625,0.978515625,0.7324218153953552,-0.2441406100988388,0.2441406100988388
1694874,0.041015625,-0.30126953125,0.9793701171875,0.7324218153953552,-0.2441406100988388,0.2441406100988388
1694906,0.039794921875,-0.30029296875,0.978515625,0.6713866591453552,-0.30517578125,0.2441406100988388
1694928,0.0396728515625,-0.3009033203125,0.9771728515625,0.7324218153953552,-0.30517578125,0.2441406100988388
1694944,0.0408935546875,-0.300048828125,0.97705078125,0.6713866591453552,-0.30517578125,0.2441406100988388
1694961,0.0413818359375,-0.3004150390625,0.9774169921875,0.6713866591453552,-0.30517578125,0.2441406100988388
1694978,0.0411376953125,-0.3001708984375,0.978759765625,0.6713866591453552,-0.30517578125,0.2441406100988388
1694994,0.040771484375,-0.3011474609375,0.980712890625,0.6103515625,-0.30517578125,0.2441406100988388
1695026,0.041259765625,-0.3001708984375,0.9788818359375,0.6713866591453552,-0.2441406100988388,0.30517578125
1695048,0.04052734375,-0.2991943359375,0.9783935546875,0.6713866591453552,-0.30517578125,0.30517578125
1695064,0.0399169921875,-0.3001708984375,0.979248046875,0.6713866591453552,-0.30517578125,0.2441406100988388
1695081,0.0399169921875,-0.3009033203125,0.9783935546875,0.7324218153953552,-0.2441406100988388,0.2441406100988388
1695098,0.04052734375,-0.2996826171875,0.977783203125,0.7324218153953552,-0.1831054538488388,0.2441406100988388
1695114,0.0400390625,-0.30029296875,0.98095703125,0.6713866591453552,-0.1831054538488388,0.2441406100988388
1695148,0.0399169921875,-0.3006591796875,0.9786376953125,0.6713866591453552,-0.2441406100988388,0.2441406100988388
1695164,0.04052734375,-0.3006591796875,0.9796142578125,0.6103515625,-0.2441406100988388,0.30517578125
1695180,0.0411376953125,-0.300537109375,0.9791259765625,0.6103515625,-0.2441406100988388,0.30517578125
1695216,0.0399169921875,-0.3004150390625,0.9803466796875,0.7324218153953552,-0.30517578125,0.2441406100988388
1695232,0.0416259765625,-0.2999267578125,0.978759765625,0.6713866591453552,-0.30517578125,0.2441406100988388
1695248,0.041748046875,-0.2996826171875,0.9783935546875,0.6713866591453552,-0.2441406100988388,0.2441406100988388
1695264,0.039794921875,-0.2999267578125,0.978759765625,0.7324218153953552,-0.2441406100988388,0.2441406100988388
1695281,0.0396728515625,-0.30078125,0.9796142578125,0.7324218153953552,-0.30517578125,0.2441406100988388
1695302,0.0396728515625,-0.3006591796875,0.978271484375,0.6713866591453552,-0.2441406100988388,0.2441406100988388
1695318,0.0400390625,-0.2996826171875,0.97802734375,0.7324218153953552,-0.2441406100988388,0.2441406100988388
1695335,0.0404052734375,-0.2999267578125,0.9796142578125,0.7934569716453552,-0.2441406100988388,0.2441406100988388
1695352,0.0404052734375,-0.3004150390625,0.98095703125,0.7324218153953552,-0.30517578125,0.2441406100988388
1695385,0.041015625,-0.2999267578125,0.9781494140625,0.7934569716453552,-0.1831054538488388,0.30517578125
1695401,0.0406494140625,-0.2994384765625,0.979248046875,0.7324218153953552,-0.1831054538488388,0.30517578125
1695417,0.040771484375,-0.300537109375,0.97900390625,0.7324218153953552,-0.2441406100988388,0.30517578125
1695447,0.041259765625,-0.3018798828125,0.97802734375,0.7934569716453552,-0.30517578125,0.30517578125
1695468,0.0404052734375,-0.300048828125,0.97802734375,0.7934569716453552,-0.2441406100988388,0.2441406100988388
1695489,0.0394287109375,-0.2984619140625,0.9783935546875,0.6713866591453552,-0.1831054538488388,0.1831054538488388
1695507,0.0396728515625,-0.3006591796875,0.9788818359375,0.6713866591453552,-0.2441406100988388,0.2441406100988388
1695524,0.0406494140625,-0.3021240234375,0.98095703125,0.7324218153953552,-0.30517578125,0.2441406100988388
1695541,0.0408935546875,-0.3021240234375,0.9818115234375,0.7324218153953552,-0.2441406100988388,0.30517578125
1695557,0.0399169921875,-0.2999267578125,0.978759765625,0.7934569716453552,-0.2441406100988388,0.30517578125
1695577,0.0396728515625,-0.2996826171875,0.97705078125,0.7324218153953552,-0.2441406100988388,0.2441406100988388
1695593,0.041015625,-0.300537109375,0.9796142578125,0.7324218153953552,-0.2441406100988388,0.2441406100988388
1695609,0.040771484375,-0.301513671875,0.980224609375,0.7324218153953552,-0.1831054538488388,0.2441406100988388
1695625,0.0400390625,-0.30126953125,0.9774169921875,0.7324218153953552,-0.1831054538488388,0.2441406100988388
1695641,0.04052734375,-0.3009033203125,0.9769287109375,0.6713866591453552,-0.1831054538488388,0.2441406100988388
1695657,0.0413818359375,-0.2991943359375,0.9769287109375,0.6713866591453552,-0.2441406100988388,0.2441406100988388
1695687,0.0390625,-0.2999267578125,0.979736328125,0.7324218153953552,-0.30517578125,0.2441406100988388
1695708,0.0418701171875,-0.30029296875,0.980712890625,0.7324218153953552,-0.2441406100988388,0.2441406100988388
1695724,0.0413818359375,-0.301025390625,0.981201171875,0.7934569716453552,-0.2441406100988388,0.2441406100988388
1695741,0.0400390625,-0.3001708984375,0.97802734375,0.7324218153953552,-0.30517578125,0.2441406100988388
1695758,0.0400390625,-0.300537109375,0.97802734375,0.7324218153953552,-0.30517578125,0.1831054538488388
1695774,0.041748046875,-0.3001708984375,0.9801025390625,0.6713866591453552,-0.30517578125,0.30517578125
1695806,0.0396728515625,-0.30029296875,0.98046875,0.7324218153953552,-0.30517578125,0.1831054538488388
1695828,0.0408935546875,-0.300048828125,0.978759765625,0.6713866591453552,-0.2441406100988388,0.1831054538488388
1695844,0.040283203125,-0.3016357421875,0.9794921875,0.7934569716453552,-0.2441406100988388,0.1831054538488388
1695861,0.040283203125,-0.301513671875,0.980224609375,0.7934569716453552,-0.30517578125,0.2441406100988388
1695878,0.0413818359375,-0.30078125,0.9779052734375,0.7324218153953552,-0.30517578125,0.2441406100988388
1695894,0.0391845703125,-0.300048828125,0.9759521484375,0.7324218153953552,-0.2441406100988388,0.30517578125
1695928,0.0406494140625,-0.30078125,0.98095703125,0.7934569716453552,-0.2441406100988388,0.1831054538488388
1695944,0.03955078125,-0.3006591796875,0.977294921875,0.7324218153953552,-0.30517578125,0.2441406100988388
1695960,0.039794921875,-0.3006591796875,0.9803466796875,0.7324218153953552,-0.2441406100988388,0.2441406100988388
1696001,0.04150390625,-0.3011474609375,0.98046875,0.7324218153953552,-0.30517578125,0.30517578125
1696017,0.0413818359375,-0.299560546875,0.9755859375,0.7324218153953552,-0.30517578125,0.2441406100988388
1696034,0.0408935546875,-0.301025390625,0.97900390625,0.7324218153953552,-0.30517578125,0.2441406100988388
1696053,0.041015625,-0.301513671875,0.982666015625,0.6713866591453552,-0.3662109076976776,0.2441406100988388
1696070,0.041015625,-0.3009033203125,0.978759765625,0.7324218153953552,-0.2441406100988388,0.2441406100988388
1696086,0.0408935546875,-0.299560546875,0.977294921875,0.6713866591453552,-0.2441406100988388,0.1831054538488388
1696103,0.041259765625,-0.300048828125,0.9788818359375,0.6713866591453552,-0.2441406100988388,0.1831054538488388
1696120,0.041015625,-0.300537109375,0.9781494140625,0.7324218153953552,-0.30517578125,0.30517578125
1696141,0.0413818359375,-0.3004150390625,0.979248046875,0.6713866591453552,-0.3662109076976776,0.2441406100988388
1696157,0.0399169921875,-0.3011474609375,0.9796142578125,0.6713866591453552,-0.30517578125,0.2441406100988388
1696174,0.040283203125,-0.3006591796875,0.9771728515625,0.6713866591453552,-0.30517578125,0.2441406100988388
1696191,0.0396728515625,-0.3017578125,0.981689453125,0.6713866591453552,-0.30517578125,0.2441406100988388
1696224,0.041015625,-0.2984619140625,0.9725341796875,0.6103515625,-0.2441406100988388,0.30517578125
1696241,0.0400390625,-0.301025390625,0.9820556640625,0.6713866591453552,-0.30517578125,0.2441406100988388
1696257,0.041015625,-0.2999267578125,0.9793701171875,0.6713866591453552,-0.2441406100988388,0.30517578125
1696289,0.0401611328125,-0.3013916015625,0.977783203125,0.6103515625,-0.2441406100988388,0.1831054538488388
1696305,0.04150390625,-0.3004150390625,0.978515625,0.6713866591453552,-0.2441406100988388,0.1831054538488388
1696321,0.0411376953125,-0.3004150390625,0.978515625,0.6103515625,-0.2441406100988388,0.1831054538488388
1696337,0.039794921875,-0.300537109375,0.978759765625,0.6713866591453552,-0.30517578125,0.2441406100988388
1696362,0.0401611328125,-0.3001708984375,0.9796142578125,0.6103515625,-0.30517578125,0.2441406100988388
1696378,0.041015625,-0.30078125,0.9814453125,0.6103515625,-0.2441406100988388,0.30517578125
1696395,0.041015625,-0.3017578125,0.9844970703125,0.6713866591453552,-0.2441406100988388,0.2441406100988388
1696416,0.041015625,-0.3001708984375,0.980224609375,0.6713866591453552,-0.1831054538488388,0.2441406100988388
1696432,0.040283203125,-0.298828125,0.9715576171875,0.6713866591453552,-0.2441406100988388,0.30517578125
1696465,0.040283203125,-0.30078125,0.98193359375,0.7324218153953552,-0.30517578125,0.30517578125
1696481,0.0394287109375,-0.30029296875,0.97998046875,0.7324218153953552,-0.30517578125,0.3662109076976776
1696497,0.039794921875,-0.2984619140625,0.9744873046875,0.7324218153953552,-0.2441406100988388,0.1831054538488388
1696529,0.040771484375,-0.3011474609375,0.9813232421875,0.7324218153953552,-0.2441406100988388,0.2441406100988388
1696545,0.0401611328125,-0.302001953125,0.98291015625,0.7324218153953552,-0.1831054538488388,0.2441406100988388
1696561,0.03955078125,-0.301025390625,0.9793701171875,0.7324218153953552,-0.2441406100988388,0.2441406100988388
1696577,0.0408935546875,-0.299560546875,0.9779052734375,0.7324218153953552,-0.2441406100988388,0.2441406100988388
1696602,0.04150390625,-0.2987060546875,0.9775390625,0.7324218153953552,-0.2441406100988388,0.2441406100988388
1696618,0.0408935546875,-0.3011474609375,0.9788818359375,0.7934569716453552,-0.1831054538488388,0.2441406100988388
1696635,0.040283203125,-0.30126953125,0.977783203125,0.7934569716453552,-0.1831054538488388,0.1831054538488388
1696656,0.0399169921875,-0.30078125,0.980712890625,0.7324218153953552,-0.2441406100988388,0.2441406100988388
1696672,0.04052734375,-0.298095703125,0.9742431640625,0.8544921278953552,-0.3662109076976776,0.30517578125
1696705,0.040771484375,-0.3017578125,0.9830322265625,0.7324218153953552,-0.30517578125,0.30517578125
1696727,0.0401611328125,-0.3018798828125,0.98046875,0.7324218153953552,-0.2441406100988388,0.2441406100988388
1696743,0.0401611328125,-0.29931640625,0.9736328125,0.7934569716453552,-0.2441406100988388,0.30517578125
1696760,0.0406494140625,-0.3013916015625,0.9815673828125,0.7934569716453552,-0.30517578125,0.2441406100988388
1696777,0.04052734375,-0.3009033203125,0.98193359375,0.7934569716453552,-0.30517578125,0.1831054538488388
1696793,0.0401611328125,-0.30078125,0.9796142578125,0.7934569716453552,-0.1831054538488388,0.2441406100988388
1696825,0.042236328125,-0.2991943359375,0.9716796875,0.7934569716453552,-0.30517578125,0.2441406100988388
1696847,0.0411376953125,-0.296630859375,0.9639892578125,0.7324218153953552,-0.2441406100988388,0.2441406100988388
1696863,0.0408935546875,-0.3043212890625,0.9896240234375,0.7324218153953552,-0.3662109076976776,0.2441406100988388
1696880,0.040771484375,-0.30615234375,0.9951171875,0.7324218153953552,-0.3662109076976776,0.1831054538488388
1696897,0.03857421875,-0.302490234375,0.9825439453125,0.7934569716453552,-0.1831054538488388,0.30517578125
1696913,0.03759765625,-0.298583984375,0.97265625,0.7324218153953552,-0.2441406100988388,0.30517578125
1696947,0.0400390625,-0.302001953125,0.981689453125,0.7934569716453552,-0.30517578125,0.2441406100988388
1696963,0.037353515625,-0.301025390625,0.978759765625,0.7324218153953552,-0.2441406100988388,0.30517578125
1697014,0.0416259765625,-0.300537109375,0.9775390625,0.7934569716453552,-0.2441406100988388,0.2441406100988388
1697036,0.03759765625,-0.29833984375,0.9715576171875,0.6713866591453552,-0.2441406100988388,0.30517578125
1697052,0.04052734375,-0.29833984375,0.9765625,0.6713866591453552,-0.2441406100988388,0.2441406100988388
1697073,0.0421142578125,-0.304443359375,0.9927978515625,0.7324218153953552,-0.2441406100988388,0.2441406100988388
1697139,0.04248046875,-0.3001708984375,0.9783935546875,0.6713866591453552,-0.2441406100988388,0.1831054538488388
1697202,0.0423583984375,-0.2994384765625,0.97802734375,0.7324218153953552,-0.2441406100988388,0.2441406100988388
1697219,0.041259765625,-0.300537109375,0.983154296875,0.6713866591453552,-0.30517578125,0.1831054538488388
1697236,0.0404052734375,-0.3006591796875,0.983154296875,0.6713866591453552,-0.30517578125,0.2441406100988388
1697256,0.039306640625,-0.301025390625,0.9808349609375,0.7324218153953552,-0.2441406100988388,0.2441406100988388
1697273,0.0396728515625,-0.298583984375,0.9735107421875,0.7324218153953552,-0.2441406100988388,0.30517578125
1697289,0.041259765625,-0.30029296875,0.979248046875,0.6713866591453552,-0.3662109076976776,0.2441406100988388
1697305,0.0413818359375,-0.3013916015625,0.981689453125,0.6713866591453552,-0.30517578125,0.2441406100988388
1697354,0.0404052734375,-0.299072265625,0.9771728515625,0.6713866591453552,-0.30517578125,0.2441406100988388
1697384,0.0408935546875,-0.2998046875,0.97900390625,0.7934569716453552,-0.3662109076976776,0.2441406100988388
1697401,0.0400390625,-0.301025390625,0.9781494140625,0.7324218153953552,-0.3662109076976776,0.2441406100988388
1697418,0.039306640625,-0.3001708984375,0.9786376953125,0.6713866591453552,-0.2441406100988388,0.2441406100988388
1697435,0.0396728515625,-0.2999267578125,0.9808349609375,0.7324218153953552,-0.1831054538488388,0.2441406100988388
1697451,0.041015625,-0.2987060546875,0.974609375,0.7324218153953552,-0.2441406100988388,0.2441406100988388
1697484,0.040283203125,-0.3018798828125,0.979248046875,0.7324218153953552,-0.30517578125,0.2441406100988388
1697501,0.04052734375,-0.3046875,0.989990234375,0.7324218153953552,-0.2441406100988388,0.30517578125
1697522,0.04052734375,-0.301513671875,0.9842529296875,0.6713866591453552,-0.1831054538488388,0.30517578125
1697538,0.041259765625,-0.29736328125,0.9708251953125,0.7324218153953552,-0.2441406100988388,0.1831054538488388
1697555,0.0419921875,-0.29833984375,0.973876953125,0.6713866591453552,-0.30517578125,0.2441406100988388
1697572,0.039794921875,-0.30224609375,0.983642578125,0.6713866591453552,-0.2441406100988388,0.2441406100988388
1697605,0.0419921875,-0.30029296875,0.9779052734375,0.7324218153953552,-0.2441406100988388,0.2441406100988388
1697621,0.040283203125,-0.30078125,0.9805908203125,0.7324218153953552,-0.2441406100988388,0.2441406100988388
1697637,0.0394287109375,-0.3009033203125,0.980712890625,0.7324218153953552,-0.2441406100988388,0.2441406100988388
1697669,0.0418701171875,-0.2991943359375,0.9757080078125,0.8544921278953552,-0.2441406100988388,0.2441406100988388
1697685,0.04150390625,-0.3021240234375,0.982177734375,0.7934569716453552,-0.30517578125,0.1831054538488388
1697701,0.03955078125,-0.299560546875,0.9759521484375,0.7324218153953552,-0.30517578125,0.2441406100988388
1697717,0.0389404296875,-0.2982177734375,0.9730224609375,0.7324218153953552,-0.2441406100988388,0.2441406100988388
1697742,0.0408935546875,-0.3016357421875,0.9854736328125,0.6713866591453552,-0.2441406100988388,0.2441406100988388
1697758,0.0421142578125,-0.300537109375,0.980224609375,0.7324218153953552,-0.1831054538488388,0.2441406100988388
1697779,0.038818359375,-0.2994384765625,0.9752197265625,0.7324218153953552,-0.2441406100988388,0.2441406100988388
1697796,0.041259765625,-0.301025390625,0.97998046875,0.7324218153953552,-0.30517578125,0.2441406100988388
1697849,0.0394287109375,-0.296875,0.9757080078125,0.7324218153953552,-0.2441406100988388,0.2441406100988388
1697870,0.04248046875,-0.2994384765625,0.9803466796875,0.7934569716453552,-0.2441406100988388,0.2441406100988388
1697906,0.0379638671875,-0.2999267578125,0.9771728515625,0.7934569716453552,-0.2441406100988388,0.1831054538488388
1697922,0.04052734375,-0.30078125,0.9783935546875,0.7934569716453552,-0.2441406100988388,0.30517578125
1697938,0.0421142578125,-0.3004150390625,0.9805908203125,0.8544921278953552,-0.2441406100988388,0.2441406100988388
1697969,0.037841796875,-0.30029296875,0.9783935546875,0.8544921278953552,-0.2441406100988388,0.2441406100988388
1698023,0.041015625,-0.30029296875,0.979248046875,0.7934569716453552,-0.30517578125,0.2441406100988388
1698040,0.03955078125,-0.3001708984375,0.977294921875,0.7324218153953552,-0.30517578125,0.1831054538488388
1698057,0.0384521484375,-0.302734375,0.9774169921875,0.7934569716453552,-0.2441406100988388,0.2441406100988388
1698090,0.04052734375,-0.301513671875,0.9791259765625,0.7324218153953552,-0.2441406100988388,0.30517578125
1698107,0.0400390625,-0.2991943359375,0.978271484375,0.7324218153953552,-0.30517578125,0.30517578125
1698123,0.041259765625,-0.302978515625,0.98095703125,0.6103515625,-0.30517578125,0.2441406100988388
1698139,0.0411376953125,-0.3006591796875,0.9794921875,0.6713866591453552,-0.2441406100988388,0.2441406100988388
1698158,0.038818359375,-0.3026123046875,0.9794921875,0.6713866591453552,-0.2441406100988388,0.1831054538488388
1698179,0.0390625,-0.2955322265625,0.9815673828125,0.7324218153953552,-0.30517578125,0.1831054538488388
1698196,0.0421142578125,-0.295654296875,0.9801025390625,0.9155272841453552,-0.30517578125,0.1831054538488388
1698213,0.0426025390625,-0.29541015625,0.978515625,1.220703125,-0.30517578125,0.1831054538488388
1698229,0.0404052734375,-0.2960205078125,0.9796142578125,1.6479490995407104,-0.1831054538488388,0.1831054538488388
1698262,0.0401611328125,-0.2967529296875,0.9810791015625,2.929687261581421,-0.2441406100988388,0.1831054538488388
1698279,0.041259765625,-0.301025390625,0.979736328125,3.051757574081421,-0.2441406100988388,0.1831054538488388
1698295,0.0419921875,-0.3011474609375,0.97607421875,3.356933355331421,-0.1831054538488388,0.1220703050494194
1698327,0.0391845703125,-0.3001708984375,0.977783203125,3.784179449081421,-0.2441406100988388,0.0610351525247097
1698391,0.04833984375,-0.302001953125,0.9776611328125,5.737304210662842,-0.1220703050494194,0.0610351525247097
1698407,0.043212890625,-0.30224609375,0.9791259765625,6.469726085662842,-0.2441406100988388,-0.1220703050494194
1698423,0.033203125,-0.2938232421875,0.9774169921875,7.446288585662842,-0.1220703050494194,-0.1831054538488388
1698439,0.0350341796875,-0.292724609375,0.9798583984375,8.056640625,-0.0610351525247097,-0.1220703050494194
1698458,0.0455322265625,-0.2984619140625,0.9801025390625,9.21630859375,-0.1220703050494194,-0.0610351525247097
1698479,0.04541015625,-0.3115234375,0.97509765625,10.253905296325684,-0.2441406100988388,-0.1220703050494194
1698495,0.0345458984375,-0.3155517578125,0.9744873046875,10.559081077575684,-0.2441406100988388,-0.1831054538488388
1698512,0.031982421875,-0.3172607421875,0.9722900390625,11.108397483825684,-0.1220703050494194,-0.30517578125
1698529,0.0399169921875,-0.3101806640625,0.9710693359375,11.901854515075684,0.1220703050494194,-0.30517578125
1698562,0.0430908203125,-0.3243408203125,0.968017578125,13.000487327575684,0.2441406100988388,-0.1220703050494194
1698579,0.039794921875,-0.3284912109375,0.95556640625,13.671874046325684,0.9765624403953552,-0.1220703050494194
1698595,0.036376953125,-0.313232421875,0.9656982421875,14.770506858825684,2.0751953125,0.2441406100988388
1698627,0.0238037109375,-0.3050537109375,0.9698486328125,17.88330078125,4.82177734375,1.4038084745407104
1698644,0.03515625,-0.2952880859375,0.9947509765625,21.057126998901367,7.324218273162842,2.13623046875
1698665,0.04736328125,-0.3907470703125,1.1949462890625,22.094724655151367,6.408690929412842,2.01416015625
1698681,0.0303955078125,-0.4808349609375,1.423095703125,22.521970748901367,4.21142578125,0.2441406100988388
1698698,0.0521240234375,-0.572021484375,1.5657958984375,24.719236373901367,4.21142578125,0.3662109076976776
1698715,0.0587158203125,-0.5810546875,1.4931640625,27.954099655151367,4.08935546875,-0.2441406100988388
1698748,0.0570068359375,-0.5201416015625,1.3275146484375,27.404783248901367,6.835937023162842,0.30517578125
1698765,0.052734375,-0.52587890625,1.2987060546875,25.146482467651367,8.4228515625,1.5258787870407104
1698781,0.0601806640625,-0.534423828125,1.30859375,24.475095748901367,8.97216796875,1.7089842557907104
1698797,0.08056640625,-0.556640625,1.3187255859375,22.338865280151367,9.6435546875,2.3193359375
1698817,0.1043701171875,-0.5772705078125,1.3162841796875,21.423337936401367,9.6435546875,2.44140625
1698833,0.1077880859375,-0.62548828125,1.2880859375,20.202634811401367,9.82666015625,2.685546636581421
1698849,0.1109619140625,-0.6290283203125,1.3004150390625,17.27294921875,9.82666015625,2.746581792831421
1698865,0.111328125,-0.658203125,1.27978515625,15.624999046325684,9.58251953125,2.38037109375
1698887,0.1153564453125,-0.6502685546875,1.292236328125,14.709471702575684,9.21630859375,2.01416015625
1698903,0.121337890625,-0.6331787109375,1.2529296875,12.084959983825684,8.23974609375,1.8920897245407104
1698920,0.122314453125,-0.6126708984375,1.227783203125,9.8876953125,7.690429210662842,1.7089842557907104
1698986,0.124267578125,-0.5731201171875,1.1474609375,2.746581792831421,3.051757574081421,-0.4272460639476776
1699003,0.1258544921875,-0.5611572265625,1.154052734375,1.9531248807907104,2.38037109375,-0.54931640625
1699023,0.1285400390625,-0.5987548828125,1.1376953125,0.30517578125,0.0610351525247097,-1.5258787870407104
1699039,0.12451171875,-0.536865234375,1.094970703125,-0.8544921278953552,-2.624511480331421,-3.173827886581421
1699059,0.1141357421875,-0.5062255859375,0.982666015625,-2.3193359375,-4.39453125,-4.150390625
1699079,0.106201171875,-0.465576171875,0.9287109375,-3.601073980331421,-5.981444835662842,-4.57763671875
1699095,0.096923828125,-0.427734375,0.8831787109375,-5.0048828125,-7.934569835662842,-5.676269054412842
1699111,0.0882568359375,-0.40625,0.833251953125,-5.615233898162842,-8.9111328125,-6.042479991912842
1699127,0.0736083984375,-0.3427734375,0.733154296875,-7.019042491912842,-10.192870140075684,-6.652831554412842
1699143,0.067626953125,-0.3194580078125,0.6903076171875,-7.629394054412842,-10.803221702575684,-6.591796398162842
1699159,0.056396484375,-0.293701171875,0.6202392578125,-8.85009765625,-11.291502952575684,-6.896972179412842
1699179,0.0491943359375,-0.2698974609375,0.5782470703125,-9.765625,-11.596678733825684,-7.080077648162842
1699195,0.042724609375,-0.234619140625,0.5281982421875,-10.131834983825684,-11.779784202575684,-7.202147960662842
1699211,0.03564453125,-0.2103271484375,0.478515625,-10.559081077575684,-11.840819358825684,-7.019042491912842
1699228,0.0284423828125,-0.1783447265625,0.420166015625,-11.230467796325684,-11.230467796325684,-6.469726085662842
1699249,0.0244140625,-0.165771484375,0.3892822265625,-11.474608421325684,-10.803221702575684,-6.164550304412842
1699265,0.016357421875,-0.15283203125,0.35595703125,-12.023924827575684,-9.70458984375,-5.493163585662842
1699284,0.0072021484375,-0.153564453125,0.34326171875,-12.451170921325684,-8.6669921875,-5.0048828125
1699301,0.001220703125,-0.1534423828125,0.3291015625,-12.939452171325684,-7.751464366912842,-4.45556640625
1699318,0.0064697265625,-0.14794921875,0.3255615234375,-13.305663108825684,-6.713866710662842,-3.784179449081421
1699367,-0.0076904296875,-0.234375,0.463623046875,-14.099120140075684,-2.807616949081421,-1.4648436307907104
1699419,0.013427734375,-0.312255859375,0.7724609375,-11.474608421325684,-1.03759765625,-0.4882812201976776
1699436,0.0179443359375,-0.350830078125,0.869384765625,-9.033203125,-0.2441406100988388,-0.4882812201976776
1699469,0.02294921875,-0.3875732421875,1.0001220703125,-4.45556640625,-1.4038084745407104,-0.7934569716453552
1699486,0.025146484375,-0.3880615234375,0.986328125,-1.5258787870407104,-1.6479490995407104,-0.6103515625
1699503,0.023681640625,-0.3843994140625,0.9735107421875,1.15966796875,-1.6479490995407104,-0.54931640625
1699519,0.0172119140625,-0.3851318359375,0.935546875,3.417968511581421,-1.5258787870407104,-0.3662109076976776
1699573,0.018798828125,-0.3590087890625,0.8382568359375,7.324218273162842,0.0610351525247097,0.2441406100988388
1699599,0.030517578125,-0.374267578125,0.8790283203125,8.72802734375,0.6713866591453552,0.4272460639476776
1699616,0.033203125,-0.3656005859375,0.890869140625,10.253905296325684,0.6103515625,0.54931640625
1699649,0.038818359375,-0.3739013671875,0.9278564453125,12.634276390075684,1.03759765625,0.7934569716453552
1699666,0.049072265625,-0.3856201171875,0.9761962890625,14.526366233825684,0.9155272841453552,0.7324218153953552
1699683,0.0499267578125,-0.3887939453125,0.974609375,16.11328125,0.2441406100988388,0.7934569716453552
1699699,0.0465087890625,-0.401123046875,0.9642333984375,17.51708984375,0.0610351525247097,0.6103515625
1699719,0.0439453125,-0.4111328125,0.982421875,18.73779296875,-0.30517578125,0.6103515625
1699740,0.0423583984375,-0.41357421875,0.9859619140625,19.287109375,-0.6103515625,0.4882812201976776
1699757,0.041748046875,-0.4188232421875,0.973876953125,20.141599655151367,-1.220703125,0.54931640625
1699774,0.0418701171875,-0.4241943359375,0.9544677734375,20.568845748901367,-1.4648436307907104,0.4272460639476776
1699791,0.0361328125,-0.4366455078125,0.942138671875,20.874021530151367,-1.5869139432907104,0.4272460639476776
1699823,0.02978515625,-0.4420166015625,0.9327392578125,20.935056686401367,-2.3193359375,0.30517578125
1699840,0.026611328125,-0.439208984375,0.9161376953125,20.324705123901367,-2.25830078125,0.4882812201976776
1699856,0.025146484375,-0.4471435546875,0.912109375,20.01953125,-2.3193359375,0.6103515625
1699888,0.013916015625,-0.45654296875,0.87939453125,18.12744140625,-2.25830078125,0.8544921278953552
1699904,0.0120849609375,-0.45654296875,0.8780517578125,17.7001953125,-2.13623046875,0.9155272841453552
1699920,0.0101318359375,-0.4613037109375,0.88037109375,16.78466796875,-1.9531248807907104,1.220703125
1699956,0.0113525390625,-0.46044921875,0.8731689453125,15.197752952575684,-1.5869139432907104,1.5869139432907104
1699972,0.0140380859375,-0.4666748046875,0.878662109375,13.977049827575684,-1.220703125,1.8310545682907104
1699988,0.0150146484375,-0.476806640625,0.8822021484375,12.695311546325684,-1.15966796875,2.01416015625
1700004,0.0177001953125,-0.47607421875,0.889892578125,12.084959983825684,-1.0986328125,2.13623046875
1700021,0.0230712890625,-0.4820556640625,0.9000244140625,10.803221702575684,-1.0986328125,2.3193359375
1700042,0.0238037109375,-0.481201171875,0.89501953125,10.192870140075684,-1.15966796875,2.38037109375
1700058,0.0223388671875,-0.48583984375,0.88818359375,8.97216796875,-1.03759765625,2.563476324081421
1700075,0.02197265625,-0.4833984375,0.8935546875,7.690429210662842,-0.8544921278953552,2.746581792831421
1700092,0.0238037109375,-0.4918212890625,0.8946533203125,7.019042491912842,-0.8544921278953552,2.807616949081421
1700125,0.0277099609375,-0.4949951171875,0.8880615234375,4.45556640625,-0.9155272841453552,2.990722417831421
1700142,0.0274658203125,-0.4896240234375,0.8858642578125,3.173827886581421,-0.8544921278953552,3.112792730331421
1700158,0.0294189453125,-0.4918212890625,0.8870849609375,2.563476324081421,-0.7934569716453552,3.173827886581421
1700191,0.0302734375,-0.5010986328125,0.9012451171875,0.2441406100988388,-0.9155272841453552,3.295898199081421
1700212,0.0306396484375,-0.5020751953125,0.90087890625,-0.1831054538488388,-0.9765624403953552,3.295898199081421
1700228,0.0333251953125,-0.50390625,0.896240234375,-1.03759765625,-0.9155272841453552,3.295898199081421
1700245,0.0335693359375,-0.501953125,0.8887939453125,-1.8310545682907104,-0.9765624403953552,3.295898199081421
1700262,0.0347900390625,-0.5078125,0.8994140625,-2.197265625,-0.9155272841453552,3.295898199081421
1700278,0.0347900390625,-0.5098876953125,0.902099609375,-2.929687261581421,-1.03759765625,3.234863042831421
1700316,0.037841796875,-0.513427734375,0.8963623046875,-4.21142578125,-1.0986328125,2.929687261581421
1700332,0.0360107421875,-0.5152587890625,0.8997802734375,-4.8828125,-1.15966796875,2.746581792831421
1700348,0.034423828125,-0.5108642578125,0.9053955078125,-5.187987804412842,-1.0986328125,2.685546636581421
1700364,0.0341796875,-0.509033203125,0.907958984375,-5.737304210662842,-1.2817381620407104,2.563476324081421
1700381,0.0311279296875,-0.503173828125,0.8961181640625,-6.164550304412842,-1.4038084745407104,2.50244140625
1700402,0.03076171875,-0.5010986328125,0.8955078125,-6.347655773162842,-1.3427733182907104,2.44140625
1700418,0.031982421875,-0.499267578125,0.8980712890625,-6.530761241912842,-1.4648436307907104,2.3193359375
1700485,0.0301513671875,-0.4918212890625,0.9036865234375,-6.164550304412842,-1.5258787870407104,1.7089842557907104
1700501,0.030517578125,-0.4871826171875,0.9075927734375,-5.920409679412842,-1.4648436307907104,1.4648436307907104
1700517,0.029052734375,-0.486572265625,0.9080810546875,-5.798339366912842,-1.5258787870407104,1.3427733182907104
1700550,0.0255126953125,-0.47705078125,0.89501953125,-5.249022960662842,-1.4648436307907104,0.9155272841453552
1700566,0.026123046875,-0.4739990234375,0.89306640625,-5.065917491912842,-1.4038084745407104,0.8544921278953552
1700582,0.0274658203125,-0.4732666015625,0.8988037109375,-4.7607421875,-1.4648436307907104,0.6103515625
1700598,0.0262451171875,-0.4715576171875,0.893310546875,-4.57763671875,-1.5258787870407104,0.54931640625
1700618,0.0247802734375,-0.4678955078125,0.8818359375,-4.150390625,-1.4648436307907104,0.3662109076976776
1700634,0.023193359375,-0.4661865234375,0.88232421875,-3.784179449081421,-1.2817381620407104,0.1831054538488388
1700650,0.02294921875,-0.4637451171875,0.87744140625,-3.601073980331421,-1.3427733182907104,0.0610351525247097
1700666,0.0233154296875,-0.4609375,0.8692626953125,-3.173827886581421,-1.3427733182907104,0.0
1700682,0.02392578125,-0.45458984375,0.8564453125,-2.868652105331421,-1.2817381620407104,-0.1220703050494194
1700698,0.0233154296875,-0.451416015625,0.8487548828125,-2.746581792831421,-1.15966796875,-0.1220703050494194
1700730,0.0218505859375,-0.4464111328125,0.84716796875,-2.38037109375,-0.9155272841453552,-0.1831054538488388
1700746,0.02099609375,-0.4449462890625,0.845947265625,-2.25830078125,-0.7324218153953552,-0.2441406100988388
1700778,0.0201416015625,-0.43798828125,0.836181640625,-2.25830078125,-0.54931640625,-0.30517578125
1700803,0.018798828125,-0.4359130859375,0.8250732421875,-2.3193359375,-0.4882812201976776,-0.30517578125
1700819,0.0169677734375,-0.430908203125,0.8052978515625,-2.624511480331421,-0.1831054538488388,-0.1831054538488388
1700836,0.0179443359375,-0.432373046875,0.803466796875,-2.990722417831421,0.0,-0.2441406100988388
1700853,0.0206298828125,-0.425537109375,0.7955322265625,-3.234863042831421,-0.0610351525247097,-0.30517578125
1700903,0.0145263671875,-0.401123046875,0.72900390625,-5.798339366912842,0.2441406100988388,-0.1220703050494194
1700924,0.0157470703125,-0.403564453125,0.7384033203125,-6.408690929412842,0.4882812201976776,-0.0610351525247097
1700941,0.0186767578125,-0.4083251953125,0.76123046875,-7.324218273162842,0.8544921278953552,-0.0610351525247097
1700957,0.0233154296875,-0.4102783203125,0.7996826171875,-7.751464366912842,0.3662109076976776,-0.2441406100988388
1700978,0.01904296875,-0.3876953125,0.7645263671875,-8.36181640625,-0.30517578125,-0.4272460639476776
1700994,0.0130615234375,-0.362060546875,0.7032470703125,-9.765625,0.0610351525247097,-0.0610351525247097
1701011,0.0142822265625,-0.367431640625,0.7012939453125,-10.620116233825684,0.4882812201976776,0.1220703050494194
1701032,0.01708984375,-0.3748779296875,0.733642578125,-12.451170921325684,1.220703125,0.4272460639476776
1701048,0.0208740234375,-0.3887939453125,0.7947998046875,-13.793944358825684,0.7934569716453552,0.3662109076976776
1701065,0.021728515625,-0.3717041015625,0.817626953125,-14.099120140075684,0.3662109076976776,0.2441406100988388
1701082,0.017578125,-0.355224609375,0.7828369140625,-14.465331077575684,-0.3662109076976776,0.1220703050494194
1701098,0.0147705078125,-0.331787109375,0.7396240234375,-15.197752952575684,0.1831054538488388,0.6103515625
1701115,0.017578125,-0.3466796875,0.762451171875,-15.991209983825684,0.4882812201976776,0.9155272841453552
1701152,0.02880859375,-0.360107421875,0.8338623046875,-16.4794921875,0.4882812201976776,1.15966796875
1701168,0.0323486328125,-0.3497314453125,0.86865234375,-15.869139671325684,-0.2441406100988388,1.03759765625
1701185,0.0224609375,-0.326171875,0.8333740234375,-15.624999046325684,-0.4882812201976776,0.9765624403953552
1701202,0.02392578125,-0.3087158203125,0.8328857421875,-15.014647483825684,-0.30517578125,1.3427733182907104
1701219,0.0343017578125,-0.3194580078125,0.8634033203125,-14.587401390075684,-0.4882812201976776,1.7089842557907104
1701235,0.0400390625,-0.3260498046875,0.865966796875,-13.793944358825684,-0.9765624403953552,1.7700194120407104
1701273,0.0338134765625,-0.3125,0.8819580078125,-12.390135765075684,-1.5258787870407104,1.4648436307907104
1701289,0.0308837890625,-0.2825927734375,0.8245849609375,-11.352538108825684,-1.4648436307907104,1.7700194120407104
1701306,0.033447265625,-0.2823486328125,0.827880859375,-10.925292015075684,-0.9765624403953552,2.0751953125
1701323,0.0291748046875,-0.318359375,0.9127197265625,-9.6435546875,-0.1220703050494194,2.50244140625
1701388,0.0399169921875,-0.3397216796875,0.9857177734375,0.7934569716453552,-0.8544921278953552,1.9531248807907104
1701409,0.0260009765625,-0.3515625,0.959716796875,3.173827886581421,0.30517578125,2.13623046875
1701425,0.02392578125,-0.35791015625,0.9952392578125,4.33349609375,0.6713866591453552,2.01416015625
1701442,0.02392578125,-0.349609375,0.987060546875,6.652831554412842,0.8544921278953552,1.9531248807907104
1701459,0.030517578125,-0.345703125,0.9581298828125,8.4228515625,1.4648436307907104,2.01416015625
1701475,0.033447265625,-0.354736328125,0.9564208984375,9.033203125,1.9531248807907104,2.13623046875
1701508,0.0333251953125,-0.396728515625,1.0751953125,11.840819358825684,2.44140625,2.01416015625
1701525,0.0296630859375,-0.4085693359375,1.049560546875,13.427733421325684,2.38037109375,1.7700194120407104
1701541,0.03466796875,-0.420654296875,1.053466796875,13.916014671325684,2.685546636581421,1.8310545682907104
1701557,0.0455322265625,-0.4482421875,1.1002197265625,14.953612327575684,2.685546636581421,1.4648436307907104
1701577,0.0477294921875,-0.458251953125,1.1397705078125,16.11328125,1.7700194120407104,1.220703125
1701599,0.0399169921875,-0.44873046875,1.1041259765625,17.02880859375,1.03759765625,0.7324218153953552
1701615,0.0350341796875,-0.44873046875,1.055419921875,17.39501953125,0.9155272841453552,0.7934569716453552
1701632,0.0367431640625,-0.4532470703125,1.0439453125,17.4560546875,1.15966796875,0.8544921278953552
1701649,0.040283203125,-0.448974609375,1.06396484375,17.39501953125,0.8544921278953552,0.6713866591453552
1701715,0.030517578125,-0.476318359375,1.046875,15.441893577575684,0.4272460639476776,1.03759765625
1701757,0.021240234375,-0.4605712890625,0.999755859375,14.526366233825684,1.3427733182907104,1.5869139432907104
1701774,0.0230712890625,-0.4720458984375,1.013427734375,13.916014671325684,2.0751953125,2.0751953125
1701807,0.0401611328125,-0.4912109375,1.0504150390625,13.183592796325684,2.25830078125,2.197265625
1701828,0.036376953125,-0.4547119140625,0.9935302734375,12.573241233825684,2.44140625,2.746581792831421
1701844,0.0389404296875,-0.466796875,0.98291015625,12.207030296325684,2.929687261581421,3.112792730331421
1701865,0.0572509765625,-0.51904296875,1.066650390625,11.108397483825684,4.150390625,3.601073980331421
1701885,0.0679931640625,-0.5216064453125,1.088134765625,10.864256858825684,3.173827886581421,3.173827886581421
1701905,0.067626953125,-0.4951171875,1.030029296875,10.192870140075684,3.051757574081421,3.234863042831421
1701925,0.063720703125,-0.509521484375,1.0130615234375,8.9111328125,3.601073980331421,3.723144292831421
1701946,0.0687255859375,-0.528076171875,1.0400390625,7.324218273162842,3.173827886581421,3.479003667831421
1701971,0.0723876953125,-0.5238037109375,1.0196533203125,5.676269054412842,2.563476324081421,2.990722417831421
1701987,0.0733642578125,-0.5047607421875,1.001220703125,4.94384765625,2.38037109375,2.990722417831421
1702003,0.0701904296875,-0.5162353515625,1.0023193359375,3.784179449081421,2.25830078125,3.112792730331421
1702020,0.067138671875,-0.523681640625,1.025634765625,2.746581792831421,1.4648436307907104,2.624511480331421
1702036,0.0653076171875,-0.5235595703125,0.9969482421875,2.25830078125,0.9765624403953552,2.38037109375
1702057,0.068115234375,-0.5150146484375,0.9990234375,0.30517578125,0.3662109076976776,1.9531248807907104
1702073,0.0682373046875,-0.521240234375,0.9990234375,-0.0610351525247097,0.0610351525247097,1.7089842557907104
1702089,0.0677490234375,-0.5130615234375,0.99267578125,-1.03759765625,-0.54931640625,1.3427733182907104
1702105,0.0594482421875,-0.498046875,0.9647216796875,-2.0751953125,-0.8544921278953552,1.0986328125
1702122,0.0576171875,-0.4923095703125,0.9571533203125,-2.624511480331421,-0.7934569716453552,1.15966796875
1702143,0.0643310546875,-0.513427734375,0.9866943359375,-3.723144292831421,-1.220703125,0.9155272841453552
1702159,0.0577392578125,-0.5008544921875,0.95849609375,-4.08935546875,-1.5869139432907104,0.7324218153953552
1702176,0.04833984375,-0.4749755859375,0.9166259765625,-5.0048828125,-1.7700194120407104,0.4272460639476776
1702193,0.0447998046875,-0.4736328125,0.9052734375,-5.859374523162842,-1.3427733182907104,0.7324218153953552
1702226,0.0518798828125,-0.4954833984375,0.9468994140625,-7.080077648162842,-1.4038084745407104,0.6103515625
1702242,0.0550537109375,-0.489990234375,0.938720703125,-7.141112804412842,-1.5869139432907104,0.4882812201976776
1702258,0.0523681640625,-0.4720458984375,0.9000244140625,-7.324218273162842,-1.0986328125,0.54931640625
1702290,0.058349609375,-0.4810791015625,0.9404296875,-7.263183116912842,-0.7934569716453552,0.4882812201976776
1702344,0.055419921875,-0.4522705078125,0.8751220703125,-6.774901866912842,-0.2441406100988388,0.2441406100988388
1702361,0.0584716796875,-0.46142578125,0.9129638671875,-6.652831554412842,0.1220703050494194,0.1220703050494194
1702378,0.0609130859375,-0.45654296875,0.9107666015625,-6.469726085662842,0.0,0.0
1702415,0.060302734375,-0.449951171875,0.8970947265625,-5.126952648162842,0.1220703050494194,-0.30517578125
1702431,0.0567626953125,-0.4520263671875,0.899169921875,-4.57763671875,0.3662109076976776,-0.3662109076976776
1702448,0.0833740234375,-0.470947265625,1.0421142578125,-5.981444835662842,-0.0610351525247097,-0.54931640625
1702464,0.107421875,-0.484375,1.1409912109375,-7.690429210662842,-1.03759765625,-0.7934569716453552
1702481,0.08203125,-0.4351806640625,0.973876953125,-9.8876953125,-2.807616949081421,-1.03759765625
1702502,0.042724609375,-0.398681640625,0.82861328125,-10.620116233825684,-2.13623046875,-0.6103515625
1702518,0.04638671875,-0.4024658203125,0.883056640625,-9.82666015625,-1.8310545682907104,-0.6713866591453552
1702535,0.0526123046875,-0.4163818359375,0.9171142578125,-8.056640625,-1.7700194120407104,-0.7934569716453552
1702552,0.0703125,-0.4246826171875,0.9814453125,-7.629394054412842,-2.38037109375,-0.9155272841453552
1702585,0.0728759765625,-0.405029296875,0.944091796875,-7.690429210662842,-3.417968511581421,-1.15966796875
1702602,0.0601806640625,-0.40380859375,0.9205322265625,-7.141112804412842,-3.601073980331421,-1.220703125
1702618,0.0609130859375,-0.4132080078125,0.968017578125,-6.530761241912842,-4.5166015625,-1.5258787870407104
1702650,0.0579833984375,-0.3963623046875,0.947021484375,-5.676269054412842,-5.493163585662842,-2.01416015625
1702666,0.0323486328125,-0.389892578125,0.933837890625,-5.310058116912842,-5.798339366912842,-2.13623046875
1702682,-0.017333984375,-0.3529052734375,0.8416748046875,-4.45556640625,-3.906249761581421,-1.4038084745407104
1702698,-0.01318359375,-0.3570556640625,0.902587890625,-3.234863042831421,1.4038084745407104,0.8544921278953552
1702719,0.060302734375,-0.43994140625,1.060791015625,-2.50244140625,-0.0610351525247097,0.6103515625
1702740,0.048095703125,-0.353271484375,0.8511962890625,-1.9531248807907104,-0.9155272841453552,0.1831054538488388
1702757,0.0498046875,-0.374755859375,0.899658203125,-1.03759765625,-0.7324218153953552,0.1220703050494194
1702774,0.0587158203125,-0.4033203125,0.998046875,-0.9765624403953552,-0.1220703050494194,0.2441406100988388
1702790,0.0419921875,-0.373779296875,0.923583984375,-0.4272460639476776,-0.30517578125,0.30517578125
1702823,0.0328369140625,-0.3912353515625,0.9482421875,1.7700194120407104,-0.7934569716453552,0.0610351525247097
1702840,0.046875,-0.398681640625,0.9442138671875,2.0751953125,-0.6713866591453552,0.0
1702856,0.048583984375,-0.3985595703125,0.9329833984375,2.0751953125,-0.6713866591453552,0.0
1702887,0.0394287109375,-0.3948974609375,0.9473876953125,1.8920897245407104,-0.54931640625,0.0
1702909,0.0401611328125,-0.39453125,0.94189453125,2.0751953125,-0.4882812201976776,0.1220703050494194
1702925,0.046142578125,-0.4019775390625,0.9383544921875,2.0751953125,-0.6713866591453552,0.1220703050494194
1702941,0.0433349609375,-0.408203125,0.9464111328125,1.9531248807907104,-0.6713866591453552,0.0
1703008,0.04638671875,-0.408447265625,0.9415283203125,2.197265625,-0.4882812201976776,0.2441406100988388
1703080,0.045166015625,-0.3895263671875,0.94482421875,2.13623046875,-0.3662109076976776,0.0610351525247097
1703097,0.046142578125,-0.3941650390625,0.9437255859375,2.624511480331421,-0.4272460639476776,0.2441406100988388
1703118,0.0462646484375,-0.406982421875,0.93798828125,2.746581792831421,-0.3662109076976776,0.30517578125
1703134,0.0384521484375,-0.417724609375,0.937255859375,2.3193359375,-0.3662109076976776,0.1220703050494194
1703155,0.03369140625,-0.4124755859375,0.9356689453125,1.8310545682907104,-0.3662109076976776,0.1220703050494194
1703186,0.0482177734375,-0.409423828125,0.94287109375,1.4648436307907104,-0.3662109076976776,0.1831054538488388
1703208,0.0445556640625,-0.4114990234375,0.939208984375,1.03759765625,-0.3662109076976776,0.2441406100988388
1703224,0.0367431640625,-0.415771484375,0.9327392578125,0.4882812201976776,-0.2441406100988388,0.2441406100988388
1703241,0.0394287109375,-0.4073486328125,0.939697265625,0.3662109076976776,-0.30517578125,0.1831054538488388
1703258,0.0419921875,-0.4034423828125,0.9404296875,0.3662109076976776,-0.30517578125,0.1831054538488388
1703274,0.0435791015625,-0.3995361328125,0.9405517578125,0.54931640625,-0.30517578125,0.30517578125
1703306,0.04150390625,-0.4093017578125,0.939453125,0.4272460639476776,-0.30517578125,0.3662109076976776
1703328,0.0391845703125,-0.409423828125,0.936767578125,0.2441406100988388,-0.30517578125,0.2441406100988388
1703344,0.0423583984375,-0.4033203125,0.93994140625,0.2441406100988388,-0.30517578125,0.2441406100988388
1703361,0.0439453125,-0.4000244140625,0.941162109375,0.2441406100988388,-0.30517578125,0.2441406100988388
1703378,0.043212890625,-0.4019775390625,0.939208984375,0.3662109076976776,-0.3662109076976776,0.3662109076976776
1703394,0.040283203125,-0.4090576171875,0.9368896484375,0.2441406100988388,-0.2441406100988388,0.30517578125
1703426,0.04248046875,-0.406494140625,0.9390869140625,0.0,-0.30517578125,0.1831054538488388
1703448,0.04296875,-0.4013671875,0.9407958984375,0.0,-0.2441406100988388,0.2441406100988388
1703464,0.0411376953125,-0.4007568359375,0.9404296875,0.1220703050494194,-0.30517578125,0.2441406100988388
1703481,0.0416259765625,-0.405029296875,0.937744140625,0.30517578125,-0.30517578125,0.3662109076976776
1703498,0.0411376953125,-0.4061279296875,0.9375,0.3662109076976776,-0.2441406100988388,0.2441406100988388
1703514,0.0416259765625,-0.40380859375,0.94189453125,0.3662109076976776,-0.2441406100988388,0.1831054538488388
1703545,0.041015625,-0.3978271484375,0.9381103515625,0.7324218153953552,-0.1220703050494194,0.30517578125
1703562,0.039306640625,-0.3934326171875,0.9288330078125,1.15966796875,0.6103515625,0.54931640625
1703578,0.03955078125,-0.3897705078125,0.9273681640625,1.5258787870407104,1.4038084745407104,0.7324218153953552
1703610,0.0205078125,-0.34375,0.9278564453125,4.2724609375,3.601073980331421,1.5258787870407104
1703626,0.0303955078125,-0.3817138671875,0.986572265625,7.385253429412842,5.798339366912842,1.9531248807907104
1703642,0.0640869140625,-0.4661865234375,1.2987060546875,9.94873046875,4.150390625,0.4882812201976776
1703658,0.0618896484375,-0.4908447265625,1.40087890625,10.864256858825684,2.990722417831421,-0.1220703050494194
1703678,0.0736083984375,-0.5010986328125,1.487548828125,12.756346702575684,2.13623046875,-0.1831054538488388
1703694,0.0908203125,-0.56787109375,1.4432373046875,13.549803733825684,2.0751953125,-0.6103515625
1703710,0.0855712890625,-0.5621337890625,1.4136962890625,13.122557640075684,2.0751953125,-0.7934569716453552
1703726,0.0811767578125,-0.5775146484375,1.380615234375,12.451170921325684,2.868652105331421,-0.4272460639476776
1703742,0.099853515625,-0.624755859375,1.4720458984375,11.657713890075684,3.723144292831421,-0.30517578125
1703758,0.10302734375,-0.6541748046875,1.505615234375,11.901854515075684,3.295898199081421,-0.6713866591453552
1703790,0.100341796875,-0.6708984375,1.446044921875,12.145995140075684,0.9765624403953552,-1.9531248807907104
1703806,0.1015625,-0.660400390625,1.39453125,10.742186546325684,0.54931640625,-2.01416015625
1703822,0.1070556640625,-0.69091796875,1.3310546875,8.11767578125,0.7324218153953552,-1.8920897245407104
1703838,0.1102294921875,-0.6966552734375,1.3511962890625,7.019042491912842,0.4272460639476776,-2.3193359375
1703857,0.0953369140625,-0.6943359375,1.349853515625,5.920409679412842,0.1220703050494194,-2.624511480331421
1703894,0.0618896484375,-0.6685791015625,1.2935791015625,6.103515148162842,-2.38037109375,-3.479003667831421
1703914,0.0538330078125,-0.6387939453125,1.2099609375,4.45556640625,-3.051757574081421,-3.784179449081421
1703930,0.04150390625,-0.6292724609375,1.0926513671875,1.7700194120407104,-2.38037109375,-3.662109136581421
1703947,0.0390625,-0.578857421875,1.0787353515625,-1.220703125,-2.746581792831421,-3.540038824081421
1703964,0.0216064453125,-0.532470703125,0.9833984375,-2.44140625,-2.746581792831421,-3.295898199081421
1703980,0.0203857421875,-0.512939453125,0.9844970703125,-4.21142578125,-2.0751953125,-2.624511480331421
1703997,0.0203857421875,-0.523681640625,0.9903564453125,-5.371093273162842,-2.3193359375,-2.38037109375
1704030,0.0087890625,-0.4951171875,0.8638916015625,-7.202147960662842,-2.624511480331421,-2.197265625
1704046,0.0067138671875,-0.43994140625,0.7845458984375,-8.7890625,-2.13623046875,-1.9531248807907104
1704066,0.0086669921875,-0.4100341796875,0.739013671875,-10.253905296325684,-1.3427733182907104,-1.5869139432907104
1704082,0.0096435546875,-0.3697509765625,0.7161865234375,-11.169432640075684,-1.8310545682907104,-1.4038084745407104
1704100,0.005859375,-0.3564453125,0.673095703125,-11.535643577575684,-2.01416015625,-1.5258787870407104
1704125,0.0010986328125,-0.2935791015625,0.579833984375,-12.329100608825684,-1.8920897245407104,-1.5258787870407104
1704141,0.00634765625,-0.251708984375,0.507568359375,-13.000487327575684,-0.9765624403953552,-0.7934569716453552
1704162,0.0189208984375,-0.2447509765625,0.5181884765625,-13.549803733825684,-0.8544921278953552,-0.54931640625
1704183,0.02490234375,-0.22900390625,0.5142822265625,-13.488768577575684,-1.4038084745407104,-0.6103515625
1704203,0.0189208984375,-0.1934814453125,0.4493408203125,-13.061522483825684,-1.8310545682907104,-0.7324218153953552
1704220,0.0169677734375,-0.18505859375,0.4346923828125,-12.634276390075684,-1.8310545682907104,-0.6103515625
1704236,0.0155029296875,-0.1748046875,0.4176025390625,-12.145995140075684,-1.7089842557907104,-0.4882812201976776
1704269,0.027587890625,-0.187255859375,0.448486328125,-10.742186546325684,-1.8310545682907104,-0.4272460639476776
1704285,0.0350341796875,-0.203857421875,0.464111328125,-9.27734375,-2.25830078125,-0.54931640625
1704301,0.034423828125,-0.2113037109375,0.4605712890625,-8.60595703125,-2.3193359375,-0.6713866591453552
1704317,0.02783203125,-0.2093505859375,0.467041015625,-6.835937023162842,-1.8920897245407104,-0.7934569716453552
1704337,0.02734375,-0.226806640625,0.548583984375,-4.69970703125,-1.4648436307907104,-0.7324218153953552
1704359,0.0340576171875,-0.26904296875,0.64306640625,-2.13623046875,-1.5869139432907104,-0.7324218153953552
1704375,0.0391845703125,-0.3109130859375,0.71044921875,-0.8544921278953552,-1.4038084745407104,-0.7324218153953552
1704392,0.04443359375,-0.333740234375,0.7640380859375,1.6479490995407104,-1.2817381620407104,-1.3427733182907104
1704409,0.0489501953125,-0.3372802734375,0.8509521484375,4.5166015625,-1.7700194120407104,-1.9531248807907104
1704442,0.0399169921875,-0.355224609375,0.903076171875,9.33837890625,-2.44140625,-2.44140625
1704459,0.0374755859375,-0.36083984375,0.9014892578125,12.084959983825684,-2.197265625,-2.624511480331421
1704475,0.0396728515625,-0.3729248046875,0.9259033203125,14.282225608825684,-2.01416015625,-2.746581792831421
1704505,0.03515625,-0.359619140625,0.904541015625,17.51708984375,-1.7700194120407104,-2.746581792831421
1704526,0.0340576171875,-0.367919921875,0.90234375,18.49365234375,-1.4038084745407104,-2.563476324081421
1704559,0.0321044921875,-0.422119140625,0.932373046875,21.667478561401367,-2.0751953125,-2.44140625
1704576,0.0220947265625,-0.4241943359375,0.8619384765625,22.094724655151367,-2.01416015625,-2.38037109375
1704592,0.02099609375,-0.4346923828125,0.8519287109375,22.766111373901367,-1.15966796875,-2.01416015625
1704623,0.0196533203125,-0.4561767578125,0.8800048828125,23.742673873901367,-0.9765624403953552,-1.6479490995407104
1704687,0.0218505859375,-0.4619140625,0.912109375,23.925779342651367,-0.54931640625,-0.6103515625
1704703,0.0235595703125,-0.4578857421875,0.9227294921875,23.742673873901367,-0.54931640625,-0.4882812201976776
1704719,0.0233154296875,-0.459716796875,0.9237060546875,23.254392623901367,-0.6103515625,-0.1831054538488388
1704752,0.021728515625,-0.46533203125,0.9317626953125,21.972654342651367,-0.7324218153953552,0.0
1704773,0.0186767578125,-0.4638671875,0.910400390625,20.874021530151367,-0.7324218153953552,0.1220703050494194
1704789,0.0164794921875,-0.4730224609375,0.898193359375,19.4091796875,-0.54931640625,0.4272460639476776
1704806,0.013427734375,-0.4915771484375,0.907470703125,18.61572265625,-0.4272460639476776,0.54931640625
1704823,0.0098876953125,-0.5040283203125,0.91357421875,16.90673828125,-0.4882812201976776,0.4272460639476776
1704839,0.0001220703125,-0.51171875,0.9029541015625,15.502928733825684,-0.7324218153953552,0.1831054538488388
1704856,-0.00732421875,-0.5076904296875,0.8841552734375,14.465331077575684,-0.54931640625,0.0610351525247097
1704877,-0.004638671875,-0.506591796875,0.8961181640625,13.854979515075684,-0.54931640625,-0.1220703050494194
1704893,-0.0037841796875,-0.5052490234375,0.892578125,13.610838890075684,-0.7324218153953552,-0.2441406100988388
1704910,-0.0064697265625,-0.502197265625,0.860107421875,13.183592796325684,-0.6713866591453552,-0.3662109076976776
1704930,-0.0045166015625,-0.503662109375,0.863525390625,12.878417015075684,-0.3662109076976776,-0.4882812201976776
1704946,-0.001220703125,-0.505859375,0.8648681640625,12.695311546325684,-0.4882812201976776,-0.54931640625
1704963,0.0010986328125,-0.5035400390625,0.8609619140625,12.084959983825684,-0.4272460639476776,-0.54931640625
1704980,0.00732421875,-0.511474609375,0.864501953125,11.108397483825684,-0.2441406100988388,-0.30517578125
1704996,0.0128173828125,-0.510009765625,0.8671875,10.437010765075684,-0.2441406100988388,-0.2441406100988388
1705013,0.0164794921875,-0.5145263671875,0.8741455078125,9.09423828125,0.0610351525247097,0.0
1705046,0.030029296875,-0.525146484375,0.9124755859375,6.652831554412842,-0.6103515625,0.30517578125
1705068,0.0316162109375,-0.526611328125,0.916015625,6.042479991912842,-0.7934569716453552,0.4882812201976776
1705084,0.02978515625,-0.540283203125,0.899169921875,4.82177734375,-1.3427733182907104,0.6713866591453552
1705101,0.0260009765625,-0.5390625,0.85888671875,3.356933355331421,-1.5258787870407104,0.7934569716453552
1705118,0.0244140625,-0.5426025390625,0.83203125,2.624511480331421,-1.5258787870407104,0.8544921278953552
1705134,0.0242919921875,-0.5560302734375,0.8140869140625,1.0986328125,-1.4648436307907104,0.9765624403953552
1705166,0.01708984375,-0.5660400390625,0.8109130859375,-2.13623046875,-0.7934569716453552,1.03759765625
1705182,0.021484375,-0.520751953125,0.856689453125,-1.4038084745407104,-0.7324218153953552,1.0986328125
1705198,0.024169921875,-0.541259765625,0.847412109375,-0.9765624403953552,-0.8544921278953552,0.9765624403953552
1705230,0.027587890625,-0.5577392578125,0.8448486328125,-0.0610351525247097,-0.0610351525247097,0.9765624403953552
1705246,0.0296630859375,-0.5386962890625,0.88232421875,-1.3427733182907104,0.0,0.7934569716453552
1705262,0.0291748046875,-0.5260009765625,0.8853759765625,-0.1831054538488388,0.0610351525247097,0.6713866591453552
1705278,0.031005859375,-0.537353515625,0.894287109375,-0.30517578125,0.0,0.7324218153953552
1705298,0.02392578125,-0.5374755859375,0.8946533203125,0.6713866591453552,0.1220703050494194,0.7324218153953552
1705314,0.0218505859375,-0.5526123046875,0.9022216796875,1.220703125,0.0,0.6103515625
1705330,0.016357421875,-0.54248046875,0.88232421875,0.1220703050494194,-0.1831054538488388,0.30517578125
1705342,0.014892578125,-0.5302734375,0.8511962890625,1.15966796875,-0.1220703050494194,0.3662109076976776
1705414,0.0216064453125,-0.539306640625,0.840576171875,0.7934569716453552,0.7324218153953552,0.7934569716453552
1705479,0.0263671875,-0.532958984375,0.8599853515625,1.2817381620407104,0.7324218153953552,0.4882812201976776
1705496,0.0238037109375,-0.5311279296875,0.8612060546875,0.0,0.8544921278953552,0.6103515625
1705529,0.0224609375,-0.5389404296875,0.8824462890625,0.30517578125,0.8544921278953552,0.7324218153953552
1705546,0.02490234375,-0.5338134765625,0.893798828125,0.8544921278953552,0.7324218153953552,0.7324218153953552
1705562,0.0252685546875,-0.541259765625,0.8868408203125,1.3427733182907104,0.6103515625,0.6713866591453552
1705578,0.0250244140625,-0.5406494140625,0.8868408203125,1.3427733182907104,0.6713866591453552,0.6713866591453552
1705603,0.02294921875,-0.549560546875,0.8802490234375,1.7089842557907104,0.54931640625,0.7324218153953552
1705619,0.021240234375,-0.541748046875,0.8701171875,1.2817381620407104,0.54931640625,0.7934569716453552
1705636,0.02197265625,-0.54248046875,0.8726806640625,2.197265625,0.7324218153953552,0.8544921278953552
1705653,0.0262451171875,-0.547607421875,0.8798828125,1.5869139432907104,0.6103515625,0.8544921278953552
1705669,0.0279541015625,-0.537353515625,0.8695068359375,1.8920897245407104,0.4882812201976776,0.8544921278953552
1705700,0.03173828125,-0.54248046875,0.86962890625,2.50244140625,0.2441406100988388,0.8544921278953552
1705719,0.030517578125,-0.5462646484375,0.852783203125,3.173827886581421,0.0610351525247097,0.8544921278953552
1705735,0.02880859375,-0.5445556640625,0.846923828125,2.807616949081421,0.0610351525247097,0.8544921278953552
1705767,0.027587890625,-0.552001953125,0.84912109375,3.417968511581421,0.0610351525247097,0.7934569716453552
1705783,0.0267333984375,-0.5494384765625,0.8480224609375,3.112792730331421,-0.0610351525247097,0.7934569716453552
1705799,0.0272216796875,-0.5521240234375,0.84619140625,3.479003667831421,-0.0610351525247097,0.7934569716453552
1705831,0.02587890625,-0.5450439453125,0.8431396484375,3.417968511581421,-0.1220703050494194,0.7934569716453552
1705847,0.025390625,-0.5506591796875,0.845458984375,3.295898199081421,-0.0610351525247097,0.7934569716453552
1705863,0.0244140625,-0.5496826171875,0.850341796875,2.746581792831421,-0.2441406100988388,0.8544921278953552
1705879,0.021240234375,-0.54931640625,0.84033203125,2.685546636581421,-0.4882812201976776,0.6103515625
1705904,0.021240234375,-0.539794921875,0.827880859375,2.01416015625,-0.4272460639476776,0.54931640625
1705920,0.0245361328125,-0.536376953125,0.82666015625,2.197265625,-0.4882812201976776,0.54931640625
1705937,0.027099609375,-0.5357666015625,0.8232421875,1.5258787870407104,-0.7324218153953552,0.4272460639476776
1705954,0.0303955078125,-0.5244140625,0.80712890625,1.220703125,-0.9155272841453552,0.30517578125
1705970,0.0291748046875,-0.5155029296875,0.7850341796875,0.9765624403953552,-0.9765624403953552,0.3662109076976776
1706004,0.0390625,-0.5218505859375,0.8017578125,-0.30517578125,-1.5258787870407104,0.2441406100988388
1706021,0.036865234375,-0.5087890625,0.7900390625,-1.4038084745407104,-1.5869139432907104,0.2441406100988388
1706042,0.0362548828125,-0.5050048828125,0.8013916015625,-1.4038084745407104,-1.6479490995407104,0.2441406100988388
1706058,0.02880859375,-0.5,0.80859375,-1.7089842557907104,-2.01416015625,0.0610351525247097
1706075,0.02685546875,-0.4935302734375,0.8023681640625,-1.5258787870407104,-2.197265625,0.1831054538488388
1706092,0.02392578125,-0.4986572265625,0.801513671875,-1.3427733182907104,-2.01416015625,0.2441406100988388
1706125,0.0186767578125,-0.51806640625,0.81298828125,-0.7324218153953552,-2.197265625,0.0
1706142,0.01025390625,-0.491943359375,0.75732421875,-1.220703125,-2.25830078125,-0.1831054538488388
1706158,0.00439453125,-0.4644775390625,0.703369140625,-1.4648436307907104,-2.01416015625,-0.0610351525247097
1706191,0.0013427734375,-0.46728515625,0.6798095703125,-4.5166015625,-0.9765624403953552,0.4272460639476776
1706212,0.0015869140625,-0.46484375,0.677001953125,-5.187987804412842,-0.8544921278953552,0.4882812201976776
1706228,0.0009765625,-0.466796875,0.6781005859375,-7.141112804412842,-0.6713866591453552,0.4882812201976776
1706245,-0.0006103515625,-0.4541015625,0.659423828125,-8.60595703125,-0.7934569716453552,0.4272460639476776
1706262,-0.0008544921875,-0.4415283203125,0.63720703125,-9.82666015625,-0.6713866591453552,0.4882812201976776
1706278,-0.003173828125,-0.4486083984375,0.6434326171875,-12.268065452575684,-0.2441406100988388,0.9155272841453552
1706316,-0.009765625,-0.4344482421875,0.655517578125,-16.66259765625,0.6103515625,1.2817381620407104
1706332,-0.003173828125,-0.4423828125,0.7161865234375,-18.06640625,0.54931640625,1.220703125
1706348,-0.00146484375,-0.4249267578125,0.716552734375,-18.73779296875,0.2441406100988388,1.15966796875
1706364,-0.0064697265625,-0.399658203125,0.681396484375,-19.4091796875,0.9765624403953552,1.8310545682907104
1706381,0.0052490234375,-0.42724609375,0.753173828125,-20.01953125,1.7089842557907104,2.197265625
1706402,0.013916015625,-0.4405517578125,0.8001708984375,-19.8974609375,1.6479490995407104,2.13623046875
1706418,0.0224609375,-0.4422607421875,0.83935546875,-18.9208984375,0.9155272841453552,1.7700194120407104
1706485,0.0242919921875,-0.427978515625,0.808837890625,-17.2119140625,3.112792730331421,2.746581792831421
1706501,0.0267333984375,-0.4443359375,0.8687744140625,-15.808104515075684,3.295898199081421,2.563476324081421
1706517,0.0296630859375,-0.4498291015625,0.908203125,-14.770506858825684,3.234863042831421,2.38037109375
1706550,0.0419921875,-0.4456787109375,0.8983154296875,-11.230467796325684,2.746581792831421,2.25830078125
1706566,0.0445556640625,-0.4388427734375,0.897705078125,-10.437010765075684,2.746581792831421,2.13623046875
1706582,0.04296875,-0.433837890625,0.8720703125,-8.85009765625,2.746581792831421,2.01416015625
1706598,0.0439453125,-0.43017578125,0.8697509765625,-8.30078125,3.051757574081421,2.0751953125
1706618,0.046875,-0.4324951171875,0.887939453125,-6.896972179412842,3.173827886581421,2.197265625
1706634,0.0516357421875,-0.454345703125,0.9261474609375,-5.615233898162842,3.601073980331421,2.13623046875
1706650,0.05078125,-0.4857177734375,1.0023193359375,-4.7607421875,3.601073980331421,2.0751953125
1706666,0.0498046875,-0.5003662109375,1.04541015625,-2.0751953125,3.051757574081421,1.5869139432907104
1706682,0.0460205078125,-0.509521484375,1.069580078125,0.7934569716453552,1.8920897245407104,0.8544921278953552
1706698,0.0423583984375,-0.4959716796875,1.04150390625,2.13623046875,1.4648436307907104,0.6103515625
1706731,0.04248046875,-0.48291015625,0.9552001953125,4.57763671875,2.0751953125,0.8544921278953552
1706752,0.0413818359375,-0.4910888671875,0.9708251953125,5.737304210662842,2.25830078125,0.7324218153953552
1706768,0.0421142578125,-0.489501953125,0.9814453125,6.835937023162842,1.9531248807907104,0.54931640625
1706785,0.0469970703125,-0.486328125,0.979736328125,7.568358898162842,1.9531248807907104,0.6103515625
1706852,0.0614013671875,-0.513671875,1.038330078125,12.084959983825684,-0.3662109076976776,-0.6713866591453552
1706869,0.0562744140625,-0.5013427734375,0.9990234375,12.451170921325684,-0.54931640625,-0.4882812201976776
1706885,0.05517578125,-0.5318603515625,0.9805908203125,11.962889671325684,-0.1831054538488388,-0.1831054538488388
1706901,0.05126953125,-0.546142578125,0.996337890625,11.779784202575684,-0.4272460639476776,-0.4272460639476776
1706955,0.0416259765625,-0.522216796875,0.993896484375,12.329100608825684,-1.4038084745407104,-0.9765624403953552
1706980,0.036376953125,-0.541748046875,0.973876953125,11.657713890075684,-0.8544921278953552,-0.4882812201976776
1706997,0.0313720703125,-0.5521240234375,1.0162353515625,11.779784202575684,-0.7324218153953552,-0.4882812201976776
1707029,0.032958984375,-0.5264892578125,1.008544921875,12.695311546325684,-0.9765624403953552,-0.4272460639476776
1707046,0.02392578125,-0.5155029296875,0.935546875,12.634276390075684,-0.2441406100988388,0.1220703050494194
1707062,0.0289306640625,-0.526611328125,0.938720703125,12.145995140075684,0.9155272841453552,0.8544921278953552
1707078,0.0345458984375,-0.540771484375,0.9581298828125,12.023924827575684,1.220703125,1.03759765625
1707098,0.0452880859375,-0.546142578125,0.9940185546875,11.840819358825684,1.220703125,1.15966796875
1707114,0.0465087890625,-0.544677734375,0.9761962890625,11.962889671325684,1.0986328125,1.4038084745407104
1707130,0.0447998046875,-0.534912109375,0.9498291015625,11.779784202575684,1.220703125,1.7089842557907104
1707146,0.048828125,-0.5557861328125,0.9400634765625,11.108397483825684,2.13623046875,2.25830078125
1707162,0.0550537109375,-0.5770263671875,0.9613037109375,10.314940452575684,2.13623046875,2.25830078125
1707178,0.057373046875,-0.583984375,0.96484375,9.8876953125,2.13623046875,2.13623046875
1707211,0.0615234375,-0.5745849609375,0.977783203125,9.3994140625,1.7089842557907104,1.8920897245407104
1707232,0.062255859375,-0.5513916015625,0.9505615234375,8.9111328125,1.4038084745407104,1.8310545682907104
1707248,0.0648193359375,-0.5531005859375,0.9288330078125,8.11767578125,1.4648436307907104,1.8920897245407104
1707265,0.065673828125,-0.5743408203125,0.951416015625,7.629394054412842,1.4648436307907104,1.8920897245407104
1707335,0.0677490234375,-0.5484619140625,0.9034423828125,4.82177734375,0.0,0.9155272841453552
1707352,0.065185546875,-0.556884765625,0.912109375,4.39453125,0.1220703050494194,0.8544921278953552
1707368,0.063720703125,-0.567138671875,0.9503173828125,3.845214605331421,-0.4272460639476776,0.6103515625
1707384,0.0618896484375,-0.55078125,0.93994140625,3.417968511581421,-0.8544921278953552,0.2441406100988388
1707401,0.06396484375,-0.5418701171875,0.92919921875,3.173827886581421,-0.9765624403953552,0.2441406100988388
1707422,0.06298828125,-0.530517578125,0.89599609375,2.38037109375,-0.8544921278953552,0.3662109076976776
1707437,0.0609130859375,-0.540283203125,0.9150390625,2.01416015625,-0.54931640625,0.6713866591453552
1707456,0.060302734375,-0.55810546875,0.9434814453125,1.9531248807907104,-0.54931640625,0.6103515625
1707473,0.0601806640625,-0.5634765625,0.9476318359375,1.9531248807907104,-0.9765624403953552,0.3662109076976776
1707506,0.0565185546875,-0.5455322265625,0.90380859375,0.6103515625,-1.15966796875,0.0
1707523,0.0570068359375,-0.5325927734375,0.883544921875,0.1831054538488388,-1.15966796875,0.1220703050494194
1707540,0.058837890625,-0.542236328125,0.895263671875,-0.4882812201976776,-0.9155272841453552,0.30517578125
1707561,0.0596923828125,-0.54931640625,0.902587890625,-0.8544921278953552,-1.3427733182907104,0.0
1707577,0.0550537109375,-0.539306640625,0.8836669921875,-1.03759765625,-1.3427733182907104,-0.1220703050494194
1707594,0.048095703125,-0.5145263671875,0.85205078125,-1.7089842557907104,-1.4038084745407104,-0.1220703050494194
1707627,0.0535888671875,-0.5364990234375,0.8779296875,-2.563476324081421,-0.9155272841453552,0.30517578125
1707676,0.0494384765625,-0.5218505859375,0.8536376953125,-3.479003667831421,-0.6713866591453552,0.3662109076976776
1707699,0.0494384765625,-0.539306640625,0.8814697265625,-3.601073980331421,-0.4272460639476776,0.6103515625
1707716,0.051513671875,-0.54833984375,0.9053955078125,-3.540038824081421,-0.4272460639476776,0.54931640625
1707751,0.06201171875,-0.7490234375,1.1790771484375,-0.3662109076976776,-2.25830078125,-1.0986328125
1707768,0.04150390625,-0.59423828125,0.95654296875,0.54931640625,-3.601073980331421,-2.0751953125
1707784,0.0390625,-0.4464111328125,0.77392578125,0.9765624403953552,-3.051757574081421,-1.7700194120407104
1707801,0.0423583984375,-0.490478515625,0.794189453125,1.5258787870407104,-2.685546636581421,-1.4648436307907104
1707818,0.041015625,-0.5185546875,0.8355712890625,-0.1220703050494194,-2.44140625,-1.5258787870407104
1707839,0.02001953125,-0.5096435546875,0.8262939453125,0.7934569716453552,-2.38037109375,-1.4648436307907104
1707855,-0.0184326171875,-0.438720703125,0.7486572265625,0.0610351525247097,-1.220703125,-0.8544921278953552
1707876,0.0020751953125,-0.4874267578125,0.8336181640625,-0.1831054538488388,1.8310545682907104,1.4038084745407104
1707893,0.07470703125,-0.6588134765625,1.1015625,-0.7934569716453552,0.0,0.6103515625
1707909,0.05322265625,-0.4835205078125,0.7711181640625,-1.2817381620407104,-0.9765624403953552,-0.0610351525247097
1707926,0.0523681640625,-0.5234375,0.855224609375,-1.03759765625,-0.9155272841453552,-0.3662109076976776
1707942,0.0548095703125,-0.5751953125,0.9495849609375,-1.03759765625,-1.4648436307907104,-0.7324218153953552
1707959,0.0372314453125,-0.4810791015625,0.8551025390625,-0.54931640625,-1.03759765625,-0.0610351525247097
1707992,0.042724609375,-0.5499267578125,0.9217529296875,-0.2441406100988388,-0.7324218153953552,0.4272460639476776
1708013,0.0372314453125,-0.5362548828125,0.8455810546875,-0.9765624403953552,-1.15966796875,-0.1831054538488388
1708029,0.0421142578125,-0.53369140625,0.864501953125,-1.4038084745407104,-0.9155272841453552,-0.2441406100988388
1708045,0.0494384765625,-0.51904296875,0.895263671875,-1.6479490995407104,-0.6103515625,-0.1831054538488388
1708062,0.047607421875,-0.4993896484375,0.8800048828125,-1.15966796875,-0.8544921278953552,-0.1220703050494194
1708078,0.0367431640625,-0.51025390625,0.8717041015625,-0.7934569716453552,-0.7324218153953552,0.0610351525247097
1708115,0.040771484375,-0.5040283203125,0.8568115234375,-0.9765624403953552,0.7324218153953552,0.9765624403953552
1708132,0.038330078125,-0.4979248046875,0.8509521484375,-0.6103515625,2.3193359375,1.8920897245407104
1708148,0.03466796875,-0.5374755859375,0.920654296875,-0.0610351525247097,3.784179449081421,2.38037109375
1708164,0.0391845703125,-0.5509033203125,0.9849853515625,0.1831054538488388,4.21142578125,2.563476324081421
1708186,0.068603515625,-0.686279296875,1.24267578125,-0.1831054538488388,2.990722417831421,1.6479490995407104
1708202,0.0743408203125,-0.700927734375,1.32861328125,-0.3662109076976776,1.8310545682907104,0.8544921278953552
1708223,0.0784912109375,-0.7076416015625,1.3267822265625,-0.3662109076976776,1.9531248807907104,1.03759765625
1708243,0.0963134765625,-0.7449951171875,1.3638916015625,-1.2817381620407104,1.6479490995407104,0.9155272841453552
1708264,0.1116943359375,-0.732666015625,1.337646484375,-2.25830078125,-0.1220703050494194,0.0
1708283,0.1090087890625,-0.6771240234375,1.2220458984375,-3.540038824081421,-0.30517578125,0.1220703050494194
1708299,0.0989990234375,-0.6904296875,1.1971435546875,-4.69970703125,0.1831054538488388,0.6713866591453552
1708356,0.0960693359375,-0.7293701171875,1.318603515625,-4.08935546875,-1.4038084745407104,-1.15966796875
1708378,0.092041015625,-0.73486328125,1.318603515625,-2.50244140625,-1.8920897245407104,-1.220703125
1708394,0.08349609375,-0.7567138671875,1.340087890625,-1.3427733182907104,-2.25830078125,-1.4648436307907104
1708411,0.08203125,-0.76220703125,1.358642578125,-0.7934569716453552,-2.685546636581421,-1.8310545682907104
1708461,0.0509033203125,-0.6805419921875,1.243896484375,4.08935546875,-4.39453125,-2.563476324081421
1708478,0.0400390625,-0.674560546875,1.210693359375,4.57763671875,-4.8828125,-2.929687261581421
1708494,0.0380859375,-0.653564453125,1.1817626953125,4.7607421875,-5.187987804412842,-2.990722417831421
1708526,0.034423828125,-0.6075439453125,1.0810546875,5.065917491912842,-5.0048828125,-2.563476324081421
1708574,0.010498046875,-0.5364990234375,0.9039306640625,3.173827886581421,-5.615233898162842,-2.38037109375
1708598,0.0089111328125,-0.4879150390625,0.838134765625,1.7089842557907104,-5.981444835662842,-2.3193359375
1708614,0.003173828125,-0.4478759765625,0.7421875,0.0,-5.737304210662842,-1.9531248807907104
1708647,-0.0069580078125,-0.380859375,0.60986328125,-3.112792730331421,-5.493163585662842,-1.4038084745407104
1708717,-0.0107421875,-0.2366943359375,0.4041748046875,-8.544921875,-4.21142578125,0.0
1708733,-0.011474609375,-0.229736328125,0.39599609375,-9.82666015625,-3.417968511581421,0.7934569716453552
1708749,-0.01171875,-0.225830078125,0.3924560546875,-10.986327171325684,-2.929687261581421,1.220703125
1708765,-0.0107421875,-0.2213134765625,0.38671875,-11.657713890075684,-2.685546636581421,1.4038084745407104
1708782,-0.0048828125,-0.2188720703125,0.385498046875,-12.817381858825684,-2.38037109375,1.7700194120407104
1708803,-0.0050048828125,-0.2020263671875,0.3538818359375,-14.160155296325684,-2.3193359375,2.01416015625
1708819,-0.0081787109375,-0.18994140625,0.3277587890625,-14.831542015075684,-2.01416015625,2.25830078125
1708836,-0.0126953125,-0.19482421875,0.329833984375,-16.29638671875,-1.03759765625,2.990722417831421
1708853,-0.0147705078125,-0.221435546875,0.392333984375,-17.15087890625,-0.3662109076976776,3.417968511581421
1708886,-0.006591796875,-0.2861328125,0.4935302734375,-17.578125,0.0610351525247097,3.906249761581421
1708947,0.0079345703125,-0.3343505859375,0.6556396484375,-15.686034202575684,1.220703125,4.0283203125
1708969,0.01123046875,-0.343994140625,0.6868896484375,-13.793944358825684,2.01416015625,4.33349609375
1708985,0.0245361328125,-0.3746337890625,0.779052734375,-10.620116233825684,2.25830078125,3.845214605331421
1709002,0.03076171875,-0.39404296875,0.848876953125,-8.7890625,2.25830078125,3.723144292831421
1709019,0.037353515625,-0.413330078125,0.9404296875,-4.638671875,2.38037109375,3.356933355331421
1709035,0.038818359375,-0.41748046875,0.9652099609375,-0.1220703050494194,1.8920897245407104,3.051757574081421
1709065,0.0440673828125,-0.4525146484375,1.0296630859375,6.835937023162842,1.8920897245407104,2.929687261581421
1709082,0.0458984375,-0.4661865234375,1.0394287109375,11.352538108825684,1.2817381620407104,2.563476324081421
1709098,0.0433349609375,-0.49462890625,1.0013427734375,13.488768577575684,0.8544921278953552,2.3193359375
1709130,0.040283203125,-0.511474609375,0.9189453125,20.385740280151367,0.6713866591453552,1.8920897245407104
1709178,0.0169677734375,-0.484130859375,0.76025390625,24.475095748901367,0.7324218153953552,1.2817381620407104
1709200,0.025634765625,-0.4820556640625,0.7984619140625,26.000974655151367,1.6479490995407104,1.5258787870407104
1709217,0.0322265625,-0.4852294921875,0.8291015625,27.709959030151367,1.6479490995407104,1.5869139432907104
1709253,0.035888671875,-0.5107421875,0.8800048828125,30.761716842651367,1.0986328125,1.15966796875
1709269,0.035400390625,-0.521484375,0.9061279296875,31.433103561401367,0.9765624403953552,1.0986328125
1709286,0.036376953125,-0.5255126953125,0.921142578125,32.958984375,0.7934569716453552,1.03759765625
1709302,0.0380859375,-0.5482177734375,0.956298828125,34.48486328125,0.30517578125,0.9155272841453552
1709319,0.0380859375,-0.5721435546875,0.9617919921875,35.2783203125,0.0610351525247097,0.7934569716453552
1709344,0.0396728515625,-0.5904541015625,0.9415283203125,36.43798828125,-0.4882812201976776,0.4882812201976776
1709360,0.040771484375,-0.593505859375,0.906982421875,36.68212890625,-0.8544921278953552,0.2441406100988388
1709377,0.0423583984375,-0.597900390625,0.8985595703125,36.376953125,-1.0986328125,0.1831054538488388
1709394,0.043701171875,-0.5941162109375,0.866943359375,36.0107421875,-1.3427733182907104,0.0610351525247097
1709426,0.0391845703125,-0.60107421875,0.84326171875,34.912109375,-1.5258787870407104,-0.0610351525247097
1709442,0.0389404296875,-0.613525390625,0.827880859375,34.3017578125,-1.7089842557907104,-0.2441406100988388
1709458,0.0396728515625,-0.61865234375,0.81884765625,33.8134765625,-1.7700194120407104,-0.30517578125
1709490,0.0335693359375,-0.6212158203125,0.79296875,30.517576217651367,-1.8310545682907104,-0.4272460639476776
1709506,0.0318603515625,-0.6185302734375,0.786376953125,29.541013717651367,-1.8310545682907104,-0.4272460639476776
1709522,0.0281982421875,-0.6187744140625,0.7724609375,27.160642623901367,-1.8310545682907104,-0.4272460639476776
1709538,0.027099609375,-0.621337890625,0.768798828125,25.756834030151367,-1.7700194120407104,-0.4272460639476776
1709558,0.0269775390625,-0.6217041015625,0.771240234375,23.559568405151367,-1.6479490995407104,-0.3662109076976776
1709574,0.0277099609375,-0.63134765625,0.7735595703125,21.423337936401367,-1.5869139432907104,-0.4882812201976776
1709590,0.02490234375,-0.6343994140625,0.7637939453125,19.8974609375,-1.5869139432907104,-0.3662109076976776
1709606,0.02490234375,-0.64453125,0.7706298828125,17.27294921875,-1.4038084745407104,-0.1220703050494194
1709628,0.0244140625,-0.66796875,0.7794189453125,14.770506858825684,-1.4648436307907104,-0.1831054538488388
1709644,0.020751953125,-0.67333984375,0.7664794921875,13.122557640075684,-1.5258787870407104,-0.1831054538488388
1709661,0.0186767578125,-0.681884765625,0.753173828125,9.58251953125,-1.4648436307907104,0.0610351525247097
1709678,0.0205078125,-0.6884765625,0.7591552734375,6.225585460662842,-1.220703125,0.1831054538488388
1709694,0.021484375,-0.6961669921875,0.7659912109375,4.5166015625,-1.220703125,0.2441406100988388
1709728,0.0216064453125,-0.6754150390625,0.7430419921875,-2.01416015625,-1.220703125,0.4882812201976776
1709744,0.0252685546875,-0.6708984375,0.7562255859375,-4.82177734375,-1.03759765625,0.7934569716453552
1709760,0.028076171875,-0.668212890625,0.7706298828125,-5.920409679412842,-1.03759765625,0.8544921278953552
1709796,0.0269775390625,-0.6513671875,0.7667236328125,-9.521484375,-1.03759765625,1.03759765625
1709818,0.031005859375,-0.6483154296875,0.777099609375,-10.681151390075684,-0.9155272841453552,1.220703125
1709834,0.0325927734375,-0.6439208984375,0.787109375,-11.169432640075684,-1.03759765625,1.2817381620407104
1709855,0.03173828125,-0.6356201171875,0.78369140625,-11.901854515075684,-1.15966796875,1.220703125
1709872,0.03173828125,-0.6248779296875,0.7833251953125,-12.329100608825684,-1.15966796875,1.4648436307907104
1709888,0.03271484375,-0.6273193359375,0.7894287109375,-12.451170921325684,-1.03759765625,1.6479490995407104
1709905,0.03466796875,-0.6336669921875,0.8043212890625,-12.390135765075684,-1.220703125,1.6479490995407104
1709921,0.03515625,-0.6329345703125,0.809814453125,-12.207030296325684,-1.2817381620407104,1.6479490995407104
1709938,0.034912109375,-0.632568359375,0.808837890625,-12.023924827575684,-1.220703125,1.7089842557907104
1709970,0.0372314453125,-0.6427001953125,0.8258056640625,-11.169432640075684,-1.3427733182907104,1.6479490995407104
1710018,0.02783203125,-0.625,0.801025390625,-10.009765625,-1.7089842557907104,1.5258787870407104
1710040,0.0252685546875,-0.6136474609375,0.7952880859375,-9.521484375,-1.7089842557907104,1.5258787870407104
1710057,0.0216064453125,-0.6031494140625,0.792724609375,-9.21630859375,-1.6479490995407104,1.5869139432907104
1710090,0.0194091796875,-0.5975341796875,0.7896728515625,-7.873534679412842,-1.5869139432907104,1.8310545682907104
1710107,0.017578125,-0.597412109375,0.7911376953125,-7.080077648162842,-1.5258787870407104,1.8920897245407104
1710123,0.0162353515625,-0.599853515625,0.7916259765625,-6.286620616912842,-1.2817381620407104,1.9531248807907104
1710139,0.0181884765625,-0.6007080078125,0.7979736328125,-5.920409679412842,-1.2817381620407104,1.8920897245407104
1710159,0.0189208984375,-0.6007080078125,0.80224609375,-5.065917491912842,-1.220703125,1.8310545682907104
1710175,0.02099609375,-0.60400390625,0.8116455078125,-4.08935546875,-1.15966796875,1.8920897245407104
1710191,0.02001953125,-0.6083984375,0.821044921875,-3.540038824081421,-1.0986328125,1.8310545682907104
1710212,0.01953125,-0.6065673828125,0.8194580078125,-2.563476324081421,-1.220703125,1.5869139432907104
1710228,0.0211181640625,-0.599853515625,0.8165283203125,-1.6479490995407104,-1.03759765625,1.4038084745407104
1710245,0.0220947265625,-0.5899658203125,0.819580078125,-1.220703125,-1.03759765625,1.3427733182907104
1710262,0.0216064453125,-0.584716796875,0.8170166015625,-0.54931640625,-1.0986328125,1.2817381620407104
1710279,0.0240478515625,-0.575927734375,0.8253173828125,0.0,-0.9765624403953552,1.2817381620407104
1710295,0.030029296875,-0.5765380859375,0.83837890625,0.4272460639476776,-1.03759765625,1.2817381620407104
1710329,0.0313720703125,-0.579345703125,0.8223876953125,0.6103515625,-1.5258787870407104,1.220703125
1710350,0.0302734375,-0.583251953125,0.810791015625,0.30517578125,-1.4648436307907104,1.220703125
1710366,0.029296875,-0.5863037109375,0.806640625,0.0,-1.4038084745407104,1.15966796875
1710383,0.030517578125,-0.587158203125,0.8045654296875,-0.7324218153953552,-1.4648436307907104,1.03759765625
1710400,0.0335693359375,-0.5880126953125,0.7938232421875,-1.7089842557907104,-1.5869139432907104,0.9765624403953552
1710416,0.03076171875,-0.58251953125,0.775634765625,-2.38037109375,-1.5869139432907104,0.9765624403953552
1710450,0.023193359375,-0.569091796875,0.756591796875,-5.493163585662842,-1.3427733182907104,1.03759765625
1710466,0.0233154296875,-0.566162109375,0.7606201171875,-7.080077648162842,-0.9765624403953552,1.0986328125
1710482,0.0252685546875,-0.568115234375,0.7772216796875,-7.812499523162842,-0.9155272841453552,1.0986328125
1710498,0.0238037109375,-0.56494140625,0.7738037109375,-9.3994140625,-0.9765624403953552,1.0986328125
1710523,0.022705078125,-0.5599365234375,0.7752685546875,-10.986327171325684,-0.7324218153953552,1.0986328125
1710543,0.0201416015625,-0.55322265625,0.7783203125,-12.023924827575684,-0.7324218153953552,1.0986328125
1710563,0.0185546875,-0.552001953125,0.7796630859375,-13.061522483825684,-0.6103515625,1.15966796875
1710579,0.01806640625,-0.5499267578125,0.7786865234375,-13.916014671325684,-0.54931640625,1.0986328125
1710616,0.0133056640625,-0.536865234375,0.758544921875,-15.502928733825684,-0.3662109076976776,0.9765624403953552
1710636,0.0142822265625,-0.532958984375,0.7567138671875,-16.6015625,-0.0610351525247097,0.9765624403953552
1710653,0.016845703125,-0.5380859375,0.7725830078125,-17.4560546875,0.2441406100988388,0.9765624403953552
1710670,0.0169677734375,-0.5301513671875,0.7672119140625,-18.06640625,0.1831054538488388,0.9155272841453552
1710718,0.0177001953125,-0.5054931640625,0.73095703125,-19.4091796875,0.9155272841453552,0.8544921278953552
1710760,0.0166015625,-0.4901123046875,0.7474365234375,-20.446775436401367,1.0986328125,0.7324218153953552
1710777,0.015625,-0.49169921875,0.765625,-20.507810592651367,1.15966796875,0.6713866591453552
1710814,0.018798828125,-0.427490234375,0.694091796875,-20.507810592651367,1.03759765625,0.3662109076976776
1710831,0.0242919921875,-0.4385986328125,0.7108154296875,-20.446775436401367,2.44140625,1.220703125
1710847,0.032958984375,-0.498046875,0.8172607421875,-19.71435546875,2.685546636581421,1.03759765625
1710864,0.03173828125,-0.5220947265625,0.8792724609375,-18.98193359375,2.3193359375,0.6713866591453552
1710881,0.029296875,-0.5025634765625,0.8682861328125,-17.4560546875,1.03759765625,-0.4882812201976776
1710902,0.0218505859375,-0.425537109375,0.768798828125,-16.11328125,1.03759765625,-0.4272460639476776
1710918,0.0198974609375,-0.40673828125,0.7237548828125,-15.686034202575684,1.4038084745407104,-0.1831054538488388
1710935,0.021484375,-0.44921875,0.7733154296875,-14.953612327575684,2.3193359375,0.2441406100988388
1710952,0.0245361328125,-0.4654541015625,0.812255859375,-13.854979515075684,2.25830078125,-0.30517578125
1710985,0.029052734375,-0.407470703125,0.751953125,-10.803221702575684,1.7700194120407104,-0.9155272841453552
1711002,0.0345458984375,-0.4169921875,0.7655029296875,-10.131834983825684,2.25830078125,-0.6713866591453552
1711018,0.03955078125,-0.4521484375,0.8427734375,-8.6669921875,2.197265625,-1.03759765625
1711050,0.0291748046875,-0.4649658203125,0.89208984375,-5.065917491912842,1.5869139432907104,-1.8310545682907104
1711066,0.03125,-0.447998046875,0.869384765625,-2.624511480331421,1.5869139432907104,-1.9531248807907104
1711082,0.0369873046875,-0.455322265625,0.8837890625,-1.7089842557907104,1.8310545682907104,-1.8920897245407104
1711098,0.0396728515625,-0.480712890625,0.9139404296875,0.1831054538488388,1.5258787870407104,-2.25830078125
1711118,0.03515625,-0.4708251953125,0.9066162109375,2.0751953125,1.0986328125,-2.807616949081421
1711134,0.0330810546875,-0.4619140625,0.891845703125,2.868652105331421,0.9765624403953552,-2.868652105331421
1711150,0.0302734375,-0.438720703125,0.8509521484375,4.33349609375,1.2817381620407104,-2.44140625
1711166,0.031494140625,-0.478515625,0.8765869140625,5.432128429412842,2.3193359375,-1.9531248807907104
1711230,0.0252685546875,-0.4453125,0.8406982421875,12.084959983825684,2.38037109375,-2.44140625
1711246,0.041015625,-0.478515625,0.9049072265625,13.000487327575684,2.929687261581421,-2.13623046875
1711262,0.0367431640625,-0.4805908203125,0.899169921875,13.427733421325684,2.563476324081421,-2.25830078125
1711278,0.028076171875,-0.470703125,0.866943359375,14.221190452575684,2.807616949081421,-2.13623046875
1711298,0.029541015625,-0.4808349609375,0.8765869140625,14.770506858825684,3.662109136581421,-1.7089842557907104
1711314,0.0394287109375,-0.4967041015625,0.9197998046875,15.380858421325684,3.845214605331421,-1.7089842557907104
1711330,0.0592041015625,-0.5340576171875,0.982666015625,16.41845703125,2.868652105331421,-2.13623046875
1711346,0.05810546875,-0.509033203125,0.956298828125,16.9677734375,2.38037109375,-2.44140625
1711362,0.0550537109375,-0.509765625,0.9384765625,17.9443359375,2.0751953125,-2.44140625
1711378,0.054931640625,-0.5225830078125,0.9517822265625,18.310546875,1.8920897245407104,-2.50244140625
1711410,0.0552978515625,-0.53857421875,0.9554443359375,18.61572265625,0.7324218153953552,-3.295898199081421
1711426,0.041015625,-0.5111083984375,0.90869140625,18.6767578125,0.54931640625,-3.234863042831421
1711442,0.034912109375,-0.5086669921875,0.9024658203125,18.9208984375,0.7324218153953552,-3.112792730331421
1711458,0.0321044921875,-0.519287109375,0.9285888671875,19.4091796875,0.7934569716453552,-2.868652105331421
1711478,0.0390625,-0.54638671875,0.968017578125,20.202634811401367,0.6103515625,-2.685546636581421
1711494,0.045654296875,-0.570556640625,0.994384765625,20.568845748901367,0.2441406100988388,-2.929687261581421
1711510,0.0467529296875,-0.5604248046875,0.978759765625,21.362302780151367,-0.9155272841453552,-3.540038824081421
1711526,0.0350341796875,-0.5426025390625,0.9222412109375,21.545408248901367,-0.9155272841453552,-3.356933355331421
1711542,0.032958984375,-0.5457763671875,0.9356689453125,21.423337936401367,-0.54931640625,-2.990722417831421
1711558,0.0272216796875,-0.564453125,0.9293212890625,21.118162155151367,-0.7324218153953552,-2.868652105331421
1711590,0.0333251953125,-0.58349609375,0.943359375,20.324705123901367,-0.8544921278953552,-2.868652105331421
1711606,0.0245361328125,-0.561279296875,0.9163818359375,20.080564498901367,-0.7934569716453552,-2.807616949081421
1711622,0.0235595703125,-0.5743408203125,0.9296875,19.6533203125,-0.2441406100988388,-2.01416015625
1711638,0.0228271484375,-0.5966796875,0.9403076171875,19.1650390625,-0.30517578125,-1.7700194120407104
1711658,0.0283203125,-0.613525390625,0.925048828125,18.12744140625,0.0,-1.4648436307907104
1711680,0.030029296875,-0.6119384765625,0.921142578125,17.7001953125,0.1831054538488388,-1.3427733182907104
1711696,0.0296630859375,-0.61767578125,0.928955078125,16.90673828125,0.6103515625,-0.9765624403953552
1711713,0.0301513671875,-0.620849609375,0.933349609375,16.29638671875,0.3662109076976776,-0.9155272841453552
1711730,0.026611328125,-0.5980224609375,0.87353515625,15.991209983825684,0.3662109076976776,-0.8544921278953552
1711763,0.033203125,-0.6517333984375,0.9178466796875,14.526366233825684,1.7700194120407104,0.1831054538488388
1711780,0.03369140625,-0.6500244140625,0.930908203125,14.160155296325684,1.15966796875,-0.4272460639476776
1711796,0.03125,-0.6279296875,0.890869140625,14.038084983825684,1.220703125,-0.3662109076976776
1711832,0.03759765625,-0.6485595703125,0.901123046875,12.878417015075684,2.3193359375,0.9155272841453552
1711848,0.0474853515625,-0.68505859375,0.9573974609375,11.962889671325684,2.44140625,0.8544921278953552
1711865,0.04736328125,-0.6749267578125,0.9410400390625,11.352538108825684,1.5258787870407104,0.1831054538488388
1711882,0.04443359375,-0.6259765625,0.8702392578125,11.047362327575684,1.5258787870407104,0.1220703050494194
1711898,0.0457763671875,-0.6295166015625,0.8575439453125,10.253905296325684,2.0751953125,0.6713866591453552
1711915,0.0457763671875,-0.640869140625,0.865966796875,8.9111328125,2.25830078125,0.9765624403953552
1711952,0.049560546875,-0.6605224609375,0.875,7.202147960662842,1.9531248807907104,0.7324218153953552
1711968,0.05322265625,-0.65185546875,0.86767578125,6.530761241912842,1.9531248807907104,0.6103515625
1711985,0.052490234375,-0.6541748046875,0.871337890625,5.981444835662842,1.9531248807907104,0.6103515625
1712002,0.0469970703125,-0.664794921875,0.8785400390625,5.615233898162842,1.7089842557907104,0.54931640625
1712018,0.04443359375,-0.6656494140625,0.8582763671875,4.7607421875,1.5258787870407104,0.4882812201976776
1712035,0.0506591796875,-0.67041015625,0.86767578125,3.784179449081421,1.6479490995407104,0.4272460639476776
1712065,0.0538330078125,-0.6610107421875,0.8609619140625,2.44140625,1.6479490995407104,0.30517578125
1712081,0.0543212890625,-0.665771484375,0.8648681640625,1.2817381620407104,1.4038084745407104,0.30517578125
1712128,0.0625,-0.6829833984375,0.85009765625,-1.7089842557907104,1.3427733182907104,0.4882812201976776
1712149,0.09033203125,-0.887451171875,1.0535888671875,-0.4272460639476776,0.4272460639476776,-0.9155272841453552
1712169,0.122314453125,-0.9903564453125,1.1802978515625,0.7934569716453552,-4.0283203125,-5.310058116912842
1712185,0.029296875,-0.4708251953125,0.6409912109375,-0.6713866591453552,-3.356933355331421,-4.82177734375
1712255,0.0411376953125,-0.5732421875,0.7308349609375,9.09423828125,2.44140625,1.7700194120407104
1712271,0.0714111328125,-0.8411865234375,1.0572509765625,6.103515148162842,-0.0610351525247097,0.30517578125
1712288,0.076904296875,-0.9014892578125,1.118408203125,5.065917491912842,-1.8920897245407104,-1.220703125
1712304,0.0361328125,-0.5634765625,0.670654296875,2.624511480331421,-2.563476324081421,-1.5869139432907104
1712321,0.00439453125,-0.5225830078125,0.6363525390625,4.150390625,-0.1831054538488388,0.2441406100988388
1712342,0.023193359375,-0.6619873046875,0.8082275390625,5.187987804412842,0.0610351525247097,0.6103515625
1712358,0.057373046875,-0.7464599609375,0.8919677734375,3.540038824081421,-1.0986328125,-0.6713866591453552
1712375,0.0447998046875,-0.567138671875,0.6832275390625,2.929687261581421,-0.9155272841453552,-0.4882812201976776
1712392,0.0396728515625,-0.6868896484375,0.8367919921875,3.051757574081421,-0.4272460639476776,-0.1220703050494194
1712425,0.0313720703125,-0.6025390625,0.732177734375,1.3427733182907104,-0.7324218153953552,-0.1220703050494194
1712442,0.0438232421875,-0.6807861328125,0.800048828125,0.6103515625,-0.54931640625,0.0
1712458,0.048095703125,-0.68359375,0.81298828125,-0.0610351525247097,-0.7324218153953552,-0.30517578125
1712490,0.031005859375,-0.6524658203125,0.7999267578125,-1.8310545682907104,-0.6103515625,0.30517578125
1712506,0.0308837890625,-0.65771484375,0.79833984375,-2.0751953125,-0.6713866591453552,0.30517578125
1712522,0.037841796875,-0.633056640625,0.7799072265625,-2.563476324081421,-0.3662109076976776,0.30517578125
1712538,0.0435791015625,-0.64111328125,0.799560546875,-2.624511480331421,-0.4882812201976776,0.4882812201976776
1712558,0.04248046875,-0.6456298828125,0.780517578125,-2.990722417831421,-0.4272460639476776,0.2441406100988388
1712579,0.0341796875,-0.647216796875,0.791748046875,-3.234863042831421,-0.4882812201976776,0.30517578125
1712595,0.0338134765625,-0.6307373046875,0.7957763671875,-3.234863042831421,-0.3662109076976776,0.30517578125
1712612,0.0404052734375,-0.63525390625,0.7955322265625,-3.112792730331421,-0.3662109076976776,0.4272460639476776
1712662,0.0345458984375,-0.63623046875,0.7935791015625,-3.112792730331421,-0.4272460639476776,0.3662109076976776
1712679,0.0322265625,-0.6395263671875,0.79150390625,-3.234863042831421,-0.3662109076976776,0.4272460639476776
1712695,0.0367431640625,-0.6280517578125,0.804443359375,-3.295898199081421,-0.30517578125,0.3662109076976776
1712727,0.0435791015625,-0.6304931640625,0.8040771484375,-2.868652105331421,-0.3662109076976776,0.30517578125
1712749,0.0357666015625,-0.6317138671875,0.794677734375,-2.624511480331421,-0.4272460639476776,0.30517578125
1712765,0.033935546875,-0.625,0.8043212890625,-2.624511480331421,-0.3662109076976776,0.30517578125
1712782,0.0380859375,-0.6253662109375,0.8038330078125,-2.197265625,-0.3662109076976776,0.3662109076976776
1712799,0.04052734375,-0.6201171875,0.80517578125,-1.8920897245407104,-0.4272460639476776,0.30517578125
1712815,0.037353515625,-0.6265869140625,0.7991943359375,-1.7700194120407104,-0.4882812201976776,0.3662109076976776
1712848,0.0360107421875,-0.626708984375,0.8016357421875,-1.4038084745407104,-0.2441406100988388,0.30517578125
1712865,0.038818359375,-0.6173095703125,0.8067626953125,-0.9765624403953552,-0.2441406100988388,0.30517578125
1712881,0.0399169921875,-0.623046875,0.810302734375,-0.6713866591453552,-0.3662109076976776,0.30517578125
1712897,0.039306640625,-0.6209716796875,0.80517578125,-0.30517578125,-0.4272460639476776,0.2441406100988388
1712917,0.0369873046875,-0.628173828125,0.80029296875,-0.1831054538488388,-0.3662109076976776,0.2441406100988388
1712939,0.037841796875,-0.6256103515625,0.8050537109375,-0.1220703050494194,-0.2441406100988388,0.30517578125
1712955,0.037353515625,-0.6214599609375,0.80859375,0.0,-0.1831054538488388,0.30517578125
1712972,0.03759765625,-0.620849609375,0.8067626953125,0.2441406100988388,-0.2441406100988388,0.3662109076976776
1712989,0.0382080078125,-0.623779296875,0.804931640625,0.4882812201976776,-0.2441406100988388,0.30517578125
1713022,0.0357666015625,-0.6187744140625,0.805908203125,0.7934569716453552,-0.1831054538488388,0.2441406100988388
1713039,0.0369873046875,-0.6197509765625,0.8104248046875,0.9765624403953552,-0.1831054538488388,0.2441406100988388
1713055,0.0408935546875,-0.619873046875,0.8060302734375,1.2817381620407104,-0.1831054538488388,0.2441406100988388
1713087,0.0367431640625,-0.626953125,0.8016357421875,1.6479490995407104,-0.30517578125,0.1831054538488388
1713108,0.034912109375,-0.6251220703125,0.801513671875,1.7089842557907104,-0.2441406100988388,0.1831054538488388
1713124,0.037353515625,-0.6192626953125,0.8070068359375,1.8310545682907104,-0.1831054538488388,0.1831054538488388
1713141,0.038330078125,-0.614990234375,0.8017578125,2.25830078125,0.0610351525247097,0.3662109076976776
1713207,0.0233154296875,-0.5872802734375,0.805908203125,8.72802734375,2.0751953125,1.4648436307907104
1713223,0.0269775390625,-0.6173095703125,0.849365234375,11.291502952575684,2.01416015625,1.0986328125
1713239,0.0416259765625,-0.62109375,0.8690185546875,11.718749046325684,2.01416015625,1.03759765625
1713271,0.084228515625,-0.7459716796875,1.0611572265625,7.019042491912842,1.5258787870407104,1.4648436307907104
1713292,0.105712890625,-0.8558349609375,1.1986083984375,2.01416015625,0.3662109076976776,0.6103515625
1713309,0.094970703125,-0.8134765625,1.1563720703125,-2.3193359375,-0.9765624403953552,-0.1220703050494194
1713328,0.073486328125,-0.770751953125,1.058837890625,-7.385253429412842,-0.1831054538488388,1.15966796875
1713344,0.0723876953125,-0.810302734375,1.103515625,-10.192870140075684,0.4882812201976776,1.7089842557907104
1713394,0.08056640625,-0.84521484375,1.2235107421875,-20.996091842651367,0.2441406100988388,1.9531248807907104
1713464,0.0584716796875,-0.820556640625,1.0889892578125,-28.869626998901367,0.7324218153953552,2.807616949081421
1713481,0.064697265625,-0.804931640625,1.0950927734375,-30.944822311401367,1.5869139432907104,3.173827886581421
1713498,0.0745849609375,-0.81787109375,1.164794921875,-31.677244186401367,1.9531248807907104,3.417968511581421
1713514,0.0594482421875,-0.7965087890625,1.1673583984375,-31.860349655151367,1.4038084745407104,3.234863042831421
1713531,0.0501708984375,-0.78955078125,1.1380615234375,-31.860349655151367,0.9155272841453552,3.112792730331421
1713564,0.0633544921875,-0.762939453125,1.0472412109375,-32.71484375,1.7089842557907104,2.929687261581421
1713581,0.0672607421875,-0.7491455078125,1.04052734375,-32.958984375,1.7089842557907104,2.807616949081421
1713602,0.06103515625,-0.704345703125,1.0361328125,-32.5927734375,1.7089842557907104,2.746581792831421
1713618,0.0518798828125,-0.68359375,1.0355224609375,-32.3486328125,1.5869139432907104,2.746581792831421
1713635,0.049072265625,-0.6632080078125,1.02685546875,-31.372068405151367,1.4648436307907104,2.624511480331421
1713652,0.049560546875,-0.65625,1.0137939453125,-30.151365280151367,0.9765624403953552,2.197265625
1713685,0.037353515625,-0.5594482421875,0.892333984375,-28.808591842651367,0.54931640625,1.8920897245407104
1713702,0.037353515625,-0.5325927734375,0.8648681640625,-28.747556686401367,0.4272460639476776,1.8310545682907104
1713718,0.0372314453125,-0.484375,0.8092041015625,-28.015134811401367,0.30517578125,1.8310545682907104
1713746,0.0372314453125,-0.4334716796875,0.75146484375,-26.428220748901367,-0.4882812201976776,1.4038084745407104
1713768,0.03466796875,-0.4117431640625,0.7205810546875,-25.878904342651367,-0.9155272841453552,1.15966796875
1713784,0.0281982421875,-0.3570556640625,0.6478271484375,-25.024412155151367,-0.9155272841453552,1.0986328125
1713801,0.0303955078125,-0.3382568359375,0.62939453125,-23.864744186401367,-1.2817381620407104,1.15966796875
1713818,0.03173828125,-0.308837890625,0.6051025390625,-23.254392623901367,-1.5258787870407104,0.9155272841453552
1713835,0.032958984375,-0.287841796875,0.5716552734375,-20.935056686401367,-2.50244140625,0.3662109076976776
1713867,0.027099609375,-0.2452392578125,0.5220947265625,-18.1884765625,-2.44140625,0.54931640625
1713889,0.0274658203125,-0.24560546875,0.53076171875,-17.27294921875,-2.44140625,0.6103515625
1713905,0.0281982421875,-0.2537841796875,0.553955078125,-15.075682640075684,-2.624511480331421,0.6103515625
1713922,0.0279541015625,-0.25048828125,0.5679931640625,-12.329100608825684,-2.929687261581421,0.30517578125
1713943,0.0260009765625,-0.2471923828125,0.5684814453125,-8.97216796875,-3.417968511581421,0.0
1713959,0.0260009765625,-0.2322998046875,0.54833984375,-7.141112804412842,-3.417968511581421,-0.1831054538488388
1713976,0.0274658203125,-0.235107421875,0.553466796875,-2.25830078125,-2.868652105331421,-0.1831054538488388
1713997,0.03857421875,-0.2386474609375,0.6180419921875,-1.220703125,-3.112792730331421,0.3662109076976776
1714013,0.03662109375,-0.24365234375,0.622802734375,-0.9765624403953552,-3.356933355331421,0.54931640625
1714029,0.034912109375,-0.23681640625,0.649169921875,3.356933355331421,-3.356933355331421,0.1831054538488388
1714045,0.02978515625,-0.2674560546875,0.6368408203125,4.57763671875,-3.295898199081421,0.3662109076976776
1714109,0.0478515625,-0.3314208984375,0.8333740234375,15.991209983825684,-2.44140625,0.6103515625
1714181,0.0574951171875,-0.4111328125,0.9129638671875,25.573728561401367,-2.807616949081421,0.0610351525247097
1714198,0.057861328125,-0.4425048828125,0.9017333984375,26.611326217651367,-2.746581792831421,0.2441406100988388
1714215,0.057373046875,-0.4534912109375,0.8984375,28.198240280151367,-2.868652105331421,0.2441406100988388
1714235,0.0487060546875,-0.468505859375,0.843017578125,29.541013717651367,-2.929687261581421,0.30517578125
1714252,0.0472412109375,-0.4649658203125,0.838623046875,30.456541061401367,-2.38037109375,0.3662109076976776
1714269,0.0506591796875,-0.4774169921875,0.85986328125,31.616209030151367,-2.3193359375,0.4882812201976776
1714285,0.0460205078125,-0.4798583984375,0.8482666015625,31.982419967651367,-2.44140625,0.54931640625
1714301,0.0421142578125,-0.490478515625,0.84619140625,32.77587890625,-2.13623046875,0.6713866591453552
1714317,0.0364990234375,-0.5074462890625,0.867431640625,33.447265625,-2.0751953125,0.6103515625
1714349,0.0341796875,-0.5130615234375,0.869140625,33.935546875,-2.01416015625,0.54931640625
1714365,0.0352783203125,-0.5137939453125,0.8714599609375,33.8134765625,-2.01416015625,0.6103515625
1714381,0.0369873046875,-0.5208740234375,0.868896484375,33.3251953125,-2.0751953125,0.7324218153953552
1714397,0.03271484375,-0.537841796875,0.8548583984375,32.3486328125,-2.197265625,0.7934569716453552
1714417,0.0263671875,-0.5797119140625,0.8270263671875,30.578611373901367,-1.9531248807907104,0.6103515625
1714439,0.028076171875,-0.523681640625,0.8695068359375,30.700681686401367,-1.8920897245407104,0.6713866591453552
1714455,0.0245361328125,-0.545166015625,0.85693359375,31.555173873901367,-2.13623046875,0.7934569716453552
1714472,0.0250244140625,-0.556884765625,0.8299560546875,30.151365280151367,-2.0751953125,1.03759765625
1714489,0.0203857421875,-0.5882568359375,0.7994384765625,30.700681686401367,-2.01416015625,0.9155272841453552
1714522,0.0201416015625,-0.60693359375,0.8199462890625,27.770994186401367,-1.5258787870407104,0.8544921278953552
1714539,0.0213623046875,-0.612060546875,0.80712890625,24.902341842651367,-1.3427733182907104,0.8544921278953552
1714555,0.020751953125,-0.6087646484375,0.8006591796875,23.864744186401367,-1.220703125,0.8544921278953552
1714584,0.025146484375,-0.6180419921875,0.80224609375,20.812986373901367,-1.15966796875,0.8544921278953552
1714639,0.02880859375,-0.63427734375,0.80078125,15.380858421325684,-0.7324218153953552,0.8544921278953552
1714656,0.031005859375,-0.643798828125,0.804443359375,13.427733421325684,-0.7324218153953552,0.7934569716453552
1714672,0.0350341796875,-0.634521484375,0.8065185546875,11.962889671325684,-0.7324218153953552,0.7934569716453552
1714706,0.040283203125,-0.6492919921875,0.8197021484375,7.019042491912842,-0.8544921278953552,0.9765624403953552
1714722,0.0440673828125,-0.65673828125,0.823486328125,4.33349609375,-1.0986328125,0.8544921278953552
1714738,0.0419921875,-0.6483154296875,0.8099365234375,1.0986328125,-1.2817381620407104,0.9155272841453552
1714766,0.0396728515625,-0.6417236328125,0.7867431640625,-1.7700194120407104,-1.4038084745407104,1.15966796875
1714788,0.038330078125,-0.64111328125,0.784912109375,-3.051757574081421,-1.220703125,1.03759765625
1714804,0.0384521484375,-0.6431884765625,0.791015625,-4.39453125,-1.2817381620407104,0.9155272841453552
1714821,0.0361328125,-0.6470947265625,0.7755126953125,-6.042479991912842,-1.3427733182907104,1.03759765625
1714838,0.0361328125,-0.636474609375,0.7740478515625,-7.324218273162842,-1.2817381620407104,0.9155272841453552
1714855,0.035888671875,-0.6451416015625,0.768798828125,-9.33837890625,-1.03759765625,1.0986328125
1714885,0.036865234375,-0.6385498046875,0.7841796875,-10.559081077575684,-0.9765624403953552,1.0986328125
1714902,0.0361328125,-0.629150390625,0.788330078125,-12.023924827575684,-0.8544921278953552,1.220703125
1714918,0.0361328125,-0.6290283203125,0.79833984375,-11.840819358825684,-0.7324218153953552,1.2817381620407104
1714950,0.0384521484375,-0.6220703125,0.8253173828125,-12.207030296325684,-0.54931640625,1.03759765625
1714998,0.0350341796875,-0.600341796875,0.822021484375,-11.657713890075684,-0.3662109076976776,0.9155272841453552
1715024,0.0361328125,-0.5963134765625,0.8187255859375,-11.169432640075684,-0.1831054538488388,0.9155272841453552
1715040,0.036376953125,-0.5941162109375,0.8197021484375,-10.437010765075684,-0.1220703050494194,0.8544921278953552
1715057,0.037109375,-0.594482421875,0.8199462890625,-9.6435546875,0.1220703050494194,0.7324218153953552
1715078,0.0396728515625,-0.5888671875,0.827880859375,-8.544921875,0.0610351525247097,0.6103515625
1715094,0.0374755859375,-0.5870361328125,0.822265625,-7.446288585662842,0.0,0.4272460639476776
1715126,0.03662109375,-0.5789794921875,0.8162841796875,-5.493163585662842,0.3662109076976776,0.30517578125
1715148,0.0379638671875,-0.58544921875,0.8280029296875,-4.638671875,0.3662109076976776,0.1831054538488388
1715164,0.038330078125,-0.5870361328125,0.836181640625,-3.112792730331421,0.1831054538488388,0.0
1715185,0.036865234375,-0.5826416015625,0.825927734375,-2.197265625,0.1831054538488388,-0.1831054538488388
1715202,0.037109375,-0.578369140625,0.825927734375,-1.4038084745407104,0.30517578125,-0.1831054538488388
1715218,0.0386962890625,-0.58203125,0.8375244140625,-0.1831054538488388,0.4882812201976776,-0.2441406100988388
1715255,0.03515625,-0.577392578125,0.8248291015625,2.3193359375,0.2441406100988388,-0.3662109076976776
1715272,0.0333251953125,-0.57080078125,0.8126220703125,3.601073980331421,0.30517578125,-0.4882812201976776
1715288,0.0330810546875,-0.5687255859375,0.8104248046875,4.39453125,0.4882812201976776,-0.4882812201976776
1715304,0.0345458984375,-0.5650634765625,0.8145751953125,5.432128429412842,0.6103515625,-0.4882812201976776
1715326,0.0333251953125,-0.5640869140625,0.8172607421875,6.835937023162842,0.7324218153953552,-0.4882812201976776
1715342,0.0328369140625,-0.57666015625,0.82763671875,7.263183116912842,0.7934569716453552,-0.4882812201976776
1715359,0.033447265625,-0.5821533203125,0.8349609375,8.056640625,0.7934569716453552,-0.6103515625
1715376,0.034912109375,-0.5908203125,0.8367919921875,8.85009765625,0.6713866591453552,-0.7934569716453552
1715392,0.0374755859375,-0.58642578125,0.838134765625,9.033203125,0.6713866591453552,-0.9155272841453552
1715426,0.0396728515625,-0.5869140625,0.841796875,9.1552734375,0.6713866591453552,-1.15966796875
1715442,0.0379638671875,-0.5791015625,0.8280029296875,8.72802734375,0.4882812201976776,-1.2817381620407104
1715458,0.0379638671875,-0.57666015625,0.821044921875,8.1787109375,0.54931640625,-1.2817381620407104
1715486,0.044189453125,-0.5738525390625,0.8203125,6.469726085662842,0.54931640625,-1.4038084745407104
1715508,0.044189453125,-0.5738525390625,0.821044921875,4.82177734375,0.4272460639476776,-1.4038084745407104
1715524,0.0423583984375,-0.567138671875,0.8135986328125,4.08935546875,0.2441406100988388,-1.5258787870407104
1715541,0.03955078125,-0.567138671875,0.805419921875,2.50244140625,0.1831054538488388,-1.5258787870407104
1715558,0.03662109375,-0.569580078125,0.80615234375,0.6103515625,0.0,-1.5258787870407104
1715575,0.030517578125,-0.570068359375,0.78564453125,-1.2817381620407104,-0.1831054538488388,-1.5869139432907104
1715605,0.02685546875,-0.5631103515625,0.760498046875,-4.69970703125,-0.1831054538488388,-1.4038084745407104
1715622,0.026611328125,-0.56640625,0.75927734375,-7.019042491912842,0.0,-1.2817381620407104
1715638,0.0284423828125,-0.5679931640625,0.7630615234375,-7.934569835662842,0.0610351525247097,-1.15966796875
1715666,0.0302734375,-0.5816650390625,0.780029296875,-10.620116233825684,-0.1220703050494194,-1.03759765625
1715688,0.026611328125,-0.5799560546875,0.7779541015625,-12.145995140075684,-0.2441406100988388,-1.0986328125
1715704,0.024169921875,-0.575927734375,0.77294921875,-12.939452171325684,-0.1220703050494194,-0.9765624403953552
1715721,0.0255126953125,-0.5765380859375,0.77734375,-14.709471702575684,0.0610351525247097,-0.7934569716453552
1715738,0.0255126953125,-0.5693359375,0.7637939453125,-16.4794921875,-0.1220703050494194,-0.7324218153953552
1715754,0.0252685546875,-0.55810546875,0.7467041015625,-17.578125,0.0,-0.6713866591453552
1715786,0.0267333984375,-0.5408935546875,0.7449951171875,-21.179197311401367,0.6713866591453552,-0.0610351525247097
1715808,0.033203125,-0.551513671875,0.7860107421875,-22.216794967651367,0.7934569716453552,0.0610351525247097
1715824,0.036865234375,-0.542724609375,0.8094482421875,-22.460935592651367,0.6103515625,-0.1220703050494194
1715841,0.0369873046875,-0.53369140625,0.8077392578125,-22.888181686401367,0.30517578125,-0.1220703050494194
1715858,0.0360107421875,-0.5120849609375,0.8046875,-22.766111373901367,0.2441406100988388,-0.0610351525247097
1715908,0.0316162109375,-0.47119140625,0.745849609375,-22.888181686401367,0.1220703050494194,0.2441406100988388
1715924,0.0269775390625,-0.471923828125,0.7529296875,-23.010251998901367,1.03759765625,0.7324218153953552
1715940,0.0301513671875,-0.4859619140625,0.78515625,-22.705076217651367,1.220703125,0.7324218153953552
1715975,0.042236328125,-0.47705078125,0.819580078125,-20.446775436401367,0.30517578125,-0.0610351525247097
1716028,0.04345703125,-0.4661865234375,0.8111572265625,-17.9443359375,0.3662109076976776,-0.1831054538488388
1716045,0.040283203125,-0.479736328125,0.8358154296875,-17.333984375,0.3662109076976776,-0.30517578125
1716062,0.036865234375,-0.4830322265625,0.843017578125,-15.686034202575684,0.2441406100988388,-0.7324218153953552
1716078,0.033935546875,-0.480224609375,0.867431640625,-13.732909202575684,0.1220703050494194,-1.2817381620407104
1716098,0.0357666015625,-0.46826171875,0.85205078125,-11.840819358825684,0.0610351525247097,-1.4038084745407104
1716115,0.0389404296875,-0.481201171875,0.851318359375,-10.131834983825684,0.6713866591453552,-1.2817381620407104
1716147,0.04736328125,-0.536376953125,0.9609375,-7.019042491912842,0.30517578125,-2.13623046875
1716163,0.0382080078125,-0.5018310546875,0.9281005859375,-4.82177734375,-0.7324218153953552,-2.929687261581421
1716179,0.0294189453125,-0.4627685546875,0.8770751953125,-3.784179449081421,-0.4882812201976776,-2.746581792831421
1716211,0.0283203125,-0.4642333984375,0.87158203125,-1.4648436307907104,0.3662109076976776,-2.3193359375
1716227,0.0260009765625,-0.460205078125,0.8590087890625,-0.2441406100988388,-0.1220703050494194,-2.746581792831421
1716243,0.021484375,-0.4229736328125,0.8001708984375,0.54931640625,0.30517578125,-2.50244140625
1716259,0.02001953125,-0.4217529296875,0.7899169921875,0.8544921278953552,0.9155272841453552,-2.13623046875
1716333,0.0164794921875,-0.37841796875,0.7401123046875,3.906249761581421,1.3427733182907104,-2.0751953125
1716349,0.0181884765625,-0.392822265625,0.7633056640625,4.150390625,2.685546636581421,-1.4648436307907104
1716366,0.0218505859375,-0.426025390625,0.8438720703125,4.33349609375,2.868652105331421,-1.4038084745407104
1716383,0.0247802734375,-0.429931640625,0.8751220703125,5.187987804412842,2.44140625,-1.7089842557907104
1716399,0.0235595703125,-0.409912109375,0.8426513671875,6.103515148162842,2.38037109375,-1.5258787870407104
1716420,0.031494140625,-0.4368896484375,0.8670654296875,7.080077648162842,3.479003667831421,-0.7934569716453552
1716440,0.039794921875,-0.4854736328125,0.944580078125,8.48388671875,2.929687261581421,-1.220703125
1716457,0.038330078125,-0.465087890625,0.92236328125,10.009765625,2.13623046875,-1.5869139432907104
1716477,0.0335693359375,-0.42333984375,0.853271484375,11.291502952575684,2.746581792831421,-0.9765624403953552
1716509,0.0455322265625,-0.4847412109375,0.951904296875,12.817381858825684,2.868652105331421,-0.4882812201976776
1716525,0.043701171875,-0.5068359375,0.970947265625,14.099120140075684,2.13623046875,-1.03759765625
1716541,0.0418701171875,-0.49169921875,0.9549560546875,14.709471702575684,1.6479490995407104,-1.2817381620407104
1716557,0.03369140625,-0.4512939453125,0.863525390625,15.747069358825684,1.7700194120407104,-0.9155272841453552
1716577,0.03515625,-0.4498291015625,0.8551025390625,16.05224609375,2.3193359375,-0.2441406100988388
1716599,0.035400390625,-0.491455078125,0.8802490234375,15.991209983825684,2.685546636581421,0.0610351525247097
1716615,0.0284423828125,-0.5057373046875,0.8851318359375,15.869139671325684,2.624511480331421,0.0610351525247097
1716632,0.027099609375,-0.5162353515625,0.895263671875,16.11328125,2.807616949081421,0.1831054538488388
1716649,0.024169921875,-0.5137939453125,0.8876953125,16.17431640625,2.746581792831421,0.2441406100988388
1716682,0.02978515625,-0.533935546875,0.8936767578125,14.831542015075684,3.540038824081421,1.0986328125
1716699,0.037109375,-0.561767578125,0.9385986328125,13.977049827575684,3.540038824081421,1.03759765625
1716715,0.03955078125,-0.556396484375,0.9512939453125,13.366698265075684,2.868652105331421,0.9765624403953552
1716747,0.046630859375,-0.5606689453125,0.9671630859375,12.207030296325684,2.807616949081421,1.2817381620407104
1716768,0.050048828125,-0.5699462890625,0.986328125,11.901854515075684,2.50244140625,1.220703125
1716784,0.05322265625,-0.574951171875,1.005859375,11.596678733825684,1.8920897245407104,1.0986328125
1716834,0.062255859375,-0.572998046875,1.0389404296875,13.122557640075684,0.30517578125,0.7934569716453552
1716878,0.0531005859375,-0.6029052734375,0.9937744140625,15.075682640075684,-1.15966796875,0.8544921278953552
1716895,0.056884765625,-0.6180419921875,1.008056640625,15.502928733825684,-1.7700194120407104,0.30517578125
1716925,0.053955078125,-0.5731201171875,0.9273681640625,16.17431640625,-2.929687261581421,-0.6713866591453552
1716941,0.050537109375,-0.5728759765625,0.9112548828125,16.357421875,-2.624511480331421,-0.1220703050494194
1716958,0.0567626953125,-0.61474609375,0.96533203125,16.357421875,-2.868652105331421,0.0610351525247097
1716986,0.052490234375,-0.633544921875,0.94384765625,16.05224609375,-3.662109136581421,-0.6103515625
1717008,0.051513671875,-0.6185302734375,0.9249267578125,15.686034202575684,-3.967284917831421,-0.6713866591453552
1717024,0.04736328125,-0.575927734375,0.8624267578125,14.587401390075684,-3.479003667831421,-0.0610351525247097
1717041,0.0545654296875,-0.6258544921875,0.9000244140625,12.695311546325684,-3.356933355331421,0.3662109076976776
1717091,0.051513671875,-0.584228515625,0.8768310546875,7.873534679412842,-3.723144292831421,0.1831054538488388
1717239,0.045654296875,-0.6661376953125,0.8883056640625,-1.8310545682907104,-1.7700194120407104,2.44140625
1717256,0.049560546875,-0.668701171875,0.9119873046875,-2.685546636581421,-1.9531248807907104,1.8920897245407104
1717289,0.05322265625,-0.597412109375,0.8516845703125,-3.173827886581421,-2.0751953125,1.7089842557907104
1717306,0.0455322265625,-0.6014404296875,0.83154296875,-3.601073980331421,-1.8310545682907104,2.197265625
1717322,0.0439453125,-0.6124267578125,0.8372802734375,-4.5166015625,-1.220703125,2.50244140625
1717339,0.0440673828125,-0.6260986328125,0.860107421875,-4.69970703125,-1.03759765625,2.3193359375
