tMillis,ax,ay,az,gx,gy,gz
2630685,0.0731201171875,0.9344482421875,0.346435546875,0.54931640625,-0.1220703050494194,0.2441406100988388
2630701,0.0758056640625,0.9326171875,0.3521728515625,0.9155272841453552,-0.30517578125,0.2441406100988388
2630717,0.0731201171875,0.9345703125,0.349853515625,1.2817381620407104,-0.3662109076976776,0.2441406100988388
2630734,0.072509765625,0.9361572265625,0.3463134765625,1.4648436307907104,-0.3662109076976776,0.2441406100988388
2630755,0.0733642578125,0.93310546875,0.344482421875,1.9531248807907104,-0.30517578125,0.2441406100988388
2630771,0.0743408203125,0.932861328125,0.3485107421875,2.13623046875,-0.30517578125,0.2441406100988388
2630838,0.0723876953125,0.93310546875,0.3502197265625,3.356933355331421,-0.4272460639476776,0.1831054538488388
2630855,0.0733642578125,0.93310546875,0.35302734375,3.540038824081421,-0.4272460639476776,0.1831054538488388
2630871,0.0745849609375,0.930419921875,0.3565673828125,3.601073980331421,-0.4272460639476776,0.1220703050494194
2630891,0.073974609375,0.9288330078125,0.3592529296875,3.723144292831421,-0.4882812201976776,0.1220703050494194
2630911,0.073486328125,0.9295654296875,0.3560791015625,3.906249761581421,-0.4882812201976776,0.1220703050494194
2630933,0.0726318359375,0.9302978515625,0.3563232421875,4.08935546875,-0.4272460639476776,0.1831054538488388
2630949,0.0745849609375,0.928466796875,0.3619384765625,4.150390625,-0.4272460639476776,0.1831054538488388
2630966,0.074462890625,0.9267578125,0.3631591796875,4.21142578125,-0.4882812201976776,0.1220703050494194
2630983,0.0738525390625,0.927734375,0.3638916015625,4.21142578125,-0.4882812201976776,0.1220703050494194
2631016,0.07421875,0.92724609375,0.362060546875,4.150390625,-0.4882812201976776,0.1831054538488388
2631033,0.073486328125,0.9266357421875,0.3658447265625,4.21142578125,-0.4882812201976776,0.2441406100988388
2631049,0.0731201171875,0.9234619140625,0.3697509765625,4.08935546875,-0.4882812201976776,0.1220703050494194
2631081,0.074951171875,0.92529296875,0.368896484375,3.906249761581421,-0.4272460639476776,0.0610351525247097
2631097,0.073974609375,0.925537109375,0.3702392578125,3.845214605331421,-0.4272460639476776,0.1220703050494194
2631113,0.073486328125,0.926025390625,0.371826171875,3.723144292831421,-0.4272460639476776,0.1831054538488388
2631149,0.0732421875,0.9217529296875,0.3740234375,3.479003667831421,-0.3662109076976776,0.1220703050494194
2631171,0.0728759765625,0.9229736328125,0.375,3.356933355331421,-0.3662109076976776,0.1220703050494194
2631187,0.07373046875,0.9234619140625,0.37548828125,3.112792730331421,-0.4272460639476776,0.1831054538488388
2631207,0.0731201171875,0.9224853515625,0.375,2.990722417831421,-0.4272460639476776,0.30517578125
2631223,0.072998046875,0.9212646484375,0.377197265625,2.929687261581421,-0.3662109076976776,0.2441406100988388
2631240,0.073486328125,0.9207763671875,0.3787841796875,2.563476324081421,-0.3662109076976776,0.1220703050494194
2631257,0.073974609375,0.921875,0.3787841796875,2.44140625,-0.3662109076976776,0.1831054538488388
2631274,0.0738525390625,0.922119140625,0.377685546875,2.25830078125,-0.3662109076976776,0.1831054538488388
2631295,0.072509765625,0.922607421875,0.37890625,2.01416015625,-0.30517578125,0.1831054538488388
2631311,0.0731201171875,0.919677734375,0.380615234375,1.8920897245407104,-0.3662109076976776,0.1831054538488388
2631328,0.0732421875,0.9195556640625,0.3807373046875,1.7089842557907104,-0.30517578125,0.1831054538488388
2631345,0.0732421875,0.9224853515625,0.3812255859375,1.5258787870407104,-0.3662109076976776,0.1831054538488388
2631378,0.0726318359375,0.9210205078125,0.3804931640625,1.220703125,-0.30517578125,0.1831054538488388
2631443,0.0726318359375,0.9212646484375,0.3797607421875,0.6103515625,-0.1831054538488388,0.30517578125
2631459,0.0733642578125,0.9193115234375,0.3795166015625,0.54931640625,-0.1831054538488388,0.30517578125
2631475,0.07421875,0.919921875,0.3804931640625,0.4272460639476776,-0.2441406100988388,0.1831054538488388
2631491,0.0738525390625,0.9207763671875,0.37890625,0.1831054538488388,-0.1831054538488388,0.2441406100988388
2631511,0.07177734375,0.923828125,0.37939453125,0.1220703050494194,-0.1831054538488388,0.2441406100988388
2631527,0.072998046875,0.92333984375,0.3800048828125,0.0610351525247097,-0.1831054538488388,0.2441406100988388
2631543,0.073974609375,0.920654296875,0.37744140625,-0.0610351525247097,-0.2441406100988388,0.2441406100988388
2631559,0.074462890625,0.92333984375,0.3780517578125,-0.0610351525247097,-0.2441406100988388,0.30517578125
2631581,0.07373046875,0.923095703125,0.378173828125,-0.1831054538488388,-0.1831054538488388,0.30517578125
2631597,0.0726318359375,0.9202880859375,0.3768310546875,-0.2441406100988388,-0.1831054538488388,0.30517578125
2631614,0.0726318359375,0.92236328125,0.3765869140625,-0.30517578125,-0.1831054538488388,0.2441406100988388
2631631,0.0738525390625,0.9232177734375,0.37646484375,-0.4272460639476776,-0.1831054538488388,0.2441406100988388
2631647,0.07373046875,0.9210205078125,0.3758544921875,-0.3662109076976776,-0.1831054538488388,0.30517578125
2631680,0.0740966796875,0.9222412109375,0.375244140625,-0.4272460639476776,-0.1831054538488388,0.30517578125
2631697,0.0732421875,0.92333984375,0.3746337890625,-0.4882812201976776,-0.1831054538488388,0.30517578125
2631747,0.0743408203125,0.9229736328125,0.3741455078125,-0.4272460639476776,-0.1831054538488388,0.30517578125
2631769,0.0732421875,0.9219970703125,0.3739013671875,-0.4272460639476776,-0.2441406100988388,0.2441406100988388
2631785,0.073486328125,0.9249267578125,0.3726806640625,-0.4272460639476776,-0.1831054538488388,0.2441406100988388
2631806,0.073486328125,0.9232177734375,0.3709716796875,-0.3662109076976776,-0.1831054538488388,0.2441406100988388
2631856,0.0740966796875,0.92333984375,0.3707275390625,-0.30517578125,-0.1831054538488388,0.2441406100988388
2631872,0.0726318359375,0.9268798828125,0.3721923828125,-0.1220703050494194,-0.2441406100988388,0.2441406100988388
2631889,0.0732421875,0.928466796875,0.371826171875,-0.0610351525247097,-0.2441406100988388,0.30517578125
2631921,0.07373046875,0.9273681640625,0.3697509765625,-0.1220703050494194,-0.1220703050494194,0.30517578125
2631942,0.0732421875,0.9268798828125,0.369873046875,-0.0610351525247097,-0.2441406100988388,0.2441406100988388
2631958,0.0718994140625,0.9249267578125,0.369873046875,0.1220703050494194,-0.2441406100988388,0.1831054538488388
2631975,0.074462890625,0.926025390625,0.3704833984375,0.1831054538488388,-0.2441406100988388,0.2441406100988388
2631992,0.0745849609375,0.92578125,0.368408203125,0.1831054538488388,-0.2441406100988388,0.2441406100988388
2632008,0.0736083984375,0.9266357421875,0.3695068359375,0.30517578125,-0.2441406100988388,0.30517578125
2632042,0.0731201171875,0.9246826171875,0.3687744140625,0.4882812201976776,-0.30517578125,0.2441406100988388
2632058,0.0748291015625,0.923583984375,0.367431640625,0.54931640625,-0.30517578125,0.2441406100988388
2632074,0.073974609375,0.9261474609375,0.368408203125,0.6103515625,-0.2441406100988388,0.2441406100988388
2632090,0.0726318359375,0.9267578125,0.36962890625,0.6713866591453552,-0.2441406100988388,0.2441406100988388
2632110,0.0726318359375,0.922119140625,0.3677978515625,0.7934569716453552,-0.2441406100988388,0.2441406100988388
2632126,0.0740966796875,0.9285888671875,0.369873046875,0.8544921278953552,-0.2441406100988388,0.1831054538488388
2632142,0.07470703125,0.9278564453125,0.369384765625,0.9765624403953552,-0.2441406100988388,0.2441406100988388
2632158,0.0738525390625,0.9251708984375,0.3677978515625,1.03759765625,-0.2441406100988388,0.30517578125
2632180,0.0736083984375,0.9305419921875,0.3697509765625,1.0986328125,-0.2441406100988388,0.2441406100988388
2632196,0.0750732421875,0.927001953125,0.369873046875,1.0986328125,-0.30517578125,0.2441406100988388
2632213,0.0740966796875,0.9259033203125,0.369873046875,1.0986328125,-0.30517578125,0.2441406100988388
2632230,0.0732421875,0.92724609375,0.3697509765625,1.15966796875,-0.2441406100988388,0.2441406100988388
2632246,0.0726318359375,0.9254150390625,0.3704833984375,1.220703125,-0.2441406100988388,0.2441406100988388
2632308,0.0731201171875,0.923095703125,0.3695068359375,1.220703125,-0.30517578125,0.2441406100988388
2632350,0.0733642578125,0.9222412109375,0.3695068359375,1.2817381620407104,-0.2441406100988388,0.1831054538488388
2632367,0.073486328125,0.9244384765625,0.37060546875,1.220703125,-0.2441406100988388,0.1831054538488388
2632400,0.073974609375,0.92431640625,0.3701171875,1.2817381620407104,-0.30517578125,0.30517578125
2632417,0.0732421875,0.9246826171875,0.3724365234375,1.3427733182907104,-0.30517578125,0.30517578125
2632434,0.0738525390625,0.92529296875,0.372802734375,1.2817381620407104,-0.2441406100988388,0.30517578125
2632450,0.0731201171875,0.9239501953125,0.3720703125,1.2817381620407104,-0.30517578125,0.30517578125
2632470,0.0728759765625,0.9251708984375,0.3724365234375,1.15966796875,-0.30517578125,0.2441406100988388
2632492,0.0731201171875,0.9256591796875,0.3740234375,1.15966796875,-0.2441406100988388,0.2441406100988388
2632508,0.073486328125,0.9228515625,0.3724365234375,1.15966796875,-0.2441406100988388,0.2441406100988388
2632527,0.0745849609375,0.9251708984375,0.372802734375,1.0986328125,-0.2441406100988388,0.2441406100988388
2632544,0.07373046875,0.92333984375,0.372802734375,1.0986328125,-0.2441406100988388,0.2441406100988388
2632577,0.0718994140625,0.9234619140625,0.3724365234375,1.03759765625,-0.2441406100988388,0.1831054538488388
2632594,0.07373046875,0.9237060546875,0.37353515625,0.9765624403953552,-0.2441406100988388,0.30517578125
2632610,0.0743408203125,0.9232177734375,0.3729248046875,0.9765624403953552,-0.2441406100988388,0.30517578125
2632643,0.0733642578125,0.924560546875,0.3731689453125,0.7934569716453552,-0.30517578125,0.2441406100988388
2632664,0.0740966796875,0.9241943359375,0.3719482421875,0.7934569716453552,-0.30517578125,0.1831054538488388
2632680,0.073974609375,0.9234619140625,0.3729248046875,0.7934569716453552,-0.2441406100988388,0.2441406100988388
2632697,0.07275390625,0.9229736328125,0.373779296875,0.7934569716453552,-0.2441406100988388,0.2441406100988388
2632714,0.0732421875,0.925048828125,0.375,0.6713866591453552,-0.30517578125,0.2441406100988388
2632730,0.0732421875,0.9232177734375,0.373779296875,0.6713866591453552,-0.2441406100988388,0.2441406100988388
2632764,0.0738525390625,0.9248046875,0.3731689453125,0.6103515625,-0.1831054538488388,0.2441406100988388
2632780,0.07373046875,0.9249267578125,0.3740234375,0.54931640625,-0.30517578125,0.30517578125
2632796,0.0731201171875,0.9228515625,0.3740234375,0.54931640625,-0.2441406100988388,0.2441406100988388
2632812,0.0728759765625,0.922119140625,0.3729248046875,0.54931640625,-0.1831054538488388,0.2441406100988388
2632837,0.0736083984375,0.92431640625,0.3714599609375,0.54931640625,-0.2441406100988388,0.30517578125
2632853,0.073974609375,0.9239501953125,0.373291015625,0.54931640625,-0.30517578125,0.30517578125
2632870,0.073486328125,0.926513671875,0.3734130859375,0.4882812201976776,-0.2441406100988388,0.30517578125
2632887,0.0743408203125,0.9239501953125,0.372802734375,0.54931640625,-0.2441406100988388,0.30517578125
2632903,0.0733642578125,0.9224853515625,0.372314453125,0.54931640625,-0.2441406100988388,0.2441406100988388
2632937,0.0740966796875,0.9259033203125,0.3720703125,0.4272460639476776,-0.2441406100988388,0.2441406100988388
2632954,0.0733642578125,0.92529296875,0.3719482421875,0.4882812201976776,-0.2441406100988388,0.2441406100988388
2632979,0.0736083984375,0.9246826171875,0.3720703125,0.54931640625,-0.1831054538488388,0.2441406100988388
2632994,0.072998046875,0.92431640625,0.3712158203125,0.54931640625,-0.1831054538488388,0.1831054538488388
2633060,0.0740966796875,0.9212646484375,0.3701171875,0.6103515625,-0.2441406100988388,0.30517578125
2633076,0.07373046875,0.92626953125,0.3720703125,0.6103515625,-0.2441406100988388,0.2441406100988388
2633093,0.0743408203125,0.93115234375,0.374755859375,0.6713866591453552,-0.30517578125,0.30517578125
2633129,0.0731201171875,0.9234619140625,0.3712158203125,0.6713866591453552,-0.30517578125,0.2441406100988388
2633145,0.075439453125,0.9263916015625,0.3726806640625,0.7324218153953552,-0.30517578125,0.30517578125
2633161,0.073974609375,0.9239501953125,0.37158203125,0.7934569716453552,-0.2441406100988388,0.30517578125
2633177,0.072265625,0.9234619140625,0.372314453125,0.7934569716453552,-0.30517578125,0.2441406100988388
2633194,0.0723876953125,0.9229736328125,0.3719482421875,0.7324218153953552,-0.30517578125,0.2441406100988388
2633215,0.074462890625,0.9256591796875,0.372314453125,0.7324218153953552,-0.30517578125,0.30517578125
2633231,0.072998046875,0.927490234375,0.3739013671875,0.7934569716453552,-0.30517578125,0.30517578125
2633249,0.074462890625,0.922607421875,0.370849609375,0.8544921278953552,-0.30517578125,0.2441406100988388
2633266,0.0738525390625,0.920654296875,0.3702392578125,0.8544921278953552,-0.30517578125,0.30517578125
2633299,0.0731201171875,0.923828125,0.370849609375,0.8544921278953552,-0.2441406100988388,0.30517578125
2633316,0.0721435546875,0.925048828125,0.3720703125,0.8544921278953552,-0.2441406100988388,0.2441406100988388
2633332,0.0714111328125,0.9232177734375,0.3712158203125,0.8544921278953552,-0.30517578125,0.30517578125
2633360,0.0748291015625,0.9246826171875,0.3717041015625,0.7934569716453552,-0.2441406100988388,0.30517578125
2633382,0.0743408203125,0.9239501953125,0.37255859375,0.8544921278953552,-0.30517578125,0.30517578125
2633398,0.0733642578125,0.9227294921875,0.373779296875,0.8544921278953552,-0.30517578125,0.2441406100988388
2633415,0.07373046875,0.9229736328125,0.3743896484375,0.8544921278953552,-0.30517578125,0.1831054538488388
2633432,0.0745849609375,0.9248046875,0.3734130859375,0.8544921278953552,-0.30517578125,0.1831054538488388
2633448,0.0732421875,0.9256591796875,0.3719482421875,0.8544921278953552,-0.30517578125,0.2441406100988388
2633482,0.0723876953125,0.9229736328125,0.3720703125,0.7934569716453552,-0.2441406100988388,0.2441406100988388
2633530,0.073974609375,0.923583984375,0.3729248046875,0.7324218153953552,-0.30517578125,0.1831054538488388
2633558,0.073974609375,0.9239501953125,0.37255859375,0.7324218153953552,-0.2441406100988388,0.1831054538488388
2633575,0.0738525390625,0.9234619140625,0.3719482421875,0.7324218153953552,-0.2441406100988388,0.1831054538488388
2633592,0.073486328125,0.923828125,0.3731689453125,0.7324218153953552,-0.2441406100988388,0.2441406100988388
2633642,0.0731201171875,0.9219970703125,0.371826171875,0.7324218153953552,-0.30517578125,0.2441406100988388
2633674,0.0726318359375,0.9239501953125,0.373046875,0.6713866591453552,-0.2441406100988388,0.30517578125
2633691,0.07275390625,0.9234619140625,0.3729248046875,0.7324218153953552,-0.1831054538488388,0.2441406100988388
2633728,0.0740966796875,0.9249267578125,0.3726806640625,0.6713866591453552,-0.2441406100988388,0.2441406100988388
2633744,0.0736083984375,0.924560546875,0.3721923828125,0.6713866591453552,-0.2441406100988388,0.2441406100988388
2633761,0.0718994140625,0.9244384765625,0.37255859375,0.7324218153953552,-0.3662109076976776,0.2441406100988388
2633777,0.0728759765625,0.924072265625,0.373291015625,0.6713866591453552,-0.30517578125,0.2441406100988388
2633794,0.0743408203125,0.9227294921875,0.373291015625,0.6713866591453552,-0.2441406100988388,0.2441406100988388
2633815,0.0745849609375,0.9244384765625,0.372802734375,0.7324218153953552,-0.2441406100988388,0.2441406100988388
2633831,0.0721435546875,0.9224853515625,0.372802734375,0.7324218153953552,-0.2441406100988388,0.2441406100988388
2633848,0.0723876953125,0.924560546875,0.3721923828125,0.6713866591453552,-0.30517578125,0.30517578125
2633865,0.0732421875,0.923095703125,0.3712158203125,0.7324218153953552,-0.3662109076976776,0.2441406100988388
2633898,0.0736083984375,0.925537109375,0.3729248046875,0.7324218153953552,-0.2441406100988388,0.2441406100988388
2633915,0.0723876953125,0.923828125,0.3726806640625,0.7324218153953552,-0.1831054538488388,0.2441406100988388
2633931,0.0728759765625,0.9239501953125,0.3714599609375,0.7324218153953552,-0.2441406100988388,0.2441406100988388
2633960,0.07373046875,0.9239501953125,0.37255859375,0.7324218153953552,-0.3662109076976776,0.1831054538488388
2633982,0.0736083984375,0.926025390625,0.3739013671875,0.7934569716453552,-0.3662109076976776,0.1831054538488388
2633998,0.072265625,0.92138671875,0.3701171875,0.7324218153953552,-0.2441406100988388,0.2441406100988388
2634015,0.072998046875,0.9246826171875,0.3719482421875,0.7324218153953552,-0.1831054538488388,0.2441406100988388
2634032,0.07421875,0.923583984375,0.37255859375,0.7934569716453552,-0.2441406100988388,0.2441406100988388
2634048,0.0732421875,0.9241943359375,0.3717041015625,0.7934569716453552,-0.2441406100988388,0.1831054538488388
2634079,0.0736083984375,0.9227294921875,0.3721923828125,0.7324218153953552,-0.2441406100988388,0.2441406100988388
2634096,0.0733642578125,0.9234619140625,0.3721923828125,0.7324218153953552,-0.2441406100988388,0.2441406100988388
2634112,0.0732421875,0.92578125,0.3724365234375,0.7934569716453552,-0.1831054538488388,0.2441406100988388
2634144,0.073486328125,0.9261474609375,0.371826171875,0.7934569716453552,-0.2441406100988388,0.1831054538488388
2634160,0.0728759765625,0.9224853515625,0.371337890625,0.7934569716453552,-0.2441406100988388,0.2441406100988388
2634176,0.0728759765625,0.9229736328125,0.3724365234375,0.7934569716453552,-0.2441406100988388,0.2441406100988388
2634192,0.0740966796875,0.923828125,0.3721923828125,0.7934569716453552,-0.30517578125,0.2441406100988388
2634267,0.073974609375,0.9244384765625,0.3736572265625,0.8544921278953552,-0.30517578125,0.1831054538488388
2634288,0.072998046875,0.923583984375,0.3724365234375,0.9155272841453552,-0.30517578125,0.1831054538488388
2634308,0.0731201171875,0.9263916015625,0.373779296875,0.7324218153953552,-0.2441406100988388,0.1831054538488388
2634328,0.0728759765625,0.923095703125,0.373046875,0.7324218153953552,-0.2441406100988388,0.2441406100988388
2634345,0.0728759765625,0.9244384765625,0.3721923828125,0.7934569716453552,-0.2441406100988388,0.1831054538488388
2634365,0.072998046875,0.92578125,0.37255859375,0.7934569716453552,-0.30517578125,0.2441406100988388
2634382,0.074462890625,0.9234619140625,0.3719482421875,0.7324218153953552,-0.30517578125,0.30517578125
2634398,0.0743408203125,0.923828125,0.3726806640625,0.7324218153953552,-0.2441406100988388,0.30517578125
2634414,0.07421875,0.923828125,0.3721923828125,0.7324218153953552,-0.2441406100988388,0.2441406100988388
2634450,0.07373046875,0.9251708984375,0.37353515625,0.7324218153953552,-0.2441406100988388,0.2441406100988388
2634496,0.073974609375,0.9244384765625,0.37158203125,0.6713866591453552,-0.30517578125,0.2441406100988388
2634518,0.0736083984375,0.9237060546875,0.372314453125,0.6713866591453552,-0.1831054538488388,0.1831054538488388
2634535,0.0731201171875,0.9239501953125,0.3734130859375,0.7324218153953552,-0.2441406100988388,0.1831054538488388
2634552,0.0731201171875,0.9248046875,0.371826171875,0.7324218153953552,-0.30517578125,0.2441406100988388
2634569,0.0738525390625,0.924072265625,0.371826171875,0.7324218153953552,-0.2441406100988388,0.2441406100988388
2634585,0.073486328125,0.9249267578125,0.3740234375,0.6713866591453552,-0.1831054538488388,0.2441406100988388
2634618,0.07421875,0.925048828125,0.373046875,0.7324218153953552,-0.2441406100988388,0.2441406100988388
2634635,0.073486328125,0.925048828125,0.3731689453125,0.7324218153953552,-0.2441406100988388,0.30517578125
2634656,0.0731201171875,0.923828125,0.372314453125,0.7324218153953552,-0.2441406100988388,0.3662109076976776
2634672,0.0736083984375,0.9237060546875,0.3726806640625,0.7324218153953552,-0.1831054538488388,0.30517578125
2634689,0.0728759765625,0.9237060546875,0.37255859375,0.7324218153953552,-0.2441406100988388,0.2441406100988388
2634706,0.07373046875,0.92431640625,0.3724365234375,0.7324218153953552,-0.2441406100988388,0.2441406100988388
2634739,0.0736083984375,0.9249267578125,0.3726806640625,0.7934569716453552,-0.2441406100988388,0.2441406100988388
2634755,0.0728759765625,0.92431640625,0.3720703125,0.7934569716453552,-0.30517578125,0.2441406100988388
2634771,0.0736083984375,0.9244384765625,0.3721923828125,0.7934569716453552,-0.30517578125,0.2441406100988388
2634801,0.0733642578125,0.9237060546875,0.3720703125,0.7324218153953552,-0.30517578125,0.2441406100988388
2634822,0.0740966796875,0.923095703125,0.3720703125,0.7324218153953552,-0.2441406100988388,0.30517578125
2634839,0.0740966796875,0.9228515625,0.3726806640625,0.7934569716453552,-0.2441406100988388,0.30517578125
2634856,0.0726318359375,0.925048828125,0.3726806640625,0.7934569716453552,-0.2441406100988388,0.30517578125
2634872,0.072021484375,0.923828125,0.3720703125,0.7934569716453552,-0.30517578125,0.1831054538488388
2634889,0.0732421875,0.9241943359375,0.3719482421875,0.7934569716453552,-0.30517578125,0.2441406100988388
2634920,0.07421875,0.9249267578125,0.3720703125,0.7934569716453552,-0.2441406100988388,0.2441406100988388
2634942,0.0733642578125,0.9246826171875,0.3734130859375,0.7324218153953552,-0.2441406100988388,0.30517578125
2634958,0.0723876953125,0.92431640625,0.3724365234375,0.7934569716453552,-0.2441406100988388,0.2441406100988388
2634975,0.0733642578125,0.92431640625,0.371826171875,0.7934569716453552,-0.30517578125,0.2441406100988388
2634992,0.0728759765625,0.92431640625,0.3720703125,0.7934569716453552,-0.2441406100988388,0.2441406100988388
2635008,0.0728759765625,0.9248046875,0.37255859375,0.7934569716453552,-0.30517578125,0.2441406100988388
2635041,0.072509765625,0.923095703125,0.3729248046875,0.7324218153953552,-0.2441406100988388,0.2441406100988388
2635063,0.0728759765625,0.9224853515625,0.3719482421875,0.7324218153953552,-0.30517578125,0.30517578125
2635079,0.0732421875,0.92333984375,0.3721923828125,0.7324218153953552,-0.30517578125,0.2441406100988388
2635096,0.0731201171875,0.924560546875,0.372802734375,0.7324218153953552,-0.30517578125,0.1831054538488388
2635113,0.0721435546875,0.92431640625,0.3736572265625,0.7324218153953552,-0.2441406100988388,0.2441406100988388
2635129,0.0723876953125,0.925048828125,0.373046875,0.7324218153953552,-0.2441406100988388,0.1831054538488388
2635163,0.0736083984375,0.924560546875,0.37255859375,0.7934569716453552,-0.2441406100988388,0.2441406100988388
2635211,0.0740966796875,0.924560546875,0.3721923828125,0.7324218153953552,-0.2441406100988388,0.1831054538488388
2635233,0.0726318359375,0.9244384765625,0.3726806640625,0.6713866591453552,-0.2441406100988388,0.1831054538488388
2635250,0.072509765625,0.924072265625,0.3720703125,0.7324218153953552,-0.2441406100988388,0.30517578125
2635283,0.07373046875,0.923828125,0.372314453125,0.6713866591453552,-0.2441406100988388,0.1831054538488388
2635300,0.0731201171875,0.924072265625,0.3734130859375,0.7324218153953552,-0.1831054538488388,0.2441406100988388
2635317,0.0723876953125,0.923583984375,0.3720703125,0.7324218153953552,-0.1831054538488388,0.2441406100988388
2635333,0.0732421875,0.925048828125,0.372802734375,0.7934569716453552,-0.2441406100988388,0.2441406100988388
2635351,0.0731201171875,0.9246826171875,0.373291015625,0.7934569716453552,-0.2441406100988388,0.1831054538488388
2635372,0.0738525390625,0.9248046875,0.373046875,0.7324218153953552,-0.1831054538488388,0.2441406100988388
2635388,0.073486328125,0.9246826171875,0.37255859375,0.7324218153953552,-0.3662109076976776,0.30517578125
2635409,0.07421875,0.9239501953125,0.373291015625,0.7324218153953552,-0.2441406100988388,0.2441406100988388
2635426,0.0733642578125,0.9237060546875,0.3739013671875,0.7934569716453552,-0.2441406100988388,0.2441406100988388
2635442,0.0732421875,0.9254150390625,0.371826171875,0.7934569716453552,-0.30517578125,0.30517578125
2635459,0.0736083984375,0.9251708984375,0.37255859375,0.7324218153953552,-0.2441406100988388,0.2441406100988388
2635475,0.0743408203125,0.9251708984375,0.373046875,0.7324218153953552,-0.2441406100988388,0.2441406100988388
2635521,0.0732421875,0.9249267578125,0.3724365234375,0.6713866591453552,-0.1831054538488388,0.1831054538488388
2635542,0.0740966796875,0.923583984375,0.372314453125,0.7324218153953552,-0.2441406100988388,0.2441406100988388
2635559,0.073486328125,0.9224853515625,0.372314453125,0.7324218153953552,-0.30517578125,0.30517578125
2635576,0.0732421875,0.9227294921875,0.3720703125,0.7324218153953552,-0.30517578125,0.2441406100988388
2635640,0.0738525390625,0.9241943359375,0.371337890625,0.7934569716453552,-0.1831054538488388,0.2441406100988388
2635662,0.0726318359375,0.9239501953125,0.372314453125,0.7324218153953552,-0.2441406100988388,0.2441406100988388
2635678,0.0743408203125,0.9254150390625,0.372314453125,0.6713866591453552,-0.2441406100988388,0.2441406100988388
2635695,0.0733642578125,0.9246826171875,0.3724365234375,0.7324218153953552,-0.30517578125,0.2441406100988388
2635712,0.0726318359375,0.9244384765625,0.3720703125,0.7934569716453552,-0.1831054538488388,0.2441406100988388
2635732,0.0732421875,0.9244384765625,0.372314453125,0.7324218153953552,-0.1831054538488388,0.2441406100988388
2635753,0.073974609375,0.923583984375,0.3726806640625,0.7324218153953552,-0.2441406100988388,0.1831054538488388
2635818,0.07373046875,0.9254150390625,0.372802734375,0.7934569716453552,-0.2441406100988388,0.2441406100988388
2635835,0.0726318359375,0.9251708984375,0.3739013671875,0.7324218153953552,-0.30517578125,0.2441406100988388
2635856,0.0728759765625,0.92431640625,0.3729248046875,0.7324218153953552,-0.30517578125,0.2441406100988388
2635872,0.0733642578125,0.923583984375,0.3719482421875,0.7324218153953552,-0.2441406100988388,0.1831054538488388
2635893,0.0738525390625,0.9241943359375,0.372802734375,0.7934569716453552,-0.2441406100988388,0.2441406100988388
2635910,0.0728759765625,0.9239501953125,0.3731689453125,0.8544921278953552,-0.2441406100988388,0.30517578125
2635943,0.0731201171875,0.9246826171875,0.37255859375,0.7324218153953552,-0.2441406100988388,0.2441406100988388
2635959,0.0736083984375,0.9249267578125,0.372802734375,0.7934569716453552,-0.30517578125,0.2441406100988388
2635976,0.075439453125,0.9237060546875,0.3724365234375,0.7324218153953552,-0.2441406100988388,0.1831054538488388
2635992,0.07470703125,0.9241943359375,0.372802734375,0.7324218153953552,-0.2441406100988388,0.2441406100988388
2636012,0.072998046875,0.92431640625,0.373046875,0.7324218153953552,-0.2441406100988388,0.2441406100988388
2636028,0.0718994140625,0.924072265625,0.371826171875,0.7934569716453552,-0.30517578125,0.2441406100988388
2636044,0.0748291015625,0.9234619140625,0.3707275390625,0.7934569716453552,-0.30517578125,0.2441406100988388
2636060,0.0751953125,0.9217529296875,0.3709716796875,0.7934569716453552,-0.30517578125,0.2441406100988388
2636081,0.072998046875,0.9246826171875,0.3726806640625,0.7934569716453552,-0.2441406100988388,0.2441406100988388
2636097,0.072509765625,0.9283447265625,0.373046875,0.7324218153953552,-0.30517578125,0.2441406100988388
2636114,0.0733642578125,0.9248046875,0.37255859375,0.7324218153953552,-0.30517578125,0.30517578125
2636131,0.0743408203125,0.92431640625,0.37158203125,0.7324218153953552,-0.2441406100988388,0.30517578125
2636147,0.0712890625,0.924560546875,0.3724365234375,0.7324218153953552,-0.30517578125,0.30517578125
2636180,0.0732421875,0.927001953125,0.3740234375,0.7324218153953552,-0.30517578125,0.30517578125
2636245,0.07421875,0.924560546875,0.3720703125,0.6713866591453552,-0.2441406100988388,0.2441406100988388
2636261,0.073486328125,0.9271240234375,0.3729248046875,0.6713866591453552,-0.1831054538488388,0.2441406100988388
2636277,0.0718994140625,0.926513671875,0.3729248046875,0.6713866591453552,-0.2441406100988388,0.2441406100988388
2636309,0.0738525390625,0.9244384765625,0.373291015625,0.7324218153953552,-0.2441406100988388,0.2441406100988388
2636371,0.0716552734375,0.9207763671875,0.3699951171875,0.6713866591453552,-0.30517578125,0.30517578125
2636388,0.0733642578125,0.923828125,0.3720703125,0.6713866591453552,-0.30517578125,0.30517578125
2636421,0.0743408203125,0.923828125,0.37255859375,0.6713866591453552,-0.30517578125,0.2441406100988388
2636438,0.07177734375,0.9224853515625,0.3726806640625,0.7324218153953552,-0.2441406100988388,0.1831054538488388
2636455,0.07177734375,0.9251708984375,0.3736572265625,0.7324218153953552,-0.2441406100988388,0.2441406100988388
2636471,0.0732421875,0.923095703125,0.3704833984375,0.7324218153953552,-0.1831054538488388,0.2441406100988388
2636496,0.072998046875,0.9222412109375,0.3701171875,0.7324218153953552,-0.2441406100988388,0.2441406100988388
2636512,0.073486328125,0.92578125,0.374755859375,0.6713866591453552,-0.2441406100988388,0.2441406100988388
2636529,0.0728759765625,0.92333984375,0.3720703125,0.6713866591453552,-0.2441406100988388,0.2441406100988388
2636546,0.0726318359375,0.92578125,0.37158203125,0.7324218153953552,-0.2441406100988388,0.2441406100988388
2636596,0.072998046875,0.9251708984375,0.3724365234375,0.6713866591453552,-0.2441406100988388,0.2441406100988388
2636672,0.0736083984375,0.9232177734375,0.3724365234375,0.7934569716453552,-0.30517578125,0.2441406100988388
2636689,0.0738525390625,0.925537109375,0.3720703125,0.7934569716453552,-0.30517578125,0.2441406100988388
2636722,0.071533203125,0.915283203125,0.3680419921875,0.7934569716453552,-0.2441406100988388,0.2441406100988388
2636739,0.07470703125,0.932373046875,0.375732421875,0.6713866591453552,-0.2441406100988388,0.1831054538488388
2636756,0.0762939453125,0.9501953125,0.3824462890625,0.7324218153953552,-0.30517578125,0.2441406100988388
2636772,0.072021484375,0.9173583984375,0.369384765625,0.7934569716453552,-0.2441406100988388,0.1831054538488388
2636797,0.07177734375,0.921630859375,0.369873046875,0.7934569716453552,-0.1831054538488388,0.1831054538488388
2636813,0.07568359375,0.9212646484375,0.3701171875,0.8544921278953552,-0.2441406100988388,0.2441406100988388
2636830,0.0721435546875,0.9219970703125,0.3712158203125,0.8544921278953552,-0.2441406100988388,0.1831054538488388
2636847,0.0718994140625,0.92431640625,0.373046875,0.7934569716453552,-0.30517578125,0.1220703050494194
2636863,0.07421875,0.921630859375,0.3720703125,0.7324218153953552,-0.2441406100988388,0.1831054538488388
2636896,0.0740966796875,0.9327392578125,0.37646484375,0.7934569716453552,-0.2441406100988388,0.2441406100988388
2636913,0.072265625,0.92333984375,0.3724365234375,0.7934569716453552,-0.2441406100988388,0.2441406100988388
2636929,0.0728759765625,0.922119140625,0.371337890625,0.7324218153953552,-0.1831054538488388,0.1831054538488388
2636961,0.073486328125,0.9239501953125,0.3724365234375,0.7934569716453552,-0.2441406100988388,0.2441406100988388
2637025,0.0745849609375,0.9224853515625,0.372802734375,0.7324218153953552,-0.30517578125,0.1831054538488388
2637097,0.074462890625,0.9234619140625,0.37255859375,0.6713866591453552,-0.2441406100988388,0.2441406100988388
2637114,0.0740966796875,0.9251708984375,0.3739013671875,0.6713866591453552,-0.2441406100988388,0.2441406100988388
2637130,0.0716552734375,0.9217529296875,0.372314453125,0.7934569716453552,-0.30517578125,0.30517578125
2637150,0.074462890625,0.9212646484375,0.371337890625,0.7324218153953552,-0.30517578125,0.2441406100988388
2637167,0.0755615234375,0.918212890625,0.369140625,0.7324218153953552,-0.2441406100988388,0.30517578125
2637183,0.076904296875,0.9346923828125,0.3748779296875,0.7324218153953552,-0.30517578125,0.4882812201976776
2637199,0.071044921875,0.9423828125,0.3800048828125,0.7324218153953552,-0.2441406100988388,0.2441406100988388
2637216,0.06689453125,0.9163818359375,0.371337890625,0.7934569716453552,-0.2441406100988388,0.1831054538488388
2637241,0.073974609375,0.91064453125,0.3660888671875,0.7324218153953552,-0.2441406100988388,0.3662109076976776
2637294,0.0699462890625,0.9271240234375,0.3731689453125,0.6713866591453552,-0.2441406100988388,0.1831054538488388
2637331,0.0738525390625,0.9259033203125,0.374755859375,0.7324218153953552,-0.2441406100988388,0.2441406100988388
2637351,0.0699462890625,0.9248046875,0.37451171875,0.7324218153953552,-0.2441406100988388,0.30517578125
2637372,0.0714111328125,0.9212646484375,0.3719482421875,0.7324218153953552,-0.2441406100988388,0.2441406100988388
2637438,0.0714111328125,0.92578125,0.3743896484375,0.7324218153953552,-0.30517578125,0.1831054538488388
2637455,0.0733642578125,0.9227294921875,0.370361328125,0.7324218153953552,-0.2441406100988388,0.1220703050494194
2637476,0.073486328125,0.9234619140625,0.3702392578125,0.7324218153953552,-0.30517578125,0.1831054538488388
2637492,0.072021484375,0.9241943359375,0.3734130859375,0.7324218153953552,-0.30517578125,0.1831054538488388
2637509,0.0721435546875,0.923583984375,0.373291015625,0.6713866591453552,-0.2441406100988388,0.1831054538488388
2637526,0.0736083984375,0.9237060546875,0.3729248046875,0.6103515625,-0.1831054538488388,0.2441406100988388
2637559,0.07421875,0.924072265625,0.3717041015625,0.7934569716453552,-0.2441406100988388,0.2441406100988388
2637575,0.07275390625,0.9248046875,0.37255859375,0.7934569716453552,-0.1831054538488388,0.30517578125
2637591,0.0732421875,0.9239501953125,0.3740234375,0.7324218153953552,-0.1831054538488388,0.2441406100988388
2637623,0.07568359375,0.9237060546875,0.3721923828125,0.7324218153953552,-0.2441406100988388,0.1831054538488388
2637640,0.0745849609375,0.9261474609375,0.373779296875,0.7324218153953552,-0.2441406100988388,0.1831054538488388
2637661,0.07177734375,0.9222412109375,0.3734130859375,0.7324218153953552,-0.2441406100988388,0.1831054538488388
2637677,0.0732421875,0.91650390625,0.369873046875,0.6713866591453552,-0.2441406100988388,0.1831054538488388
2637694,0.076416015625,0.9351806640625,0.377197265625,0.7324218153953552,-0.2441406100988388,0.2441406100988388
2637711,0.07568359375,0.9334716796875,0.3756103515625,0.7934569716453552,-0.2441406100988388,0.2441406100988388
2637744,0.073486328125,0.9273681640625,0.373779296875,0.7324218153953552,-0.2441406100988388,0.2441406100988388
2637761,0.073974609375,0.9189453125,0.368896484375,0.7934569716453552,-0.2441406100988388,0.2441406100988388
2637777,0.07275390625,0.9215087890625,0.36962890625,0.7934569716453552,-0.2441406100988388,0.2441406100988388
2637793,0.072998046875,0.9287109375,0.373291015625,0.7934569716453552,-0.2441406100988388,0.30517578125
2637812,0.0731201171875,0.923828125,0.3719482421875,0.8544921278953552,-0.2441406100988388,0.2441406100988388
2637833,0.072998046875,0.9224853515625,0.37158203125,0.8544921278953552,-0.2441406100988388,0.1831054538488388
2637849,0.0748291015625,0.927001953125,0.3741455078125,0.8544921278953552,-0.2441406100988388,0.30517578125
2637866,0.0740966796875,0.9217529296875,0.3729248046875,0.7934569716453552,-0.2441406100988388,0.2441406100988388
2637883,0.0721435546875,0.925537109375,0.37353515625,0.7934569716453552,-0.2441406100988388,0.2441406100988388
2637916,0.0743408203125,0.9208984375,0.3701171875,0.7934569716453552,-0.2441406100988388,0.30517578125
2637934,0.0736083984375,0.927978515625,0.375732421875,0.7324218153953552,-0.30517578125,0.30517578125
2637950,0.0723876953125,0.928466796875,0.3753662109375,0.7324218153953552,-0.30517578125,0.2441406100988388
2637982,0.07470703125,0.9244384765625,0.3734130859375,0.7324218153953552,-0.2441406100988388,0.30517578125
2637998,0.0743408203125,0.927001953125,0.37451171875,0.7324218153953552,-0.2441406100988388,0.30517578125
2638014,0.0721435546875,0.9256591796875,0.372314453125,0.7934569716453552,-0.2441406100988388,0.2441406100988388
2638050,0.07470703125,0.9241943359375,0.37353515625,0.7324218153953552,-0.2441406100988388,0.30517578125
2638072,0.0748291015625,0.9212646484375,0.3714599609375,0.7934569716453552,-0.2441406100988388,0.30517578125
2638088,0.070556640625,0.92578125,0.3734130859375,0.7934569716453552,-0.2441406100988388,0.2441406100988388
2638109,0.07275390625,0.9212646484375,0.3704833984375,0.7324218153953552,-0.2441406100988388,0.2441406100988388
2638126,0.0751953125,0.925537109375,0.372314453125,0.7324218153953552,-0.2441406100988388,0.2441406100988388
2638158,0.0699462890625,0.9217529296875,0.371826171875,0.7934569716453552,-0.30517578125,0.30517578125
2638175,0.072998046875,0.9256591796875,0.373291015625,0.6103515625,-0.2441406100988388,0.2441406100988388
2638191,0.076171875,0.9228515625,0.3721923828125,0.6713866591453552,-0.2441406100988388,0.2441406100988388
2638223,0.07080078125,0.9259033203125,0.3751220703125,0.6713866591453552,-0.30517578125,0.3662109076976776
2638239,0.0699462890625,0.925048828125,0.373291015625,0.7934569716453552,-0.4272460639476776,0.3662109076976776
2638255,0.07177734375,0.929931640625,0.3594970703125,1.4038084745407104,-0.3662109076976776,0.3662109076976776
2638271,0.073974609375,0.9222412109375,0.3653564453125,1.7089842557907104,-0.3662109076976776,0.30517578125
2638296,0.07861328125,0.9285888671875,0.3653564453125,2.197265625,-0.30517578125,0.1831054538488388
2638312,0.0760498046875,0.9232177734375,0.37158203125,2.44140625,-0.3662109076976776,0.2441406100988388
2638329,0.06689453125,0.92626953125,0.3740234375,2.746581792831421,-0.30517578125,0.1831054538488388
2638350,0.075927734375,0.9239501953125,0.3712158203125,2.868652105331421,-0.30517578125,0.1220703050494194
2638366,0.078369140625,0.921630859375,0.3748779296875,2.990722417831421,-0.3662109076976776,0.1831054538488388
2638399,0.06591796875,0.925048828125,0.3668212890625,4.150390625,-0.4882812201976776,0.0610351525247097
2638421,0.072021484375,0.9290771484375,0.3653564453125,4.94384765625,-0.4882812201976776,-0.0610351525247097
2638437,0.0762939453125,0.927490234375,0.3712158203125,5.371093273162842,-0.4882812201976776,-0.1220703050494194
2638454,0.073974609375,0.923095703125,0.3905029296875,6.042479991912842,-0.3662109076976776,-0.0610351525247097
2638471,0.072265625,0.9197998046875,0.3907470703125,6.103515148162842,-0.7324218153953552,-0.1220703050494194
2638487,0.0723876953125,0.9248046875,0.37890625,6.164550304412842,-0.7324218153953552,0.0610351525247097
2638518,0.07470703125,0.911376953125,0.388427734375,5.371093273162842,-0.3662109076976776,0.30517578125
2638540,0.078125,0.9085693359375,0.412841796875,3.845214605331421,-0.6103515625,0.1220703050494194
2638556,0.06787109375,0.90771484375,0.3994140625,3.173827886581421,-0.54931640625,0.30517578125
2638573,0.0677490234375,0.907958984375,0.4044189453125,2.01416015625,-0.4882812201976776,0.2441406100988388
2638590,0.0733642578125,0.915283203125,0.3994140625,1.2817381620407104,-0.2441406100988388,0.2441406100988388
2638607,0.0753173828125,0.9146728515625,0.3914794921875,0.7934569716453552,-0.3662109076976776,0.2441406100988388
2638639,0.0711669921875,0.921875,0.3851318359375,0.7934569716453552,-0.2441406100988388,0.1831054538488388
2638661,0.074951171875,0.9150390625,0.3902587890625,0.6713866591453552,-0.0610351525247097,0.1220703050494194
2638677,0.072998046875,0.91455078125,0.39794921875,0.4272460639476776,-0.1220703050494194,0.1831054538488388
2638694,0.0712890625,0.9117431640625,0.4044189453125,-0.30517578125,-0.1220703050494194,0.30517578125
2638711,0.0701904296875,0.9132080078125,0.39453125,-1.03759765625,-0.1831054538488388,0.2441406100988388
2638727,0.0767822265625,0.918701171875,0.390380859375,-1.2817381620407104,-0.1220703050494194,0.2441406100988388
2638761,0.0721435546875,0.9111328125,0.394775390625,-2.25830078125,-0.0610351525247097,0.3662109076976776
2638777,0.0703125,0.9140625,0.3975830078125,-3.173827886581421,-0.0610351525247097,0.3662109076976776
2638793,0.0751953125,0.916259765625,0.3914794921875,-3.540038824081421,-0.0610351525247097,0.3662109076976776
2638825,0.0733642578125,0.92236328125,0.378662109375,-4.150390625,0.0610351525247097,0.54931640625
2638841,0.071533203125,0.92236328125,0.3790283203125,-4.08935546875,0.0610351525247097,0.54931640625
2638857,0.0738525390625,0.918701171875,0.3809814453125,-4.0283203125,0.0,0.54931640625
2638873,0.075439453125,0.9197998046875,0.3802490234375,-4.0283203125,0.0,0.6103515625
2638893,0.0750732421875,0.9188232421875,0.3775634765625,-3.906249761581421,-0.1831054538488388,0.54931640625
2638909,0.072509765625,0.923583984375,0.3665771484375,-3.540038824081421,-0.2441406100988388,0.54931640625
2638925,0.08203125,0.929443359375,0.356689453125,-2.624511480331421,-0.1220703050494194,0.54931640625
2638942,0.0865478515625,0.925537109375,0.3570556640625,-2.197265625,0.0,0.3662109076976776
2638963,0.0687255859375,0.9091796875,0.34619140625,-1.7700194120407104,0.9155272841453552,-1.15966796875
2638979,0.04443359375,0.87255859375,0.422607421875,-2.01416015625,2.868652105331421,-2.868652105331421
2638996,0.0535888671875,0.844970703125,0.659423828125,-7.812499523162842,6.042479991912842,-9.1552734375
2639013,0.1378173828125,1.3673095703125,0.8502197265625,-14.038084983825684,5.859374523162842,-17.08984375
2639029,0.2135009765625,2.267333984375,1.0750732421875,-9.521484375,2.13623046875,-11.291502952575684
2639063,0.180908203125,2.0509033203125,0.621337890625,7.324218273162842,-2.624511480331421,3.417968511581421
2639079,0.154541015625,1.442626953125,0.4658203125,8.60595703125,-2.13623046875,-0.6103515625
2639095,0.131591796875,1.289306640625,0.4171142578125,6.774901866912842,-1.15966796875,-2.0751953125
2639111,0.1231689453125,1.261474609375,0.36181640625,4.45556640625,-0.9155272841453552,-4.150390625
2639131,0.119873046875,1.17138671875,0.342529296875,1.220703125,0.54931640625,-5.432128429412842
2639147,0.115234375,1.237548828125,0.3221435546875,-0.1831054538488388,1.0986328125,-8.4228515625
2639179,0.1473388671875,1.3592529296875,0.4442138671875,-0.6713866591453552,0.7324218153953552,-7.507323741912842
2639195,0.136962890625,1.2069091796875,0.4774169921875,-0.6103515625,1.03759765625,-7.202147960662842
2639211,0.1365966796875,1.155029296875,0.4805908203125,-2.3193359375,0.7324218153953552,-8.544921875
2639243,0.1617431640625,1.1748046875,0.495361328125,-4.7607421875,0.7934569716453552,-8.85009765625
2639259,0.1585693359375,1.1162109375,0.465087890625,-5.859374523162842,0.7324218153953552,-8.056640625
2639291,0.1624755859375,1.0867919921875,0.4686279296875,-5.432128429412842,0.6103515625,-7.812499523162842
2639311,0.1717529296875,1.0992431640625,0.5013427734375,-3.479003667831421,-0.30517578125,-6.225585460662842
2639333,0.16064453125,1.010986328125,0.4676513671875,-1.4038084745407104,-1.220703125,-4.08935546875
2639349,0.14111328125,0.8984375,0.4158935546875,-0.0610351525247097,-1.5869139432907104,-3.906249761581421
2639366,0.1396484375,0.90380859375,0.406982421875,2.50244140625,-1.8920897245407104,-3.295898199081421
2639416,0.0921630859375,0.638916015625,0.2926025390625,9.46044921875,-3.540038824081421,0.30517578125
2639432,0.0887451171875,0.6148681640625,0.279296875,12.084959983825684,-3.784179449081421,1.220703125
2639449,0.0736083984375,0.516357421875,0.24462890625,14.221190452575684,-4.5166015625,2.624511480331421
2639487,0.047119140625,0.34765625,0.173828125,16.17431640625,-5.065917491912842,3.601073980331421
2639503,0.03125,0.264404296875,0.128173828125,16.9677734375,-5.065917491912842,3.967284917831421
2639520,0.0235595703125,0.2066650390625,0.1181640625,17.2119140625,-5.187987804412842,4.0283203125
2639537,0.0206298828125,0.2015380859375,0.1005859375,17.7001953125,-5.371093273162842,4.0283203125
2639553,0.0184326171875,0.1783447265625,0.107421875,17.9443359375,-5.554198741912842,4.21142578125
2639570,0.013671875,0.18505859375,0.0897216796875,18.61572265625,-5.554198741912842,3.906249761581421
2639603,0.0184326171875,0.290771484375,0.0989990234375,21.118162155151367,-5.676269054412842,3.112792730331421
2639619,0.011474609375,0.3916015625,0.128173828125,23.559568405151367,-5.798339366912842,1.8310545682907104
2639635,0.0067138671875,0.48095703125,0.1396484375,24.841306686401367,-5.615233898162842,0.6103515625
2639651,0.014404296875,0.8404541015625,0.230712890625,27.648923873901367,-5.554198741912842,0.1831054538488388
2639671,0.013427734375,1.0255126953125,0.295166015625,30.761716842651367,-5.859374523162842,1.4038084745407104
2639692,0.0289306640625,1.193603515625,0.3536376953125,34.48486328125,-5.859374523162842,1.8310545682907104
2639717,0.032958984375,1.177734375,0.3570556640625,38.39111328125,-6.286620616912842,2.990722417831421
2639733,0.024169921875,1.0693359375,0.3348388671875,40.283199310302734,-6.347655773162842,3.540038824081421
2639750,0.0146484375,0.916748046875,0.2786865234375,40.344234466552734,-5.981444835662842,3.540038824081421
2639783,0.0155029296875,0.6763916015625,0.2845458984375,34.72900390625,-3.845214605331421,1.8920897245407104
2639799,0.0240478515625,0.5908203125,0.30859375,31.127927780151367,-2.807616949081421,0.4272460639476776
2639816,0.028564453125,0.58642578125,0.3255615234375,29.113767623901367,-2.01416015625,0.1831054538488388
2639864,0.0513916015625,0.4747314453125,0.789794921875,9.94873046875,-1.03759765625,-2.25830078125
2639916,0.1031494140625,0.704345703125,0.7310791015625,10.314940452575684,-2.44140625,-3.723144292831421
2639933,0.121337890625,0.91845703125,0.6165771484375,13.488768577575684,-2.13623046875,-3.051757574081421
2639950,0.1390380859375,0.921142578125,0.6466064453125,11.474608421325684,-2.13623046875,-2.990722417831421
2639970,0.14306640625,0.9232177734375,0.6226806640625,10.620116233825684,-1.4038084745407104,-2.563476324081421
2639986,0.1380615234375,0.9044189453125,0.629638671875,7.568358898162842,-1.4648436307907104,-2.563476324081421
2640003,0.1395263671875,0.9912109375,0.56884765625,6.408690929412842,-1.15966796875,-1.9531248807907104
2640019,0.1448974609375,0.9793701171875,0.51611328125,6.774901866912842,-1.15966796875,-1.4038084745407104
2640036,0.1453857421875,0.95068359375,0.5155029296875,6.225585460662842,-0.8544921278953552,-1.0986328125
2640057,0.1402587890625,0.905029296875,0.51220703125,6.835937023162842,-0.54931640625,-0.54931640625
2640073,0.1346435546875,0.8526611328125,0.5281982421875,6.652831554412842,-0.4272460639476776,-0.30517578125
2640140,0.1031494140625,0.7650146484375,0.6143798828125,3.295898199081421,-0.30517578125,0.0
2640156,0.101806640625,0.7750244140625,0.625,2.624511480331421,-0.4272460639476776,0.0610351525247097
2640172,0.0953369140625,0.7935791015625,0.6197509765625,1.7700194120407104,-0.6713866591453552,0.1220703050494194
2640205,0.0902099609375,0.821044921875,0.5985107421875,0.2441406100988388,-0.7934569716453552,0.1220703050494194
2640221,0.086669921875,0.8477783203125,0.58154296875,-0.30517578125,-0.7934569716453552,0.0610351525247097
2640237,0.085693359375,0.857177734375,0.5770263671875,-0.6103515625,-0.7324218153953552,0.0610351525247097
2640253,0.08544921875,0.875244140625,0.5654296875,-0.8544921278953552,-0.6713866591453552,0.1220703050494194
2640307,0.0865478515625,0.8341064453125,0.557373046875,-1.5258787870407104,-0.4882812201976776,0.1220703050494194
2640333,0.0887451171875,0.8131103515625,0.56640625,-1.6479490995407104,-0.54931640625,0.0610351525247097
2640350,0.0928955078125,0.7930908203125,0.56982421875,-1.7089842557907104,-0.6713866591453552,-0.1831054538488388
2640383,0.0972900390625,0.785400390625,0.5689697265625,-1.9531248807907104,-0.8544921278953552,-0.6103515625
2640400,0.1004638671875,0.7884521484375,0.5660400390625,-1.8310545682907104,-1.03759765625,-0.7934569716453552
2640416,0.1026611328125,0.7947998046875,0.56201171875,-1.7089842557907104,-1.03759765625,-0.8544921278953552
2640432,0.1044921875,0.804443359375,0.559326171875,-1.4648436307907104,-1.03759765625,-0.9765624403953552
2640457,0.1068115234375,0.82275390625,0.5595703125,-0.7324218153953552,-1.220703125,-1.03759765625
2640473,0.1085205078125,0.8463134765625,0.558837890625,-0.3662109076976776,-1.2817381620407104,-1.0986328125
2640490,0.10888671875,0.8565673828125,0.5594482421875,0.6713866591453552,-1.3427733182907104,-1.03759765625
2640507,0.110107421875,0.870849609375,0.5650634765625,1.7089842557907104,-1.4648436307907104,-0.7934569716453552
2640524,0.1103515625,0.8779296875,0.57763671875,2.624511480331421,-1.6479490995407104,-0.6103515625
2640557,0.1033935546875,0.8634033203125,0.58837890625,4.0283203125,-2.13623046875,-0.30517578125
2640605,0.1007080078125,0.835693359375,0.5938720703125,6.652831554412842,-2.868652105331421,0.0
2640637,0.090087890625,0.796875,0.5699462890625,8.36181640625,-3.173827886581421,-0.0610351525247097
2640654,0.0850830078125,0.8055419921875,0.56494140625,8.9111328125,-3.173827886581421,-0.2441406100988388
2640670,0.083740234375,0.8201904296875,0.5628662109375,10.314940452575684,-3.234863042831421,-0.3662109076976776
2640691,0.0819091796875,0.8162841796875,0.557861328125,12.390135765075684,-3.356933355331421,-0.4272460639476776
2640707,0.08203125,0.8138427734375,0.55517578125,12.939452171325684,-3.356933355331421,-0.54931640625
2640723,0.0867919921875,0.815673828125,0.5557861328125,13.732909202575684,-3.234863042831421,-0.7324218153953552
2640740,0.0892333984375,0.8194580078125,0.5565185546875,13.977049827575684,-3.173827886581421,-0.6713866591453552
2640756,0.0926513671875,0.82080078125,0.5560302734375,14.282225608825684,-3.112792730331421,-0.6713866591453552
2640772,0.0947265625,0.8294677734375,0.5594482421875,14.526366233825684,-2.990722417831421,-0.6713866591453552
2640804,0.09716796875,0.8170166015625,0.5859375,14.343260765075684,-2.868652105331421,-0.54931640625
2640820,0.0963134765625,0.7982177734375,0.59521484375,13.977049827575684,-2.868652105331421,-0.54931640625
2640836,0.096435546875,0.790771484375,0.6014404296875,13.122557640075684,-2.746581792831421,-0.6713866591453552
2640852,0.096435546875,0.79052734375,0.6163330078125,12.145995140075684,-2.685546636581421,-0.7934569716453552
2640872,0.0921630859375,0.7860107421875,0.6259765625,11.169432640075684,-2.868652105331421,-0.6713866591453552
2640888,0.08935546875,0.7852783203125,0.626953125,10.559081077575684,-2.990722417831421,-0.6713866591453552
2640904,0.0853271484375,0.78271484375,0.624267578125,9.46044921875,-3.112792730331421,-0.6103515625
2640920,0.083740234375,0.7794189453125,0.6221923828125,8.9111328125,-3.051757574081421,-0.6713866591453552
2640936,0.0841064453125,0.79931640625,0.6318359375,7.934569835662842,-3.112792730331421,-0.54931640625
2640952,0.0823974609375,0.8028564453125,0.628662109375,6.835937023162842,-3.234863042831421,-0.30517578125
2640984,0.0826416015625,0.815185546875,0.620361328125,5.065917491912842,-3.234863042831421,-0.0610351525247097
2641000,0.0838623046875,0.8192138671875,0.6204833984375,4.5166015625,-3.234863042831421,0.1220703050494194
2641016,0.0836181640625,0.8187255859375,0.617431640625,3.417968511581421,-3.295898199081421,0.4272460639476776
2641032,0.080810546875,0.8126220703125,0.61376953125,2.197265625,-3.295898199081421,0.6103515625
2641057,0.07763671875,0.802001953125,0.60791015625,0.9765624403953552,-3.051757574081421,0.7324218153953552
2641073,0.0770263671875,0.8028564453125,0.6075439453125,0.4882812201976776,-2.929687261581421,0.7934569716453552
2641090,0.0771484375,0.8006591796875,0.60595703125,-0.3662109076976776,-2.868652105331421,0.9765624403953552
2641107,0.077392578125,0.7919921875,0.6044921875,-0.7324218153953552,-2.868652105331421,1.0986328125
2641123,0.0743408203125,0.7911376953125,0.600830078125,-1.4038084745407104,-2.685546636581421,1.15966796875
2641157,0.078369140625,0.795654296875,0.5977783203125,-2.0751953125,-2.25830078125,1.3427733182907104
2641174,0.079345703125,0.7919921875,0.593505859375,-2.3193359375,-2.13623046875,1.3427733182907104
2641195,0.079345703125,0.79443359375,0.5919189453125,-2.38037109375,-2.01416015625,1.3427733182907104
2641211,0.0787353515625,0.798828125,0.5888671875,-2.44140625,-1.7700194120407104,1.3427733182907104
2641228,0.0751953125,0.79541015625,0.590087890625,-2.563476324081421,-1.5258787870407104,1.3427733182907104
2641245,0.07373046875,0.796875,0.5965576171875,-2.624511480331421,-1.4038084745407104,1.3427733182907104
2641278,0.0733642578125,0.79150390625,0.5986328125,-2.44140625,-0.9765624403953552,1.2817381620407104
2641299,0.0711669921875,0.788330078125,0.60009765625,-2.38037109375,-0.7324218153953552,1.15966796875
2641315,0.0679931640625,0.7825927734375,0.5997314453125,-2.38037109375,-0.4882812201976776,0.9155272841453552
2641331,0.06884765625,0.788818359375,0.6021728515625,-2.25830078125,-0.3662109076976776,0.7934569716453552
2641351,0.06982421875,0.79931640625,0.6051025390625,-2.0751953125,-0.1831054538488388,0.7934569716453552
2641373,0.070068359375,0.7891845703125,0.6031494140625,-1.8920897245407104,0.0,0.7934569716453552
2641389,0.0703125,0.7900390625,0.603515625,-1.7089842557907104,0.1831054538488388,0.54931640625
2641406,0.072998046875,0.8006591796875,0.6004638671875,-1.5869139432907104,0.30517578125,0.4882812201976776
2641423,0.075927734375,0.8037109375,0.5965576171875,-1.220703125,0.4882812201976776,0.54931640625
2641456,0.0789794921875,0.796142578125,0.58837890625,-0.7324218153953552,1.03759765625,0.54931640625
2641473,0.0806884765625,0.8037109375,0.58935546875,-0.6713866591453552,1.15966796875,0.4882812201976776
2641489,0.08154296875,0.8084716796875,0.591064453125,-0.6103515625,1.4038084745407104,0.7324218153953552
2641521,0.080078125,0.7861328125,0.579833984375,-1.15966796875,1.6479490995407104,0.6713866591453552
2641542,0.077880859375,0.7921142578125,0.5711669921875,-1.8310545682907104,1.8920897245407104,0.8544921278953552
2641558,0.0810546875,0.7679443359375,0.5618896484375,-2.197265625,2.01416015625,1.03759765625
2641575,0.080078125,0.7249755859375,0.551513671875,-2.929687261581421,2.3193359375,1.220703125
2641592,0.078125,0.7117919921875,0.5484619140625,-3.723144292831421,2.44140625,0.9765624403953552
2641608,0.07177734375,0.705810546875,0.536376953125,-4.0283203125,2.563476324081421,0.8544921278953552
2641638,0.072265625,0.722412109375,0.5228271484375,-4.33349609375,2.807616949081421,0.9155272841453552
2641654,0.071533203125,0.71728515625,0.5050048828125,-4.08935546875,2.685546636581421,1.2817381620407104
2641701,0.0682373046875,0.7001953125,0.4810791015625,-3.662109136581421,2.685546636581421,2.13623046875
2641722,0.0640869140625,0.6507568359375,0.458984375,-3.845214605331421,2.624511480331421,2.38037109375
2641738,0.0655517578125,0.646484375,0.4490966796875,-4.08935546875,2.746581792831421,2.3193359375
2641755,0.0653076171875,0.638671875,0.443603515625,-4.57763671875,2.746581792831421,2.624511480331421
2641772,0.0638427734375,0.6346435546875,0.4393310546875,-5.065917491912842,2.868652105331421,2.990722417831421
2641788,0.057861328125,0.6356201171875,0.43798828125,-5.432128429412842,2.868652105331421,2.990722417831421
2641822,0.05224609375,0.64892578125,0.4442138671875,-6.958007335662842,3.051757574081421,3.295898199081421
2641838,0.0528564453125,0.6707763671875,0.4583740234375,-7.568358898162842,3.173827886581421,3.173827886581421
2641854,0.0545654296875,0.685791015625,0.4697265625,-7.812499523162842,3.112792730331421,3.295898199081421
2641888,0.0487060546875,0.66552734375,0.4615478515625,-8.72802734375,3.295898199081421,3.173827886581421
2641941,0.0540771484375,0.7347412109375,0.514892578125,-9.521484375,3.479003667831421,2.563476324081421
2641958,0.0528564453125,0.75341796875,0.5281982421875,-9.3994140625,3.479003667831421,2.44140625
2641975,0.0533447265625,0.767822265625,0.5401611328125,-8.97216796875,3.479003667831421,2.50244140625
2641991,0.0479736328125,0.7486572265625,0.537109375,-8.72802734375,3.112792730331421,2.807616949081421
2642012,0.044677734375,0.73291015625,0.5164794921875,-8.7890625,3.295898199081421,2.44140625
2642029,0.0526123046875,0.7373046875,0.516357421875,-8.6669921875,3.417968511581421,2.44140625
2642045,0.063232421875,0.7366943359375,0.509033203125,-8.6669921875,3.479003667831421,2.3193359375
2642062,0.07177734375,0.751953125,0.516357421875,-8.4228515625,3.601073980331421,2.01416015625
2642083,0.08447265625,0.788818359375,0.5242919921875,-7.507323741912842,3.662109136581421,1.7089842557907104
2642099,0.0911865234375,0.8248291015625,0.5447998046875,-6.896972179412842,3.662109136581421,1.5869139432907104
2642116,0.0872802734375,0.8243408203125,0.5460205078125,-5.493163585662842,3.295898199081421,1.6479490995407104
2642133,0.0865478515625,0.825927734375,0.546875,-4.638671875,2.990722417831421,1.5258787870407104
2642149,0.0899658203125,0.8092041015625,0.53515625,-4.33349609375,2.929687261581421,1.5258787870407104
2642183,0.103271484375,0.824462890625,0.539794921875,-3.295898199081421,2.929687261581421,0.4272460639476776
2642199,0.11279296875,0.8848876953125,0.56298828125,-2.38037109375,2.50244140625,0.7934569716453552
2642215,0.118408203125,0.908447265625,0.575439453125,-2.01416015625,2.3193359375,1.03759765625
2642231,0.118896484375,0.9073486328125,0.578857421875,-1.3427733182907104,1.8920897245407104,1.5869139432907104
2642251,0.1146240234375,0.9068603515625,0.5848388671875,-1.03759765625,1.5869139432907104,1.9531248807907104
2642273,0.1094970703125,0.9117431640625,0.5972900390625,-0.9765624403953552,1.220703125,2.197265625
2642289,0.1064453125,0.9073486328125,0.603759765625,-0.9765624403953552,1.0986328125,2.50244140625
2642306,0.1051025390625,0.9012451171875,0.6082763671875,-1.2817381620407104,0.7324218153953552,2.807616949081421
2642323,0.0975341796875,0.8900146484375,0.6036376953125,-1.5869139432907104,0.4272460639476776,2.807616949081421
2642356,0.0927734375,0.91162109375,0.593505859375,-1.8920897245407104,0.30517578125,2.685546636581421
2642373,0.097900390625,0.9332275390625,0.60791015625,-1.7700194120407104,0.30517578125,2.624511480331421
2642389,0.0965576171875,0.9359130859375,0.603759765625,-1.4648436307907104,-0.1220703050494194,3.234863042831421
2642421,0.0743408203125,0.8792724609375,0.5621337890625,-0.7934569716453552,0.1831054538488388,2.38037109375
2642442,0.07080078125,0.8873291015625,0.5604248046875,0.0,0.6103515625,1.5869139432907104
2642458,0.076904296875,0.9251708984375,0.580078125,0.4882812201976776,0.7324218153953552,1.3427733182907104
2642475,0.077392578125,0.923095703125,0.5751953125,1.7089842557907104,0.54931640625,1.4038084745407104
2642492,0.0712890625,0.8807373046875,0.539794921875,2.990722417831421,0.8544921278953552,0.6713866591453552
2642542,0.09033203125,0.935791015625,0.582763671875,6.530761241912842,1.7089842557907104,-1.2817381620407104
2642558,0.0916748046875,0.9407958984375,0.58984375,7.812499523162842,1.5258787870407104,-1.5258787870407104
2642574,0.0921630859375,0.93603515625,0.586181640625,8.36181640625,1.5258787870407104,-1.7089842557907104
2642610,0.1046142578125,0.94921875,0.607177734375,9.8876953125,1.7089842557907104,-2.624511480331421
2642627,0.1151123046875,1.0003662109375,0.62744140625,10.192870140075684,1.6479490995407104,-2.807616949081421
2642648,0.1162109375,1.0115966796875,0.63330078125,11.047362327575684,1.3427733182907104,-2.3193359375
2642668,0.1082763671875,0.9779052734375,0.61865234375,11.230467796325684,1.15966796875,-1.9531248807907104
2642684,0.10791015625,0.96142578125,0.618896484375,10.559081077575684,1.220703125,-2.197265625
2642701,0.109375,0.99365234375,0.6317138671875,10.131834983825684,1.220703125,-2.25830078125
2642718,0.103515625,1.0103759765625,0.62890625,9.27734375,0.9765624403953552,-1.8310545682907104
2642734,0.099365234375,1.000244140625,0.61962890625,8.48388671875,0.7324218153953552,-1.15966796875
2642751,0.0894775390625,0.9471435546875,0.5950927734375,7.263183116912842,0.7934569716453552,-0.6713866591453552
2642784,0.075927734375,0.8748779296875,0.5709228515625,4.45556640625,1.15966796875,-1.03759765625
2642800,0.07568359375,0.8922119140625,0.5811767578125,3.051757574081421,1.4038084745407104,-1.2817381620407104
2642816,0.0771484375,0.9041748046875,0.58642578125,2.563476324081421,1.3427733182907104,-0.9765624403953552
2642832,0.0751953125,0.87646484375,0.5726318359375,1.5258787870407104,1.0986328125,-0.54931640625
2642852,0.0738525390625,0.8409423828125,0.5562744140625,0.30517578125,1.2817381620407104,-0.6713866591453552
2642874,0.0731201171875,0.836181640625,0.5555419921875,-0.7934569716453552,1.220703125,-0.6713866591453552
2642890,0.070068359375,0.82763671875,0.55029296875,-1.0986328125,1.2817381620407104,-0.54931640625
2642907,0.0692138671875,0.826416015625,0.551513671875,-1.4038084745407104,1.2817381620407104,-0.4882812201976776
2642924,0.1258544921875,1.21923828125,0.8365478515625,-1.4648436307907104,0.30517578125,0.9155272841453552
2642957,0.1214599609375,1.008056640625,0.68408203125,3.601073980331421,-9.6435546875,14.343260765075684
2642974,-0.000244140625,0.4012451171875,0.2603759765625,1.7089842557907104,-6.774901866912842,10.742186546325684
2642990,0.0303955078125,0.64599609375,0.46240234375,2.3193359375,-7.019042491912842,10.620116233825684
2643018,-0.029541015625,0.4429931640625,0.3485107421875,1.0986328125,-4.5166015625,6.530761241912842
2643040,0.0643310546875,1.22119140625,0.8009033203125,0.1831054538488388,3.295898199081421,-5.310058116912842
2643073,0.044189453125,0.2918701171875,0.197265625,-1.0986328125,-3.540038824081421,4.5166015625
2643091,0.2259521484375,1.271484375,0.8724365234375,-0.1220703050494194,0.7324218153953552,-0.8544921278953552
2643107,0.1279296875,1.0772705078125,0.708740234375,-0.4272460639476776,-1.0986328125,1.7700194120407104
2643141,0.0484619140625,0.9442138671875,0.6668701171875,-2.624511480331421,-0.4882812201976776,1.03759765625
2643205,0.0726318359375,0.8316650390625,0.5262451171875,-3.295898199081421,0.0610351525247097,0.6103515625
2643221,0.048828125,0.8494873046875,0.5576171875,-2.868652105331421,0.0610351525247097,0.4882812201976776
2643237,0.0570068359375,0.8289794921875,0.55029296875,-2.746581792831421,0.1220703050494194,0.54931640625
2643253,0.086181640625,0.8328857421875,0.56689453125,-3.112792730331421,-0.0610351525247097,0.3662109076976776
2643273,0.0819091796875,0.8408203125,0.550048828125,-2.929687261581421,-0.2441406100988388,0.4882812201976776
2643289,0.0570068359375,0.8516845703125,0.53955078125,-2.746581792831421,-0.2441406100988388,0.4272460639476776
2643305,0.0587158203125,0.8507080078125,0.545654296875,-2.13623046875,-0.0610351525247097,0.4882812201976776
2643321,0.0777587890625,0.826904296875,0.5384521484375,-1.7089842557907104,0.0,0.3662109076976776
2643337,0.0821533203125,0.841064453125,0.54931640625,-1.6479490995407104,0.0610351525247097,0.3662109076976776
2643353,0.07275390625,0.8441162109375,0.5555419921875,-1.5258787870407104,-0.30517578125,0.4272460639476776
2643385,0.0673828125,0.8505859375,0.5391845703125,-0.7324218153953552,-0.3662109076976776,0.3662109076976776
2643433,0.0706787109375,0.8438720703125,0.5440673828125,0.7324218153953552,-0.3662109076976776,0.2441406100988388
2643454,0.0687255859375,0.84423828125,0.5435791015625,1.0986328125,-0.30517578125,0.2441406100988388
2643471,0.0733642578125,0.8470458984375,0.5396728515625,1.7089842557907104,-0.3662109076976776,0.2441406100988388
2643504,0.0712890625,0.838623046875,0.54541015625,2.746581792831421,-0.3662109076976776,0.2441406100988388
2643521,0.0706787109375,0.84130859375,0.546142578125,3.051757574081421,-0.4882812201976776,0.1831054538488388
2643537,0.071533203125,0.8438720703125,0.54638671875,3.234863042831421,-0.4882812201976776,0.1831054538488388
2643553,0.073486328125,0.838623046875,0.539794921875,3.906249761581421,-0.4882812201976776,0.1831054538488388
2643607,0.0701904296875,0.8302001953125,0.5489501953125,5.249022960662842,-0.4882812201976776,-0.0610351525247097
2643633,0.072021484375,0.8365478515625,0.5557861328125,5.737304210662842,-0.4272460639476776,0.0
2643650,0.0693359375,0.828125,0.551025390625,5.920409679412842,-0.54931640625,0.0610351525247097
2643683,0.073486328125,0.821044921875,0.570556640625,5.554198741912842,-0.3662109076976776,0.1220703050494194
2643700,0.071044921875,0.81640625,0.5863037109375,4.5166015625,-0.4882812201976776,0.2441406100988388
2643717,0.0697021484375,0.8214111328125,0.5772705078125,3.417968511581421,-0.7934569716453552,0.1831054538488388
2643749,0.0733642578125,0.8343505859375,0.558349609375,3.295898199081421,-0.6103515625,0.30517578125
2643815,0.0692138671875,0.82421875,0.5628662109375,2.868652105331421,-0.54931640625,0.30517578125
2643831,0.0740966796875,0.832275390625,0.5562744140625,2.929687261581421,-0.3662109076976776,0.1831054538488388
2643852,0.0723876953125,0.8282470703125,0.5621337890625,2.990722417831421,-0.30517578125,0.1831054538488388
2643869,0.068603515625,0.826416015625,0.5706787109375,2.563476324081421,-0.2441406100988388,0.2441406100988388
2643885,0.0701904296875,0.81591796875,0.5816650390625,2.197265625,-0.1831054538488388,0.2441406100988388
2643919,0.0732421875,0.82177734375,0.5694580078125,1.03759765625,-0.30517578125,0.1220703050494194
2643935,0.0712890625,0.8343505859375,0.5606689453125,0.8544921278953552,-0.2441406100988388,0.1831054538488388
2643999,0.0723876953125,0.8179931640625,0.5743408203125,-0.2441406100988388,-0.2441406100988388,0.2441406100988388
2644051,0.070556640625,0.823974609375,0.5684814453125,-1.2817381620407104,-0.0610351525247097,0.3662109076976776
2644068,0.070556640625,0.8232421875,0.5743408203125,-1.7700194120407104,-0.1831054538488388,0.30517578125
2644099,0.0712890625,0.8331298828125,0.5594482421875,-2.3193359375,-0.0610351525247097,0.30517578125
2644115,0.07080078125,0.8353271484375,0.5594482421875,-2.0751953125,-0.1220703050494194,0.3662109076976776
2644132,0.0701904296875,0.8316650390625,0.5552978515625,-1.8920897245407104,-0.0610351525247097,0.3662109076976776
2644164,0.07421875,0.8350830078125,0.5592041015625,-1.220703125,-0.2441406100988388,0.3662109076976776
2644212,0.0704345703125,0.8375244140625,0.5516357421875,0.0,-0.1831054538488388,0.30517578125
2644292,0.0694580078125,0.8330078125,0.5579833984375,1.8310545682907104,-0.30517578125,0.1220703050494194
2644309,0.07275390625,0.8323974609375,0.5611572265625,1.8310545682907104,-0.2441406100988388,0.1831054538488388
2644342,0.069580078125,0.833251953125,0.5616455078125,1.8310545682907104,-0.3662109076976776,0.1831054538488388
2644359,0.069580078125,0.8353271484375,0.558837890625,2.0751953125,-0.4272460639476776,0.2441406100988388
2644375,0.072509765625,0.8292236328125,0.5587158203125,2.25830078125,-0.3662109076976776,0.30517578125
2644392,0.0733642578125,0.82958984375,0.5654296875,2.25830078125,-0.3662109076976776,0.2441406100988388
2644412,0.0706787109375,0.8232421875,0.56591796875,2.13623046875,-0.3662109076976776,0.1220703050494194
2644434,0.0699462890625,0.8282470703125,0.5650634765625,1.8920897245407104,-0.3662109076976776,0.1220703050494194
2644450,0.070068359375,0.82861328125,0.562255859375,1.7089842557907104,-0.3662109076976776,0.1831054538488388
2644467,0.07177734375,0.83056640625,0.563720703125,1.6479490995407104,-0.3662109076976776,0.1831054538488388
2644484,0.072265625,0.8253173828125,0.569091796875,1.5869139432907104,-0.3662109076976776,0.30517578125
2644517,0.0694580078125,0.8282470703125,0.563232421875,1.2817381620407104,-0.3662109076976776,0.1220703050494194
2644535,0.0711669921875,0.8341064453125,0.5587158203125,1.4648436307907104,-0.30517578125,0.1831054538488388
2644551,0.0721435546875,0.8333740234375,0.5589599609375,1.5869139432907104,-0.2441406100988388,0.2441406100988388
2644615,0.0726318359375,0.829833984375,0.5665283203125,1.03759765625,-0.2441406100988388,0.1831054538488388
2644674,0.0682373046875,0.8267822265625,0.566650390625,0.8544921278953552,-0.4272460639476776,0.30517578125
2644779,0.0714111328125,0.83203125,0.5587158203125,3.906249761581421,-0.4882812201976776,0.1220703050494194
2644796,0.0682373046875,0.831298828125,0.564697265625,4.45556640625,-0.4882812201976776,0.0610351525247097
2644813,0.06982421875,0.8289794921875,0.5672607421875,4.82177734375,-0.4272460639476776,0.0610351525247097
2644829,0.0738525390625,0.8221435546875,0.5733642578125,4.82177734375,-0.3662109076976776,0.0
2644846,0.0723876953125,0.8201904296875,0.576171875,4.45556640625,-0.4272460639476776,0.1220703050494194
2644879,0.0694580078125,0.81787109375,0.5794677734375,3.662109136581421,-0.4272460639476776,0.1220703050494194
2644895,0.07080078125,0.81982421875,0.580810546875,3.112792730331421,-0.3662109076976776,0.1831054538488388
2644911,0.0716552734375,0.8187255859375,0.57861328125,2.868652105331421,-0.4272460639476776,0.1831054538488388
2644943,0.06982421875,0.81884765625,0.579833984375,2.0751953125,-0.4272460639476776,0.2441406100988388
2644959,0.0714111328125,0.8175048828125,0.5802001953125,1.6479490995407104,-0.30517578125,0.2441406100988388
2644975,0.0714111328125,0.8157958984375,0.582275390625,1.4648436307907104,-0.2441406100988388,0.1831054538488388
2644991,0.071533203125,0.8173828125,0.58349609375,0.8544921278953552,-0.2441406100988388,0.1831054538488388
2645059,0.0721435546875,0.8118896484375,0.578369140625,-0.9155272841453552,0.0610351525247097,0.1831054538488388
2645081,0.0714111328125,0.8121337890625,0.5902099609375,-2.01416015625,0.0610351525247097,0.1831054538488388
2645097,0.06689453125,0.7972412109375,0.586181640625,-2.746581792831421,0.0,0.30517578125
2645114,0.06640625,0.7945556640625,0.58349609375,-4.638671875,0.1831054538488388,0.3662109076976776
2645131,0.071533203125,0.794677734375,0.587158203125,-6.774901866912842,1.03759765625,-0.3662109076976776
2645147,0.0657958984375,0.7677001953125,0.576904296875,-8.11767578125,2.0751953125,-1.2817381620407104
2645180,0.08056640625,0.9869384765625,0.978759765625,-17.9443359375,9.94873046875,-14.587401390075684
2645196,0.207763671875,2.0245361328125,1.4339599609375,-12.268065452575684,1.15966796875,-5.798339366912842
2645212,0.2208251953125,2.156982421875,1.3306884765625,-5.920409679412842,-0.8544921278953552,-1.5258787870407104
2645244,0.19140625,1.654296875,1.0028076171875,1.9531248807907104,-2.38037109375,3.845214605331421
2645260,0.15283203125,1.390625,0.764404296875,3.845214605331421,-1.3427733182907104,0.54931640625
2645276,0.154296875,1.361328125,0.642333984375,3.417968511581421,-0.54931640625,-0.30517578125
2645292,0.1619873046875,1.3929443359375,0.58447265625,5.249022960662842,0.6713866591453552,-1.0986328125
2645312,0.182373046875,1.4404296875,0.5859375,7.385253429412842,2.38037109375,-0.9765624403953552
2645328,0.194580078125,1.5352783203125,0.7257080078125,9.765625,3.234863042831421,-0.2441406100988388
2645344,0.1917724609375,1.5396728515625,0.799560546875,11.169432640075684,2.868652105331421,0.6713866591453552
2645360,0.1689453125,1.45458984375,0.8260498046875,11.169432640075684,1.5869139432907104,1.8920897245407104
2645376,0.1588134765625,1.3564453125,0.7760009765625,11.291502952575684,1.7089842557907104,1.9531248807907104
2645392,0.169189453125,1.3536376953125,0.7816162109375,9.6435546875,2.563476324081421,1.8310545682907104
2645424,0.17822265625,1.223388671875,0.815185546875,6.286620616912842,2.44140625,3.723144292831421
2645440,0.158447265625,1.1142578125,0.7923583984375,2.197265625,2.0751953125,4.0283203125
2645456,0.1400146484375,1.027587890625,0.734130859375,0.9155272841453552,1.8920897245407104,4.33349609375
2645472,0.13427734375,0.9586181640625,0.7080078125,-1.8920897245407104,1.9531248807907104,5.371093273162842
2645497,0.1234130859375,0.8277587890625,0.6712646484375,-4.33349609375,1.4038084745407104,5.859374523162842
2645517,0.0953369140625,0.64990234375,0.5760498046875,-6.408690929412842,0.7324218153953552,6.591796398162842
2645537,0.0645751953125,0.463134765625,0.4952392578125,-8.6669921875,0.7324218153953552,6.164550304412842
2645553,0.0301513671875,0.290771484375,0.4136962890625,-10.498045921325684,-0.0610351525247097,6.103515148162842
2645570,0.0009765625,0.1085205078125,0.261474609375,-10.681151390075684,-0.3662109076976776,5.676269054412842
2645603,-0.0501708984375,-0.1370849609375,0.031005859375,-9.27734375,0.6713866591453552,2.563476324081421
2645619,-0.0489501953125,-0.2279052734375,0.0013427734375,-9.033203125,1.4648436307907104,1.15966796875
2645636,-0.0543212890625,-0.2373046875,-0.06396484375,-10.437010765075684,1.8310545682907104,0.7324218153953552
2645652,-0.033447265625,-0.0457763671875,-0.0263671875,-10.009765625,2.563476324081421,2.197265625
2645677,-0.0421142578125,-0.18408203125,0.138671875,-10.498045921325684,1.9531248807907104,2.13623046875
2645693,-0.064453125,-0.1802978515625,0.0811767578125,-1.9531248807907104,0.1831054538488388,-0.7934569716453552
2645710,-0.056396484375,-0.017333984375,0.1783447265625,3.417968511581421,1.220703125,-2.50244140625
2645727,-0.061279296875,0.0577392578125,0.2750244140625,10.009765625,1.7089842557907104,-4.94384765625
2645743,-0.0205078125,0.3636474609375,0.212158203125,15.624999046325684,1.03759765625,-6.408690929412842
2645777,-0.064697265625,0.240234375,0.2880859375,44.616695404052734,1.7089842557907104,5.676269054412842
2645794,0.012939453125,0.7686767578125,0.578857421875,14.282225608825684,0.6713866591453552,-3.051757574081421
2645815,0.0367431640625,1.074951171875,0.6842041015625,17.02880859375,-0.0610351525247097,-5.920409679412842
2645831,0.0758056640625,1.087158203125,0.6275634765625,13.977049827575684,0.1220703050494194,-5.065917491912842
2645848,0.0733642578125,1.11083984375,0.6348876953125,15.563963890075684,-0.1831054538488388,-2.624511480331421
2645865,0.066650390625,1.047607421875,0.5887451171875,18.61572265625,-0.9765624403953552,-2.624511480331421
2645898,0.0751953125,1.02392578125,0.5679931640625,20.324705123901367,-0.6713866591453552,-2.01416015625
2645915,0.06689453125,0.9541015625,0.559326171875,18.9208984375,-0.4882812201976776,-0.7934569716453552
2645931,0.0682373046875,0.8184814453125,0.521484375,19.10400390625,-0.4272460639476776,-0.9765624403953552
2645963,0.08154296875,0.6607666015625,0.5186767578125,13.305663108825684,0.2441406100988388,-2.0751953125
2645980,0.0733642578125,0.537841796875,0.5206298828125,10.314940452575684,0.9155272841453552,-2.868652105331421
2646001,0.08447265625,0.5712890625,0.554931640625,7.751464366912842,1.03759765625,-3.417968511581421
2646017,0.084716796875,0.594482421875,0.5557861328125,4.33349609375,1.220703125,-4.08935546875
2646034,0.1119384765625,0.69580078125,0.591796875,2.3193359375,1.0986328125,-3.906249761581421
2646051,0.10546875,0.772705078125,0.625244140625,3.112792730331421,0.9155272841453552,-3.723144292831421
2646084,0.1077880859375,0.8687744140625,0.673095703125,1.2817381620407104,0.6103515625,-2.50244140625
2646101,0.1124267578125,0.92138671875,0.6739501953125,0.4272460639476776,0.2441406100988388,-1.2817381620407104
2646117,0.108154296875,0.9163818359375,0.6766357421875,-0.30517578125,0.0610351525247097,-0.7324218153953552
2646133,0.099365234375,0.9017333984375,0.6761474609375,-0.9765624403953552,-0.30517578125,0.1831054538488388
2646207,0.0980224609375,0.8280029296875,0.681396484375,-7.324218273162842,-1.4038084745407104,2.746581792831421
2646223,0.0916748046875,0.7918701171875,0.69677734375,-8.11767578125,-1.7089842557907104,3.051757574081421
2646240,0.08154296875,0.777587890625,0.705078125,-10.559081077575684,-2.3193359375,3.356933355331421
2646255,0.0772705078125,0.7728271484375,0.699462890625,-12.268065452575684,-3.112792730331421,3.723144292831421
2646305,0.06396484375,0.7584228515625,0.635986328125,-14.770506858825684,-4.69970703125,4.57763671875
2646337,0.0576171875,0.746337890625,0.5831298828125,-14.221190452575684,-5.0048828125,4.69970703125
2646354,0.0621337890625,0.73779296875,0.571044921875,-13.854979515075684,-5.065917491912842,4.82177734375
2646371,0.060791015625,0.6943359375,0.5556640625,-12.817381858825684,-5.310058116912842,4.8828125
2646391,0.053955078125,0.6448974609375,0.5379638671875,-11.901854515075684,-5.554198741912842,4.45556640625
2646408,0.0499267578125,0.62255859375,0.5216064453125,-11.108397483825684,-5.676269054412842,3.662109136581421
2646424,0.045166015625,0.5921630859375,0.4947509765625,-10.437010765075684,-5.371093273162842,2.44140625
2646441,0.0455322265625,0.6063232421875,0.4869384765625,-9.6435546875,-4.8828125,0.8544921278953552
2646457,0.0504150390625,0.6429443359375,0.4964599609375,-8.97216796875,-4.69970703125,0.3662109076976776
2646473,0.0548095703125,0.7008056640625,0.504638671875,-7.690429210662842,-4.45556640625,-0.7324218153953552
2646505,0.0684814453125,0.7694091796875,0.5137939453125,-4.21142578125,-4.33349609375,-1.5258787870407104
2646521,0.07470703125,0.7928466796875,0.5162353515625,-1.7089842557907104,-3.906249761581421,-2.197265625
2646537,0.0775146484375,0.8154296875,0.51904296875,-0.30517578125,-3.845214605331421,-2.44140625
2646553,0.0792236328125,0.7967529296875,0.5096435546875,2.13623046875,-3.845214605331421,-2.685546636581421
2646578,0.074462890625,0.723388671875,0.552490234375,1.6479490995407104,-3.784179449081421,-3.234863042831421
2646594,0.0758056640625,0.712646484375,0.4847412109375,1.5869139432907104,-3.662109136581421,-3.417968511581421
2646611,0.076904296875,0.693359375,0.45751953125,0.9765624403953552,-3.356933355331421,-4.0283203125
2646628,0.0771484375,0.695556640625,0.45751953125,0.0610351525247097,-2.807616949081421,-4.638671875
2646645,0.0758056640625,0.6871337890625,0.46142578125,-0.4882812201976776,-2.563476324081421,-4.94384765625
2646678,0.07666015625,0.6978759765625,0.4464111328125,-2.0751953125,-2.13623046875,-4.7607421875
2646696,0.073486328125,0.68505859375,0.440673828125,-4.39453125,-1.5869139432907104,-4.94384765625
2646717,0.0726318359375,0.7249755859375,0.4442138671875,-4.8828125,-1.3427733182907104,-5.0048828125
2646733,0.07666015625,0.74951171875,0.4517822265625,-5.432128429412842,-1.220703125,-4.8828125
2646800,0.083984375,0.824951171875,0.4459228515625,-6.286620616912842,0.0,-3.662109136581421
2646849,0.080810546875,0.8272705078125,0.461181640625,-5.554198741912842,0.54931640625,-2.13623046875
2646871,0.0760498046875,0.805419921875,0.47216796875,-6.713866710662842,0.9155272841453552,-2.25830078125
2646888,0.0821533203125,0.835205078125,0.499267578125,-6.652831554412842,1.15966796875,-2.13623046875
2646921,0.073486328125,0.8333740234375,0.505126953125,-7.751464366912842,0.8544921278953552,-1.15966796875
2646954,0.075439453125,0.8304443359375,0.5177001953125,-10.253905296325684,1.15966796875,-0.4882812201976776
2646997,0.086181640625,0.857421875,0.531494140625,-13.427733421325684,1.4038084745407104,-0.0610351525247097
2647014,0.087646484375,0.8814697265625,0.5535888671875,-13.671874046325684,1.2817381620407104,0.2441406100988388
2647031,0.086669921875,0.8885498046875,0.55078125,-15.197752952575684,1.03759765625,0.9765624403953552
2647050,0.087158203125,0.896484375,0.5460205078125,-15.380858421325684,0.8544921278953552,1.5258787870407104
2647066,0.08740234375,0.8800048828125,0.5289306640625,-16.4794921875,0.7934569716453552,1.9531248807907104
2647083,0.0914306640625,0.88330078125,0.5260009765625,-16.4794921875,0.7934569716453552,2.13623046875
2647099,0.09130859375,0.883544921875,0.5318603515625,-16.845703125,0.7324218153953552,2.25830078125
2647115,0.09130859375,0.90625,0.537109375,-17.15087890625,0.54931640625,2.563476324081421
2647131,0.0908203125,0.9117431640625,0.5338134765625,-16.7236328125,0.3662109076976776,2.685546636581421
2647163,0.0924072265625,0.90625,0.5169677734375,-15.747069358825684,0.0,3.356933355331421
2647179,0.0909423828125,0.894775390625,0.5130615234375,-15.380858421325684,-0.1220703050494194,3.356933355331421
2647195,0.09228515625,0.880126953125,0.501220703125,-14.282225608825684,-0.4272460639476776,3.173827886581421
2647211,0.093994140625,0.87451171875,0.489990234375,-13.305663108825684,-0.4882812201976776,3.112792730331421
2647231,0.10009765625,0.8773193359375,0.47998046875,-12.084959983825684,-0.4272460639476776,2.807616949081421
2647253,0.1055908203125,0.90771484375,0.4957275390625,-11.962889671325684,-0.1831054538488388,2.807616949081421
2647269,0.10888671875,0.9510498046875,0.511962890625,-8.97216796875,-0.7934569716453552,3.051757574081421
2647286,0.105224609375,0.924560546875,0.50244140625,-8.056640625,-1.03759765625,3.479003667831421
2647303,0.1015625,0.9093017578125,0.4822998046875,-6.286620616912842,-1.2817381620407104,3.662109136581421
2647340,0.092041015625,0.90869140625,0.4923095703125,-3.295898199081421,-1.0986328125,2.868652105331421
2647360,0.0927734375,0.9373779296875,0.5089111328125,-1.3427733182907104,-1.4648436307907104,2.807616949081421
2647381,0.09521484375,0.954345703125,0.4925537109375,0.4882812201976776,-1.6479490995407104,2.929687261581421
2647433,0.0806884765625,0.9378662109375,0.502197265625,5.126952648162842,-2.3193359375,3.234863042831421
2647473,0.0682373046875,0.9140625,0.4810791015625,7.019042491912842,-2.746581792831421,3.051757574081421
2647490,0.0615234375,0.89794921875,0.4771728515625,7.446288585662842,-2.746581792831421,2.807616949081421
2647522,0.0535888671875,0.9036865234375,0.4898681640625,9.09423828125,-3.173827886581421,2.50244140625
2647539,0.047119140625,0.8934326171875,0.4739990234375,9.70458984375,-3.417968511581421,2.25830078125
2647555,0.0443115234375,0.8848876953125,0.4708251953125,10.498045921325684,-3.234863042831421,1.3427733182907104
2647571,0.04296875,0.8985595703125,0.48193359375,10.559081077575684,-3.173827886581421,1.03759765625
2647591,0.0362548828125,0.91357421875,0.500732421875,11.169432640075684,-3.417968511581421,0.3662109076976776
2647613,0.029296875,0.9144287109375,0.4937744140625,11.230467796325684,-3.662109136581421,-0.0610351525247097
2647629,0.0230712890625,0.8699951171875,0.4586181640625,11.535643577575684,-3.234863042831421,-1.03759765625
2647646,0.0245361328125,0.8668212890625,0.4700927734375,11.230467796325684,-2.807616949081421,-1.8310545682907104
2647663,0.0283203125,0.88330078125,0.4901123046875,10.498045921325684,-2.44140625,-2.990722417831421
2647694,0.0428466796875,0.9132080078125,0.5069580078125,9.1552734375,-2.38037109375,-4.45556640625
2647713,0.0491943359375,0.940673828125,0.5211181640625,8.48388671875,-1.9531248807907104,-5.249022960662842
2647729,0.0570068359375,0.945556640625,0.54443359375,7.507323741912842,-2.197265625,-5.432128429412842
2647777,0.0908203125,0.9610595703125,0.554931640625,4.8828125,-2.25830078125,-6.652831554412842
2647831,0.110595703125,0.962890625,0.5404052734375,2.807616949081421,-3.295898199081421,-5.737304210662842
2647847,0.1051025390625,0.927490234375,0.5303955078125,2.3193359375,-3.479003667831421,-5.310058116912842
2647880,0.1048583984375,0.9041748046875,0.545166015625,0.1831054538488388,-4.150390625,-5.126952648162842
2647930,0.08203125,0.822021484375,0.50732421875,-2.0751953125,-4.45556640625,-4.150390625
2647952,0.08984375,0.8629150390625,0.560302734375,-4.150390625,-4.638671875,-4.2724609375
2647969,0.34228515625,2.509521484375,1.309326171875,-8.97216796875,-5.859374523162842,-1.0986328125
2648002,-0.0228271484375,0.3262939453125,0.258056640625,-19.287109375,-10.131834983825684,13.793944358825684
2648076,0.054443359375,0.856689453125,0.37353515625,-15.014647483825684,-3.662109136581421,5.737304210662842
2648093,-0.001220703125,0.372314453125,0.1463623046875,-9.27734375,0.7324218153953552,2.13623046875
2648110,0.091064453125,1.09912109375,0.5447998046875,-6.896972179412842,2.0751953125,-1.2817381620407104
2648130,0.067138671875,0.8870849609375,0.533447265625,-9.09423828125,1.220703125,2.3193359375
2648147,0.0528564453125,0.7724609375,0.4541015625,-13.244627952575684,0.8544921278953552,0.30517578125
2648163,0.0826416015625,0.923828125,0.5728759765625,-14.343260765075684,0.4272460639476776,0.54931640625
2648180,0.0819091796875,0.8865966796875,0.431396484375,-15.563963890075684,-0.6103515625,0.8544921278953552
2648196,0.0565185546875,0.9071044921875,0.414306640625,-13.732909202575684,0.4272460639476776,0.4882812201976776
2648212,0.05322265625,0.9820556640625,0.4334716796875,-12.695311546325684,0.4882812201976776,0.8544921278953552
2648244,0.0718994140625,0.85400390625,0.4561767578125,-11.413573265075684,0.7324218153953552,0.7934569716453552
2648292,0.0596923828125,0.910400390625,0.403564453125,-10.070799827575684,0.2441406100988388,0.6103515625
2648314,0.0626220703125,0.928955078125,0.4002685546875,-8.11767578125,0.30517578125,0.6713866591453552
2648331,0.0704345703125,0.8935546875,0.42578125,-7.263183116912842,0.4882812201976776,0.7934569716453552
2648364,0.0694580078125,0.9017333984375,0.4384765625,-5.920409679412842,0.0610351525247097,0.4272460639476776
2648397,0.0648193359375,0.9234619140625,0.4029541015625,-3.112792730331421,-0.0610351525247097,0.54931640625
2648439,0.067626953125,0.9033203125,0.4276123046875,-0.9765624403953552,0.0,0.4272460639476776
2648456,0.069091796875,0.9095458984375,0.42626953125,-0.0610351525247097,-0.2441406100988388,0.30517578125
2648473,0.0684814453125,0.908203125,0.4154052734375,0.9765624403953552,-0.4882812201976776,0.2441406100988388
2648523,0.066650390625,0.90966796875,0.4190673828125,3.967284917831421,-0.2441406100988388,0.2441406100988388
2648555,0.068115234375,0.8988037109375,0.427734375,4.57763671875,-0.6103515625,0.2441406100988388
2648572,0.0662841796875,0.9083251953125,0.421630859375,4.8828125,-0.6713866591453552,0.1831054538488388
2648589,0.0638427734375,0.9068603515625,0.4171142578125,5.676269054412842,-0.6713866591453552,0.2441406100988388
2648609,0.0660400390625,0.9072265625,0.4261474609375,6.408690929412842,-0.54931640625,0.1220703050494194
2648626,0.068115234375,0.9033203125,0.433837890625,6.958007335662842,-0.6713866591453552,0.1220703050494194
2648642,0.068115234375,0.8953857421875,0.4371337890625,7.324218273162842,-0.7324218153953552,0.0
2648659,0.0653076171875,0.903076171875,0.435302734375,7.629394054412842,-0.6713866591453552,0.0
2648675,0.064208984375,0.9002685546875,0.431396484375,7.812499523162842,-0.6713866591453552,0.0
2648691,0.0667724609375,0.904052734375,0.4349365234375,8.4228515625,-0.6713866591453552,0.0610351525247097
2648722,0.0665283203125,0.8919677734375,0.44873046875,8.72802734375,-0.6713866591453552,0.0
2648744,0.066650390625,0.892822265625,0.4534912109375,8.72802734375,-0.8544921278953552,0.0
2648760,0.0670166015625,0.889404296875,0.4451904296875,8.7890625,-0.7934569716453552,0.0
2648777,0.06640625,0.8951416015625,0.4456787109375,8.97216796875,-0.7934569716453552,0.0610351525247097
2648794,0.065673828125,0.889404296875,0.4510498046875,9.09423828125,-0.7934569716453552,0.0610351525247097
2648810,0.06640625,0.8875732421875,0.4564208984375,9.21630859375,-0.7934569716453552,0.0610351525247097
2648844,0.06640625,0.8861083984375,0.4613037109375,9.33837890625,-0.9155272841453552,-0.0610351525247097
2648892,0.0634765625,0.90576171875,0.43701171875,10.925292015075684,-0.7324218153953552,-0.1831054538488388
2648914,0.0643310546875,0.8782958984375,0.4853515625,12.023924827575684,-0.6713866591453552,0.0
2648931,0.06640625,0.884033203125,0.4716796875,11.962889671325684,-0.9155272841453552,-0.1220703050494194
2648964,0.064697265625,0.88916015625,0.4654541015625,12.084959983825684,-0.9155272841453552,-0.0610351525247097
2648985,0.0643310546875,0.869384765625,0.4896240234375,12.023924827575684,-0.9765624403953552,-0.1220703050494194
2649001,0.0679931640625,0.870849609375,0.495849609375,11.962889671325684,-0.9155272841453552,-0.0610351525247097
2649017,0.069091796875,0.8658447265625,0.4996337890625,11.840819358825684,-1.0986328125,-0.1220703050494194
2649034,0.0657958984375,0.8709716796875,0.488525390625,11.779784202575684,-0.8544921278953552,0.0
2649059,0.063720703125,0.8765869140625,0.489501953125,11.779784202575684,-0.9765624403953552,-0.1220703050494194
2649076,0.067626953125,0.8607177734375,0.5068359375,11.718749046325684,-0.8544921278953552,-0.1220703050494194
2649093,0.0673828125,0.865478515625,0.50048828125,11.535643577575684,-0.9155272841453552,-0.1220703050494194
2649110,0.0660400390625,0.8616943359375,0.509033203125,11.352538108825684,-0.9155272841453552,-0.0610351525247097
2649142,0.0645751953125,0.8565673828125,0.5098876953125,11.108397483825684,-0.8544921278953552,-0.0610351525247097
2649159,0.0675048828125,0.8602294921875,0.5174560546875,11.047362327575684,-0.8544921278953552,-0.0610351525247097
2649175,0.0682373046875,0.8536376953125,0.5250244140625,10.803221702575684,-0.8544921278953552,-0.1220703050494194
2649191,0.0657958984375,0.8543701171875,0.5196533203125,10.620116233825684,-0.8544921278953552,0.0
2649263,0.0677490234375,0.84912109375,0.53515625,10.009765625,-0.6713866591453552,0.0
2649280,0.0667724609375,0.8468017578125,0.533447265625,9.765625,-0.7934569716453552,-0.0610351525247097
2649296,0.0645751953125,0.84619140625,0.534912109375,9.521484375,-0.7934569716453552,0.0
2649313,0.0650634765625,0.852783203125,0.5318603515625,9.27734375,-0.7324218153953552,0.0610351525247097
2649362,0.0667724609375,0.8394775390625,0.5478515625,8.6669921875,-0.7324218153953552,0.0610351525247097
2649394,0.0648193359375,0.837158203125,0.54931640625,8.48388671875,-0.6713866591453552,0.0
2649411,0.064697265625,0.84033203125,0.5439453125,8.1787109375,-0.7934569716453552,-0.0610351525247097
2649446,0.06494140625,0.839599609375,0.5494384765625,7.751464366912842,-0.6713866591453552,0.0
2649462,0.065673828125,0.8321533203125,0.55615234375,7.446288585662842,-0.6713866591453552,0.1220703050494194
2649478,0.0654296875,0.835693359375,0.552001953125,7.324218273162842,-0.6713866591453552,0.1220703050494194
2649495,0.0665283203125,0.832763671875,0.560302734375,7.080077648162842,-0.6713866591453552,0.0610351525247097
2649512,0.0653076171875,0.8338623046875,0.5556640625,6.835937023162842,-0.6103515625,0.1220703050494194
2649533,0.065185546875,0.828369140625,0.559814453125,6.713866710662842,-0.6103515625,0.0610351525247097
2649549,0.065185546875,0.8328857421875,0.560302734375,6.530761241912842,-0.6103515625,0.1220703050494194
2649570,0.0654296875,0.832275390625,0.5625,6.225585460662842,-0.54931640625,0.1220703050494194
2649587,0.0645751953125,0.8304443359375,0.564697265625,6.042479991912842,-0.54931640625,0.0610351525247097
2649603,0.064453125,0.8299560546875,0.5614013671875,5.981444835662842,-0.6103515625,0.0
2649620,0.0657958984375,0.8271484375,0.564453125,5.676269054412842,-0.4882812201976776,0.0610351525247097
2649636,0.06591796875,0.829345703125,0.566162109375,5.493163585662842,-0.6103515625,0.0610351525247097
2649653,0.065185546875,0.824951171875,0.571044921875,5.310058116912842,-0.54931640625,0.0610351525247097
2649685,0.064697265625,0.8262939453125,0.5733642578125,5.0048828125,-0.54931640625,0.1220703050494194
2649701,0.064208984375,0.824951171875,0.5693359375,4.82177734375,-0.4882812201976776,0.1831054538488388
2649717,0.064453125,0.821044921875,0.5733642578125,4.69970703125,-0.4882812201976776,0.1220703050494194
2649733,0.0648193359375,0.8255615234375,0.573974609375,4.5166015625,-0.4882812201976776,0.1220703050494194
2649753,0.06396484375,0.822021484375,0.573486328125,4.33349609375,-0.4882812201976776,0.1220703050494194
2649769,0.0640869140625,0.824462890625,0.572021484375,4.21142578125,-0.4272460639476776,0.1220703050494194
2649785,0.0654296875,0.8221435546875,0.5758056640625,4.08935546875,-0.4882812201976776,0.1831054538488388
2649802,0.064453125,0.8212890625,0.57666015625,3.906249761581421,-0.4882812201976776,0.1831054538488388
2649823,0.064453125,0.8212890625,0.57958984375,3.845214605331421,-0.4272460639476776,0.1831054538488388
2649839,0.06494140625,0.82177734375,0.5782470703125,3.723144292831421,-0.4272460639476776,0.1220703050494194
2649856,0.0648193359375,0.8206787109375,0.5780029296875,3.601073980331421,-0.4272460639476776,0.1831054538488388
2649873,0.064697265625,0.8211669921875,0.5804443359375,3.417968511581421,-0.4272460639476776,0.2441406100988388
2649889,0.064208984375,0.8203125,0.5791015625,3.356933355331421,-0.4272460639476776,0.2441406100988388
2649919,0.0653076171875,0.82080078125,0.5806884765625,3.051757574081421,-0.30517578125,0.1220703050494194
2649936,0.06494140625,0.8189697265625,0.58056640625,3.051757574081421,-0.3662109076976776,0.1831054538488388
2649952,0.06494140625,0.8177490234375,0.578857421875,2.807616949081421,-0.4272460639476776,0.1831054538488388
2649984,0.0654296875,0.8177490234375,0.58154296875,2.624511480331421,-0.3662109076976776,0.2441406100988388
2650000,0.0650634765625,0.816162109375,0.5819091796875,2.563476324081421,-0.30517578125,0.1831054538488388
2650016,0.064208984375,0.817626953125,0.5831298828125,2.44140625,-0.30517578125,0.1220703050494194
2650032,0.0633544921875,0.8148193359375,0.583984375,2.38037109375,-0.4272460639476776,0.1831054538488388
2650052,0.0643310546875,0.8170166015625,0.582763671875,2.3193359375,-0.3662109076976776,0.2441406100988388
2650068,0.0648193359375,0.8165283203125,0.5848388671875,2.25830078125,-0.30517578125,0.1220703050494194
2650104,0.0653076171875,0.8160400390625,0.5853271484375,1.9531248807907104,-0.30517578125,0.2441406100988388
2650129,0.0645751953125,0.8143310546875,0.5841064453125,1.8920897245407104,-0.30517578125,0.1831054538488388
2650149,0.06494140625,0.81591796875,0.5836181640625,1.6479490995407104,-0.30517578125,0.2441406100988388
2650165,0.064453125,0.8154296875,0.5859375,1.6479490995407104,-0.2441406100988388,0.30517578125
2650186,0.064697265625,0.814208984375,0.5843505859375,1.6479490995407104,-0.30517578125,0.2441406100988388
2650219,0.0650634765625,0.818603515625,0.5877685546875,1.4648436307907104,-0.2441406100988388,0.1831054538488388
2650240,0.065185546875,0.8162841796875,0.5858154296875,1.3427733182907104,-0.30517578125,0.1831054538488388
2650256,0.065185546875,0.81494140625,0.5869140625,1.2817381620407104,-0.2441406100988388,0.1831054538488388
2650273,0.0653076171875,0.814697265625,0.5848388671875,1.2817381620407104,-0.2441406100988388,0.2441406100988388
2650293,0.064453125,0.8143310546875,0.5855712890625,1.220703125,-0.2441406100988388,0.2441406100988388
2650309,0.064697265625,0.815185546875,0.5850830078125,1.15966796875,-0.2441406100988388,0.2441406100988388
2650325,0.0643310546875,0.8140869140625,0.5858154296875,1.03759765625,-0.30517578125,0.2441406100988388
2650342,0.0645751953125,0.8143310546875,0.58544921875,0.9765624403953552,-0.30517578125,0.2441406100988388
2650363,0.064697265625,0.8135986328125,0.58642578125,1.03759765625,-0.2441406100988388,0.2441406100988388
2650379,0.06396484375,0.8157958984375,0.5859375,0.9765624403953552,-0.2441406100988388,0.2441406100988388
2650396,0.064208984375,0.8126220703125,0.58544921875,0.9765624403953552,-0.2441406100988388,0.2441406100988388
2650413,0.0643310546875,0.81201171875,0.58544921875,0.9765624403953552,-0.2441406100988388,0.1831054538488388
2650429,0.0653076171875,0.81591796875,0.5875244140625,0.8544921278953552,-0.2441406100988388,0.2441406100988388
2650460,0.064697265625,0.815673828125,0.5872802734375,0.8544921278953552,-0.2441406100988388,0.2441406100988388
2650476,0.064453125,0.8138427734375,0.5867919921875,0.7324218153953552,-0.2441406100988388,0.2441406100988388
2650492,0.0648193359375,0.8123779296875,0.58642578125,0.6713866591453552,-0.2441406100988388,0.2441406100988388
2650523,0.064453125,0.8128662109375,0.584716796875,0.7324218153953552,-0.1831054538488388,0.30517578125
2650545,0.0645751953125,0.814208984375,0.5858154296875,0.6713866591453552,-0.1831054538488388,0.2441406100988388
2650561,0.0650634765625,0.8194580078125,0.5902099609375,0.6713866591453552,-0.2441406100988388,0.2441406100988388
2650576,0.06494140625,0.8192138671875,0.5897216796875,0.6713866591453552,-0.2441406100988388,0.30517578125
2650592,0.064697265625,0.818115234375,0.5882568359375,0.6713866591453552,-0.2441406100988388,0.30517578125
2650658,0.065185546875,0.814697265625,0.58544921875,0.6103515625,-0.2441406100988388,0.1831054538488388
2650773,0.0648193359375,0.81640625,0.586669921875,0.54931640625,-0.1831054538488388,0.2441406100988388
2650790,0.06494140625,0.81591796875,0.5863037109375,0.54931640625,-0.2441406100988388,0.2441406100988388
2650823,0.0662841796875,0.8143310546875,0.585693359375,0.6103515625,-0.2441406100988388,0.2441406100988388
2650839,0.0645751953125,0.8153076171875,0.5838623046875,0.54931640625,-0.1831054538488388,0.1831054538488388
2650856,0.0653076171875,0.8162841796875,0.5848388671875,0.6103515625,-0.1831054538488388,0.2441406100988388
2650872,0.0655517578125,0.8160400390625,0.5865478515625,0.54931640625,-0.1831054538488388,0.1831054538488388
2650892,0.0643310546875,0.81591796875,0.5859375,0.6103515625,-0.30517578125,0.2441406100988388
2650908,0.063720703125,0.8165283203125,0.58544921875,0.6103515625,-0.2441406100988388,0.2441406100988388
2650924,0.064453125,0.8167724609375,0.584228515625,0.6103515625,-0.1831054538488388,0.2441406100988388
2650940,0.0654296875,0.81689453125,0.5850830078125,0.6103515625,-0.2441406100988388,0.30517578125
2650956,0.0657958984375,0.8140869140625,0.583984375,0.6713866591453552,-0.2441406100988388,0.2441406100988388
2650972,0.06494140625,0.8160400390625,0.585205078125,0.6713866591453552,-0.2441406100988388,0.2441406100988388
2651005,0.0645751953125,0.8140869140625,0.5841064453125,0.6713866591453552,-0.2441406100988388,0.2441406100988388
2651026,0.0638427734375,0.811767578125,0.583251953125,0.6713866591453552,-0.30517578125,0.2441406100988388
2651042,0.0655517578125,0.8172607421875,0.5867919921875,0.7324218153953552,-0.1831054538488388,0.1831054538488388
2651059,0.0638427734375,0.8140869140625,0.58447265625,0.7324218153953552,-0.1831054538488388,0.1831054538488388
2651125,0.0648193359375,0.818603515625,0.587158203125,0.6713866591453552,-0.1831054538488388,0.1831054538488388
2651142,0.0667724609375,0.819580078125,0.5872802734375,0.7934569716453552,-0.1831054538488388,0.2441406100988388
2651158,0.064697265625,0.8138427734375,0.5830078125,0.8544921278953552,-0.2441406100988388,0.2441406100988388
2651174,0.0633544921875,0.8175048828125,0.586669921875,0.9155272841453552,-0.2441406100988388,0.2441406100988388
2651191,0.0640869140625,0.81640625,0.5853271484375,0.8544921278953552,-0.2441406100988388,0.2441406100988388
2651212,0.0650634765625,0.8116455078125,0.5814208984375,0.9155272841453552,-0.30517578125,0.1831054538488388
2651228,0.06591796875,0.81982421875,0.5867919921875,0.9155272841453552,-0.30517578125,0.2441406100988388
2651249,0.064453125,0.81494140625,0.5850830078125,0.8544921278953552,-0.2441406100988388,0.2441406100988388
2651266,0.0631103515625,0.8162841796875,0.5855712890625,0.9155272841453552,-0.30517578125,0.1831054538488388
2651282,0.0657958984375,0.8194580078125,0.5888671875,0.9155272841453552,-0.30517578125,0.2441406100988388
2651299,0.06640625,0.8118896484375,0.5838623046875,0.9155272841453552,-0.2441406100988388,0.30517578125
2651316,0.0643310546875,0.8179931640625,0.5877685546875,0.9155272841453552,-0.2441406100988388,0.2441406100988388
2651332,0.0634765625,0.81787109375,0.587890625,0.9765624403953552,-0.2441406100988388,0.1831054538488388
2651364,0.06494140625,0.813232421875,0.5828857421875,0.9765624403953552,-0.2441406100988388,0.1831054538488388
2651380,0.06591796875,0.8209228515625,0.5885009765625,0.9765624403953552,-0.2441406100988388,0.2441406100988388
2651396,0.0633544921875,0.8153076171875,0.5859375,0.9765624403953552,-0.2441406100988388,0.2441406100988388
2651412,0.0628662109375,0.814697265625,0.5849609375,0.9765624403953552,-0.1831054538488388,0.2441406100988388
2651432,0.06494140625,0.81689453125,0.58642578125,0.9155272841453552,-0.30517578125,0.2441406100988388
2651448,0.066162109375,0.814208984375,0.585693359375,0.9155272841453552,-0.2441406100988388,0.2441406100988388
2651464,0.0653076171875,0.81689453125,0.587646484375,0.9155272841453552,-0.2441406100988388,0.30517578125
2651480,0.063720703125,0.8145751953125,0.5860595703125,0.9765624403953552,-0.30517578125,0.30517578125
2651496,0.0648193359375,0.8140869140625,0.58544921875,0.9155272841453552,-0.2441406100988388,0.2441406100988388
2651512,0.06591796875,0.817626953125,0.587158203125,0.9765624403953552,-0.1831054538488388,0.30517578125
2651544,0.0635986328125,0.813720703125,0.585693359375,0.9155272841453552,-0.2441406100988388,0.2441406100988388
2651560,0.064453125,0.815185546875,0.5875244140625,0.8544921278953552,-0.2441406100988388,0.2441406100988388
2651576,0.0648193359375,0.8128662109375,0.586669921875,0.9155272841453552,-0.2441406100988388,0.2441406100988388
2651592,0.0654296875,0.8162841796875,0.586669921875,1.03759765625,-0.2441406100988388,0.1831054538488388
2651617,0.0640869140625,0.81591796875,0.585693359375,0.9765624403953552,-0.2441406100988388,0.1831054538488388
2651633,0.0645751953125,0.8148193359375,0.58740234375,0.9765624403953552,-0.30517578125,0.1831054538488388
2651650,0.0662841796875,0.814697265625,0.587158203125,0.9765624403953552,-0.30517578125,0.2441406100988388
2651667,0.066162109375,0.8143310546875,0.58642578125,1.03759765625,-0.2441406100988388,0.2441406100988388
2651717,0.06494140625,0.815185546875,0.5875244140625,1.03759765625,-0.30517578125,0.30517578125
2651735,0.0655517578125,0.8145751953125,0.588623046875,1.03759765625,-0.30517578125,0.2441406100988388
2651772,0.0643310546875,0.8155517578125,0.58642578125,1.0986328125,-0.30517578125,0.1831054538488388
2651789,0.0645751953125,0.814208984375,0.5865478515625,1.15966796875,-0.30517578125,0.1831054538488388
2651806,0.06494140625,0.8155517578125,0.5887451171875,1.220703125,-0.30517578125,0.1831054538488388
2651839,0.0653076171875,0.815185546875,0.5850830078125,1.6479490995407104,-0.30517578125,0.1831054538488388
2651856,0.0650634765625,0.8154296875,0.5863037109375,1.7089842557907104,-0.2441406100988388,0.1831054538488388
2651872,0.0645751953125,0.815673828125,0.5875244140625,1.7700194120407104,-0.30517578125,0.2441406100988388
2651904,0.063720703125,0.8133544921875,0.585693359375,1.8310545682907104,-0.30517578125,0.1831054538488388
2651920,0.0650634765625,0.8131103515625,0.5897216796875,1.8920897245407104,-0.30517578125,0.3662109076976776
2651936,0.0653076171875,0.811767578125,0.591552734375,1.8920897245407104,-0.30517578125,0.4272460639476776
2651952,0.06396484375,0.81298828125,0.589111328125,1.7700194120407104,-0.3662109076976776,0.30517578125
2651972,0.0638427734375,0.8121337890625,0.5892333984375,1.5869139432907104,-0.30517578125,0.2441406100988388
2651993,0.0655517578125,0.8128662109375,0.589599609375,1.5869139432907104,-0.30517578125,0.30517578125
2652009,0.0645751953125,0.8150634765625,0.589111328125,1.6479490995407104,-0.3662109076976776,0.30517578125
2652026,0.064697265625,0.8154296875,0.58837890625,1.8310545682907104,-0.4882812201976776,0.30517578125
2652047,0.0650634765625,0.8157958984375,0.5855712890625,2.25830078125,-0.4272460639476776,0.2441406100988388
2652080,0.064453125,0.8177490234375,0.5848388671875,3.906249761581421,-0.54931640625,0.0610351525247097
2652101,0.0657958984375,0.824462890625,0.5771484375,5.0048828125,-0.4272460639476776,0.1220703050494194
2652117,0.06689453125,0.81787109375,0.5802001953125,5.493163585662842,-0.4882812201976776,0.1220703050494194
2652133,0.064208984375,0.8165283203125,0.5848388671875,6.286620616912842,-0.4272460639476776,0.0
2652154,0.0645751953125,0.811767578125,0.59912109375,6.713866710662842,-0.4882812201976776,-0.0610351525247097
2652179,0.063720703125,0.8077392578125,0.5958251953125,7.019042491912842,-0.54931640625,-0.0610351525247097
2652195,0.06396484375,0.8056640625,0.5966796875,7.263183116912842,-0.54931640625,0.0610351525247097
2652212,0.0645751953125,0.80419921875,0.603515625,7.202147960662842,-0.4882812201976776,0.0
2652229,0.063720703125,0.800537109375,0.6099853515625,6.591796398162842,-0.4272460639476776,0.0610351525247097
2652259,0.06640625,0.787353515625,0.6221923828125,4.94384765625,-0.4272460639476776,0.1220703050494194
2652276,0.0675048828125,0.788818359375,0.6226806640625,3.662109136581421,-0.4272460639476776,0.0
2652292,0.06396484375,0.794677734375,0.6121826171875,2.624511480331421,-0.3662109076976776,0.1220703050494194
2652324,0.0631103515625,0.795654296875,0.6131591796875,1.5869139432907104,-0.0610351525247097,0.1831054538488388
2652340,0.0653076171875,0.78564453125,0.6251220703125,0.3662109076976776,-0.0610351525247097,0.2441406100988388
2652356,0.0643310546875,0.7852783203125,0.624755859375,-0.3662109076976776,-0.1220703050494194,0.1831054538488388
2652372,0.0660400390625,0.7921142578125,0.6163330078125,-1.5258787870407104,-0.2441406100988388,0.2441406100988388
2652392,0.0657958984375,0.798828125,0.6090087890625,-2.01416015625,-0.2441406100988388,0.3662109076976776
2652413,0.062744140625,0.803466796875,0.6041259765625,-2.13623046875,-0.1831054538488388,0.4272460639476776
2652430,0.062255859375,0.802978515625,0.6015625,-2.197265625,-0.1831054538488388,0.3662109076976776
2652447,0.06591796875,0.8060302734375,0.6014404296875,-1.8920897245407104,-0.1220703050494194,0.30517578125
2652464,0.0655517578125,0.8072509765625,0.59765625,-1.2817381620407104,-0.2441406100988388,0.30517578125
2652497,0.0621337890625,0.815673828125,0.5875244140625,0.30517578125,-0.2441406100988388,0.1831054538488388
2652514,0.0654296875,0.815673828125,0.5888671875,1.5258787870407104,-0.1220703050494194,0.1831054538488388
2652535,0.06640625,0.8128662109375,0.5941162109375,2.01416015625,-0.1220703050494194,0.1220703050494194
2652551,0.0635986328125,0.8095703125,0.596923828125,2.807616949081421,-0.2441406100988388,0.0610351525247097
2652568,0.063232421875,0.80810546875,0.59912109375,3.601073980331421,-0.4272460639476776,0.0610351525247097
2652585,0.0654296875,0.8067626953125,0.598388671875,3.967284917831421,-0.4272460639476776,0.1220703050494194
2652618,0.0650634765625,0.8011474609375,0.6029052734375,4.638671875,-0.4272460639476776,0.1220703050494194
2652635,0.0653076171875,0.7979736328125,0.6083984375,4.638671875,-0.4882812201976776,0.0610351525247097
2652651,0.066162109375,0.7962646484375,0.6126708984375,4.39453125,-0.4882812201976776,0.1831054538488388
2652680,0.0650634765625,0.791259765625,0.610595703125,4.0283203125,-0.54931640625,0.30517578125
2652702,0.0660400390625,0.785400390625,0.6148681640625,3.417968511581421,-0.3662109076976776,0.3662109076976776
2652718,0.0650634765625,0.7757568359375,0.6192626953125,2.01416015625,-0.30517578125,0.4272460639476776
2652735,0.0655517578125,0.769775390625,0.6220703125,1.15966796875,-0.1220703050494194,0.30517578125
2652801,0.1605224609375,1.7589111328125,1.6007080078125,-17.15087890625,9.27734375,-13.610838890075684
2652818,0.193603515625,2.0638427734375,1.716552734375,-3.784179449081421,0.4272460639476776,-5.0048828125
2652834,0.194091796875,2.15185546875,1.5362548828125,2.563476324081421,-4.39453125,3.112792730331421
2652870,0.1295166015625,1.322021484375,0.9072265625,8.30078125,-4.5166015625,1.220703125
2652886,0.16064453125,1.342529296875,0.758544921875,10.314940452575684,-1.4648436307907104,-2.44140625
2652902,0.184814453125,1.517822265625,0.7679443359375,10.253905296325684,-0.6103515625,-2.624511480331421
2652918,0.1962890625,1.593017578125,0.822021484375,11.169432640075684,-0.1220703050494194,-1.4038084745407104
2652940,0.1895751953125,1.6373291015625,0.946044921875,12.390135765075684,-1.8310545682907104,0.54931640625
2652956,0.1688232421875,1.5218505859375,0.953125,13.793944358825684,-2.624511480331421,1.8920897245407104
2652973,0.1483154296875,1.457275390625,0.883544921875,15.136717796325684,-3.662109136581421,2.38037109375
2653035,0.1173095703125,1.150634765625,0.8590087890625,9.765625,-4.94384765625,6.042479991912842
2653054,0.0845947265625,0.9649658203125,0.7459716796875,6.469726085662842,-4.57763671875,7.019042491912842
2653070,0.066650390625,0.836181640625,0.6751708984375,5.249022960662842,-4.57763671875,6.958007335662842
2653100,0.01025390625,0.4669189453125,0.420166015625,1.8920897245407104,-2.868652105331421,5.187987804412842
2653122,0.0042724609375,0.4124755859375,0.384765625,-0.1220703050494194,-1.220703125,4.08935546875
2653138,-0.0111083984375,0.2322998046875,0.2926025390625,-2.44140625,-0.4882812201976776,3.356933355331421
2653155,-0.0274658203125,-0.0087890625,0.1790771484375,-4.0283203125,0.30517578125,2.807616949081421
2653172,-0.0341796875,-0.12841796875,0.1383056640625,-4.8828125,1.5869139432907104,-0.2441406100988388
2653188,-0.0511474609375,-0.3048095703125,0.0213623046875,-4.39453125,3.173827886581421,-4.5166015625
2653222,-0.0223388671875,-0.1536865234375,-0.11083984375,-9.521484375,7.080077648162842,-8.4228515625
2653288,0.062255859375,0.158447265625,0.3072509765625,-0.7324218153953552,6.042479991912842,-8.97216796875
2653310,0.064208984375,0.280517578125,0.2615966796875,8.97216796875,5.0048828125,-8.48388671875
2653326,0.00439453125,0.16796875,-0.0400390625,14.526366233825684,4.69970703125,-8.4228515625
2653347,0.0311279296875,0.2056884765625,-0.0985107421875,15.075682640075684,6.652831554412842,-4.45556640625
2653364,0.0284423828125,0.2489013671875,0.5567626953125,15.014647483825684,6.591796398162842,4.69970703125
2653380,0.067138671875,0.4359130859375,0.58935546875,5.554198741912842,4.2724609375,-5.798339366912842
2653397,0.0743408203125,0.664794921875,0.5010986328125,11.108397483825684,2.3193359375,-8.36181640625
2653414,0.0732421875,0.7047119140625,0.5645751953125,9.58251953125,2.25830078125,-7.263183116912842
2653430,0.0953369140625,0.759521484375,0.579345703125,4.7607421875,2.25830078125,-5.310058116912842
2653460,0.08251953125,0.885986328125,0.6849365234375,11.962889671325684,0.4882812201976776,-3.479003667831421
2653482,0.0654296875,0.823486328125,0.601806640625,9.70458984375,-0.1220703050494194,-3.234863042831421
2653515,0.06005859375,0.9549560546875,0.6405029296875,11.352538108825684,-0.4882812201976776,-3.356933355331421
2653532,0.059814453125,0.9141845703125,0.649658203125,12.695311546325684,-1.03759765625,-1.5869139432907104
2653549,0.052734375,0.8441162109375,0.591064453125,12.695311546325684,-0.9765624403953552,-1.3427733182907104
2653580,0.0611572265625,0.8123779296875,0.6357421875,11.718749046325684,-0.9155272841453552,-1.6479490995407104
2653597,0.06640625,0.7740478515625,0.658203125,9.82666015625,-1.03759765625,-1.0986328125
2653613,0.069580078125,0.7412109375,0.643798828125,9.21630859375,-0.9765624403953552,-0.9765624403953552
2653646,0.084716796875,0.6785888671875,0.697509765625,2.624511480331421,-0.3662109076976776,-0.7934569716453552
2653667,0.0914306640625,0.6658935546875,0.717041015625,0.6103515625,-0.4272460639476776,-0.9155272841453552
2653683,0.096923828125,0.6947021484375,0.73583984375,0.1220703050494194,-1.15966796875,-1.2817381620407104
2653700,0.1024169921875,0.711181640625,0.74072265625,-3.356933355331421,-1.3427733182907104,-0.7934569716453552
2653717,0.1070556640625,0.737548828125,0.7352294921875,-5.126952648162842,-1.5258787870407104,-0.6713866591453552
2653733,0.111572265625,0.7421875,0.745361328125,-6.958007335662842,-1.5258787870407104,-0.4272460639476776
2653750,0.11474609375,0.7857666015625,0.743896484375,-9.521484375,-1.9531248807907104,0.1220703050494194
2653771,0.1121826171875,0.80322265625,0.7249755859375,-10.559081077575684,-2.38037109375,0.9155272841453552
2653787,0.1082763671875,0.7989501953125,0.7041015625,-12.390135765075684,-2.3193359375,1.4648436307907104
2653819,0.1080322265625,0.808837890625,0.7103271484375,-13.732909202575684,-2.38037109375,1.8920897245407104
2653836,0.1058349609375,0.8106689453125,0.71240234375,-13.854979515075684,-2.624511480331421,2.13623046875
2653857,0.1048583984375,0.805908203125,0.7083740234375,-13.854979515075684,-2.685546636581421,2.38037109375
2653873,0.10009765625,0.75927734375,0.7003173828125,-14.343260765075684,-2.868652105331421,2.624511480331421
2653890,0.09375,0.7274169921875,0.6904296875,-14.404295921325684,-2.929687261581421,2.25830078125
2653907,0.0931396484375,0.7435302734375,0.68798828125,-14.648436546325684,-2.990722417831421,2.01416015625
2653940,0.087890625,0.728515625,0.65185546875,-13.732909202575684,-3.417968511581421,1.9531248807907104
2653956,0.0845947265625,0.736083984375,0.6470947265625,-12.695311546325684,-3.540038824081421,1.4038084745407104
2653972,0.0858154296875,0.752197265625,0.6494140625,-12.084959983825684,-3.723144292831421,1.4038084745407104
2654000,0.0897216796875,0.7718505859375,0.617431640625,-9.765625,-3.845214605331421,1.220703125
2654022,0.088134765625,0.7803955078125,0.6112060546875,-7.873534679412842,-3.784179449081421,0.9155272841453552
2654038,0.0892333984375,0.8056640625,0.6219482421875,-6.835937023162842,-3.784179449081421,0.7324218153953552
2654055,0.092529296875,0.821533203125,0.6220703125,-4.39453125,-4.0283203125,0.6103515625
2654072,0.09326171875,0.8289794921875,0.6116943359375,-1.8310545682907104,-4.150390625,0.6103515625
2654089,0.092529296875,0.8243408203125,0.619873046875,0.7934569716453552,-4.21142578125,0.6103515625
2654121,0.0888671875,0.802734375,0.6026611328125,4.39453125,-4.5166015625,0.2441406100988388
2654143,0.08984375,0.8096923828125,0.6043701171875,6.774901866912842,-4.39453125,-0.1831054538488388
2654159,0.0924072265625,0.8255615234375,0.6240234375,7.995604991912842,-4.39453125,-0.1831054538488388
2654179,0.092529296875,0.822021484375,0.629638671875,10.131834983825684,-4.638671875,0.1220703050494194
2654195,0.0914306640625,0.790283203125,0.6024169921875,11.779784202575684,-4.94384765625,0.1831054538488388
2654212,0.0902099609375,0.784912109375,0.5926513671875,13.244627952575684,-4.8828125,-0.2441406100988388
2654244,0.0931396484375,0.8062744140625,0.607666015625,15.502928733825684,-4.82177734375,-0.4882812201976776
2654260,0.0933837890625,0.8111572265625,0.605712890625,17.08984375,-5.065917491912842,-0.1831054538488388
2654276,0.089111328125,0.7930908203125,0.5906982421875,17.822265625,-5.065917491912842,-0.1220703050494194
2654292,0.0875244140625,0.7962646484375,0.5892333984375,19.1650390625,-5.065917491912842,-0.2441406100988388
2654312,0.0849609375,0.80615234375,0.60498046875,20.324705123901367,-5.065917491912842,-0.2441406100988388
2654328,0.0806884765625,0.8076171875,0.60888671875,21.240232467651367,-5.187987804412842,0.0
2654344,0.0772705078125,0.798583984375,0.6025390625,21.667478561401367,-5.126952648162842,0.0
2654360,0.07177734375,0.78662109375,0.613525390625,22.033689498901367,-4.8828125,-0.1220703050494194
2654376,0.0689697265625,0.7921142578125,0.63232421875,22.155759811401367,-4.8828125,-0.1831054538488388
2654424,0.06494140625,0.7872314453125,0.63427734375,21.667478561401367,-4.638671875,-0.0610351525247097
2654440,0.0628662109375,0.7877197265625,0.6558837890625,20.751951217651367,-4.45556640625,0.1831054538488388
2654456,0.06005859375,0.76611328125,0.65869140625,20.080564498901367,-4.45556640625,0.3662109076976776
2654472,0.0596923828125,0.7515869140625,0.656982421875,18.4326171875,-4.2724609375,0.2441406100988388
2654543,0.0662841796875,0.7174072265625,0.6591796875,11.230467796325684,-3.601073980331421,1.220703125
2654560,0.0670166015625,0.7174072265625,0.66357421875,10.070799827575684,-3.356933355331421,1.0986328125
2654576,0.069580078125,0.7271728515625,0.6759033203125,7.995604991912842,-2.990722417831421,1.0986328125
2654593,0.0750732421875,0.7445068359375,0.6910400390625,6.347655773162842,-2.868652105331421,1.4648436307907104
2654614,0.0772705078125,0.742431640625,0.693359375,4.8828125,-2.746581792831421,1.8920897245407104
2654630,0.0711669921875,0.719482421875,0.6875,3.784179449081421,-2.44140625,1.9531248807907104
2654662,0.06201171875,0.716552734375,0.68994140625,2.685546636581421,-2.0751953125,1.7700194120407104
2654710,0.0472412109375,0.678955078125,0.6689453125,1.5258787870407104,-1.6479490995407104,1.9531248807907104
2654732,0.040771484375,0.6800537109375,0.6612548828125,1.3427733182907104,-1.5258787870407104,1.8310545682907104
2654749,0.0361328125,0.6810302734375,0.6539306640625,1.0986328125,-1.2817381620407104,1.7089842557907104
2654779,0.0341796875,0.6378173828125,0.622802734375,0.6103515625,-1.3427733182907104,2.0751953125
2654795,0.0328369140625,0.6043701171875,0.5997314453125,-0.7934569716453552,-1.220703125,2.197265625
2654812,0.029052734375,0.55224609375,0.561767578125,-2.929687261581421,-0.4882812201976776,1.6479490995407104
2654840,0.020751953125,0.5625,0.5635986328125,-6.896972179412842,0.2441406100988388,0.9765624403953552
2654862,0.0159912109375,0.574951171875,0.5654296875,-8.1787109375,0.4882812201976776,0.7324218153953552
2654878,0.0211181640625,0.63427734375,0.5889892578125,-10.375975608825684,0.9765624403953552,0.3662109076976776
2654895,0.028076171875,0.695068359375,0.60693359375,-11.657713890075684,1.2817381620407104,0.54931640625
2654913,0.0311279296875,0.7244873046875,0.6236572265625,-12.207030296325684,1.4648436307907104,0.6713866591453552
2654929,0.04052734375,0.7845458984375,0.6748046875,-13.244627952575684,2.01416015625,0.4272460639476776
2654963,0.041259765625,0.7967529296875,0.7076416015625,-14.648436546325684,1.7089842557907104,1.6479490995407104
2655031,0.0567626953125,0.89990234375,0.8214111328125,-17.76123046875,2.50244140625,1.4648436307907104
2655047,0.0552978515625,0.89404296875,0.811767578125,-17.9443359375,2.3193359375,1.6479490995407104
2655063,0.0570068359375,0.8919677734375,0.7818603515625,-17.63916015625,2.624511480331421,1.5258787870407104
2655079,0.0638427734375,0.91357421875,0.775634765625,-17.2119140625,2.685546636581421,1.4648436307907104
2655096,0.0670166015625,0.9134521484375,0.7745361328125,-16.4794921875,2.563476324081421,1.8310545682907104
2655117,0.0650634765625,0.86474609375,0.738037109375,-15.319823265075684,2.25830078125,2.197265625
2655133,0.05908203125,0.8031005859375,0.686767578125,-14.953612327575684,2.25830078125,2.13623046875
2655150,0.0552978515625,0.764404296875,0.64453125,-14.038084983825684,2.38037109375,1.7700194120407104
2655167,0.0548095703125,0.7457275390625,0.625732421875,-12.756346702575684,2.50244140625,1.4648436307907104
2655200,0.06103515625,0.710205078125,0.58544921875,-10.314940452575684,2.868652105331421,0.6713866591453552
2655216,0.0618896484375,0.7174072265625,0.5821533203125,-9.46044921875,2.868652105331421,0.4882812201976776
2655236,0.0623779296875,0.73681640625,0.5784912109375,-7.446288585662842,2.929687261581421,0.30517578125
2655256,0.06591796875,0.7681884765625,0.589111328125,-5.249022960662842,3.112792730331421,0.0610351525247097
2655310,0.077880859375,0.8397216796875,0.6295166015625,1.8310545682907104,2.685546636581421,0.4272460639476776
2655330,0.0784912109375,0.843994140625,0.6348876953125,4.21142578125,2.50244140625,0.54931640625
2655346,0.0771484375,0.8331298828125,0.6365966796875,5.859374523162842,2.3193359375,0.7324218153953552
2655363,0.07568359375,0.8050537109375,0.635986328125,6.408690929412842,2.25830078125,0.9155272841453552
2655378,0.0738525390625,0.787841796875,0.6336669921875,6.774901866912842,2.0751953125,1.0986328125
2655395,0.0684814453125,0.757568359375,0.63134765625,6.286620616912842,2.0751953125,1.15966796875
2655411,0.0634765625,0.7198486328125,0.61279296875,5.554198741912842,2.0751953125,1.220703125
2655440,0.06103515625,0.6937255859375,0.592041015625,5.0048828125,2.13623046875,0.9765624403953552
2655462,0.058349609375,0.687744140625,0.581298828125,4.7607421875,2.13623046875,1.0986328125
2655478,0.0531005859375,0.6612548828125,0.562744140625,4.638671875,2.0751953125,1.4038084745407104
2655495,0.046142578125,0.6043701171875,0.5260009765625,4.45556640625,1.9531248807907104,1.5869139432907104
2655512,0.0469970703125,0.5826416015625,0.52294921875,3.845214605331421,2.25830078125,1.3427733182907104
2655529,0.046630859375,0.5673828125,0.515625,2.929687261581421,2.0751953125,1.4038084745407104
2655560,0.0526123046875,0.5689697265625,0.5057373046875,0.8544921278953552,2.25830078125,1.4648436307907104
2655582,0.052978515625,0.574462890625,0.499755859375,-0.9155272841453552,2.197265625,1.5869139432907104
2655598,0.05322265625,0.5767822265625,0.50048828125,-2.807616949081421,2.13623046875,1.8310545682907104
2655615,0.0491943359375,0.5841064453125,0.503173828125,-3.784179449081421,2.25830078125,1.9531248807907104
2655633,0.0477294921875,0.5994873046875,0.5101318359375,-5.798339366912842,2.25830078125,2.0751953125
2655649,0.047119140625,0.6009521484375,0.5098876953125,-7.446288585662842,2.25830078125,2.3193359375
2655680,0.0452880859375,0.6107177734375,0.5181884765625,-9.6435546875,2.197265625,2.38037109375
2655702,0.0445556640625,0.6160888671875,0.519287109375,-10.681151390075684,2.0751953125,2.3193359375
2655718,0.0408935546875,0.6263427734375,0.515380859375,-11.230467796325684,2.13623046875,2.01416015625
2655735,0.04736328125,0.6727294921875,0.52978515625,-11.352538108825684,2.13623046875,1.7700194120407104
2655752,0.0535888671875,0.709716796875,0.554931640625,-11.047362327575684,2.13623046875,1.7089842557907104
2655768,0.0538330078125,0.7283935546875,0.5572509765625,-10.009765625,1.6479490995407104,1.8920897245407104
2655799,0.0438232421875,0.7177734375,0.5196533203125,-8.056640625,1.0986328125,2.197265625
2655816,0.0419921875,0.7135009765625,0.516845703125,-6.713866710662842,1.0986328125,1.9531248807907104
