tMillis,ax,ay,az,gx,gy,gz
2738208,-0.0069580078125,0.6536865234375,-0.7281494140625,0.7934569716453552,-0.2441406100988388,0.1831054538488388
2738224,-0.00634765625,0.654052734375,-0.7288818359375,0.7324218153953552,-0.2441406100988388,0.1831054538488388
2738241,-0.00537109375,0.65625,-0.7305908203125,0.7324218153953552,-0.2441406100988388,0.1831054538488388
2738258,-0.0048828125,0.655517578125,-0.7303466796875,0.7934569716453552,-0.2441406100988388,0.1831054538488388
2738274,-0.0076904296875,0.655029296875,-0.730712890625,0.7934569716453552,-0.2441406100988388,0.2441406100988388
2738308,-0.005859375,0.653564453125,-0.72802734375,0.7324218153953552,-0.2441406100988388,0.2441406100988388
2738324,-0.004638671875,0.6541748046875,-0.728515625,0.7934569716453552,-0.30517578125,0.2441406100988388
2738340,-0.0069580078125,0.6544189453125,-0.7283935546875,0.7934569716453552,-0.1831054538488388,0.2441406100988388
2738356,-0.007568359375,0.654541015625,-0.728759765625,0.7934569716453552,-0.1831054538488388,0.2441406100988388
2738376,-0.0059814453125,0.654296875,-0.729248046875,0.7324218153953552,-0.2441406100988388,0.2441406100988388
2738392,-0.0052490234375,0.6546630859375,-0.73046875,0.7324218153953552,-0.30517578125,0.2441406100988388
2738408,-0.006103515625,0.6553955078125,-0.7310791015625,0.7324218153953552,-0.2441406100988388,0.2441406100988388
2738424,-0.0067138671875,0.6534423828125,-0.7291259765625,0.7934569716453552,-0.2441406100988388,0.30517578125
2738440,-0.006591796875,0.654296875,-0.729736328125,0.7934569716453552,-0.2441406100988388,0.30517578125
2738456,-0.006591796875,0.6549072265625,-0.729736328125,0.7934569716453552,-0.30517578125,0.1831054538488388
2738489,-0.0067138671875,0.6544189453125,-0.73046875,0.7934569716453552,-0.30517578125,0.30517578125
2738510,-0.0072021484375,0.654296875,-0.7303466796875,0.8544921278953552,-0.30517578125,0.2441406100988388
2738526,-0.0040283203125,0.651123046875,-0.7266845703125,0.7324218153953552,-0.2441406100988388,0.30517578125
2738541,-0.00634765625,0.65478515625,-0.729736328125,0.7324218153953552,-0.2441406100988388,0.30517578125
2738558,-0.008056640625,0.656494140625,-0.73046875,0.7324218153953552,-0.2441406100988388,0.30517578125
2738575,-0.00634765625,0.6522216796875,-0.72705078125,0.7934569716453552,-0.2441406100988388,0.30517578125
2738607,-0.00537109375,0.6627197265625,-0.7373046875,0.7934569716453552,-0.1831054538488388,0.2441406100988388
2738624,-0.007568359375,0.6490478515625,-0.72314453125,0.7934569716453552,-0.1831054538488388,0.3662109076976776
2738640,-0.007080078125,0.6575927734375,-0.7330322265625,0.7934569716453552,-0.2441406100988388,0.2441406100988388
2738656,-0.0084228515625,0.661376953125,-0.7371826171875,0.7934569716453552,-0.2441406100988388,0.1220703050494194
2738676,-0.00390625,0.644775390625,-0.7197265625,0.7324218153953552,-0.1831054538488388,0.2441406100988388
2738724,-0.00830078125,0.6519775390625,-0.7261962890625,0.6713866591453552,-0.2441406100988388,0.30517578125
2738740,-0.003173828125,0.6556396484375,-0.731689453125,0.6713866591453552,-0.2441406100988388,0.3662109076976776
2738756,-0.0023193359375,0.6524658203125,-0.728759765625,0.7324218153953552,-0.1831054538488388,0.3662109076976776
2738788,-0.009765625,0.658447265625,-0.732421875,0.7324218153953552,-0.1831054538488388,0.2441406100988388
2738804,-0.0059814453125,0.6531982421875,-0.728515625,0.6713866591453552,-0.2441406100988388,0.1831054538488388
2738820,-0.0045166015625,0.6536865234375,-0.7296142578125,0.6713866591453552,-0.2441406100988388,0.1831054538488388
2738836,-0.004638671875,0.655029296875,-0.72998046875,0.7324218153953552,-0.2441406100988388,0.30517578125
2738861,-0.0089111328125,0.6541748046875,-0.7275390625,0.7324218153953552,-0.2441406100988388,0.2441406100988388
2738877,-0.00927734375,0.655029296875,-0.7286376953125,0.6713866591453552,-0.2441406100988388,0.1831054538488388
2738894,-0.00439453125,0.6544189453125,-0.7293701171875,0.6713866591453552,-0.1831054538488388,0.2441406100988388
2738944,-0.007568359375,0.6549072265625,-0.7296142578125,0.6713866591453552,-0.2441406100988388,0.2441406100988388
2738977,-0.0042724609375,0.653076171875,-0.729248046875,0.7324218153953552,-0.2441406100988388,0.2441406100988388
2738994,-0.0069580078125,0.65380859375,-0.7281494140625,0.7324218153953552,-0.30517578125,0.30517578125
2739027,-0.0067138671875,0.65576171875,-0.7310791015625,0.7934569716453552,-0.2441406100988388,0.2441406100988388
2739100,-0.007568359375,0.6558837890625,-0.7291259765625,0.7324218153953552,-0.1831054538488388,0.2441406100988388
2739117,-0.0068359375,0.6536865234375,-0.7298583984375,0.7324218153953552,-0.2441406100988388,0.2441406100988388
2739150,-0.005615234375,0.6544189453125,-0.72998046875,0.7324218153953552,-0.30517578125,0.2441406100988388
2739214,-0.0052490234375,0.654296875,-0.7294921875,0.6713866591453552,-0.2441406100988388,0.1831054538488388
2739235,-0.005859375,0.65380859375,-0.729248046875,0.7324218153953552,-0.2441406100988388,0.2441406100988388
2739256,-0.0076904296875,0.6502685546875,-0.7252197265625,0.7934569716453552,-0.2441406100988388,0.1831054538488388
2739272,-0.005859375,0.66357421875,-0.7398681640625,0.7324218153953552,-0.30517578125,0.1831054538488388
2739289,-0.0057373046875,0.6566162109375,-0.73193359375,0.7934569716453552,-0.30517578125,0.1831054538488388
2739322,-0.0076904296875,0.6546630859375,-0.7291259765625,0.7324218153953552,-0.30517578125,0.1831054538488388
2739339,-0.0048828125,0.6553955078125,-0.733642578125,0.7324218153953552,-0.30517578125,0.2441406100988388
2739360,-0.005859375,0.6552734375,-0.7315673828125,0.7324218153953552,-0.30517578125,0.2441406100988388
2739376,-0.0068359375,0.6552734375,-0.7298583984375,0.7324218153953552,-0.2441406100988388,0.2441406100988388
2739393,-0.0059814453125,0.6546630859375,-0.7293701171875,0.7324218153953552,-0.2441406100988388,0.2441406100988388
2739410,-0.005615234375,0.6551513671875,-0.731201171875,0.7324218153953552,-0.2441406100988388,0.2441406100988388
2739443,-0.00634765625,0.6551513671875,-0.728515625,0.7324218153953552,-0.30517578125,0.1831054538488388
2739460,-0.006103515625,0.655029296875,-0.728759765625,0.7934569716453552,-0.30517578125,0.2441406100988388
2739476,-0.005859375,0.6552734375,-0.729248046875,0.7324218153953552,-0.2441406100988388,0.2441406100988388
2739508,-0.00634765625,0.654052734375,-0.7296142578125,0.7324218153953552,-0.1831054538488388,0.2441406100988388
2739524,-0.0074462890625,0.6533203125,-0.7288818359375,0.7934569716453552,-0.30517578125,0.2441406100988388
2739540,-0.0076904296875,0.654541015625,-0.7298583984375,0.7934569716453552,-0.30517578125,0.1831054538488388
2739556,-0.0074462890625,0.6556396484375,-0.73046875,0.7324218153953552,-0.30517578125,0.1831054538488388
2739576,-0.0064697265625,0.6551513671875,-0.7291259765625,0.7934569716453552,-0.2441406100988388,0.1831054538488388
2739598,-0.0067138671875,0.6561279296875,-0.7286376953125,0.7934569716453552,-0.2441406100988388,0.2441406100988388
2739614,-0.0062255859375,0.6534423828125,-0.7291259765625,0.7324218153953552,-0.2441406100988388,0.2441406100988388
2739631,-0.006103515625,0.653564453125,-0.73046875,0.7324218153953552,-0.30517578125,0.1831054538488388
2739648,-0.006591796875,0.654052734375,-0.7305908203125,0.7324218153953552,-0.30517578125,0.1220703050494194
2739681,-0.007080078125,0.655517578125,-0.7291259765625,0.7324218153953552,-0.2441406100988388,0.2441406100988388
2739698,-0.0069580078125,0.6558837890625,-0.7301025390625,0.7324218153953552,-0.30517578125,0.2441406100988388
2739714,-0.0072021484375,0.654541015625,-0.7296142578125,0.7324218153953552,-0.30517578125,0.2441406100988388
2739747,-0.00537109375,0.6561279296875,-0.7303466796875,0.7324218153953552,-0.1831054538488388,0.2441406100988388
2739768,-0.0054931640625,0.655029296875,-0.728759765625,0.6713866591453552,-0.2441406100988388,0.2441406100988388
2739784,-0.0062255859375,0.6536865234375,-0.728515625,0.7324218153953552,-0.1831054538488388,0.30517578125
2739801,-0.006591796875,0.654541015625,-0.7293701171875,0.6713866591453552,-0.2441406100988388,0.3662109076976776
2739818,-0.0074462890625,0.6529541015625,-0.7281494140625,0.7324218153953552,-0.2441406100988388,0.3662109076976776
2739834,-0.0059814453125,0.65380859375,-0.7276611328125,0.7324218153953552,-0.1831054538488388,0.30517578125
2739884,-0.0081787109375,0.6539306640625,-0.7296142578125,0.6713866591453552,-0.2441406100988388,0.2441406100988388
2739936,-0.0068359375,0.654541015625,-0.728515625,0.6713866591453552,-0.30517578125,0.30517578125
2739953,-0.0084228515625,0.654541015625,-0.729736328125,0.6103515625,-0.2441406100988388,0.1831054538488388
2739986,-0.00634765625,0.655029296875,-0.7276611328125,0.6713866591453552,-0.2441406100988388,0.2441406100988388
2740019,-0.0069580078125,0.6552734375,-0.730224609375,0.6713866591453552,-0.2441406100988388,0.2441406100988388
2740062,-0.0072021484375,0.65380859375,-0.728271484375,0.6713866591453552,-0.1831054538488388,0.1831054538488388
2740079,-0.0069580078125,0.6541748046875,-0.7294921875,0.7324218153953552,-0.1831054538488388,0.1831054538488388
2740096,-0.0072021484375,0.653076171875,-0.7276611328125,0.7324218153953552,-0.2441406100988388,0.1831054538488388
2740112,-0.0062255859375,0.65673828125,-0.7310791015625,0.7324218153953552,-0.2441406100988388,0.1831054538488388
2740129,-0.0048828125,0.653076171875,-0.7275390625,0.7324218153953552,-0.2441406100988388,0.1831054538488388
2740162,-0.0081787109375,0.6551513671875,-0.7303466796875,0.7324218153953552,-0.30517578125,0.1831054538488388
2740184,-0.006591796875,0.6480712890625,-0.7222900390625,0.7324218153953552,-0.3662109076976776,0.1220703050494194
2740200,-0.00732421875,0.6602783203125,-0.7373046875,0.7324218153953552,-0.3662109076976776,0.1220703050494194
2740217,-0.0042724609375,0.6632080078125,-0.7393798828125,0.7324218153953552,-0.30517578125,0.1831054538488388
2740234,-0.0047607421875,0.64794921875,-0.720947265625,0.7934569716453552,-0.3662109076976776,0.1220703050494194
2740250,-0.0089111328125,0.64990234375,-0.7232666015625,0.7934569716453552,-0.4272460639476776,0.1831054538488388
2740284,-0.0025634765625,0.6546630859375,-0.731201171875,0.7934569716453552,-0.2441406100988388,0.1220703050494194
2740300,-0.0087890625,0.6566162109375,-0.730224609375,0.7934569716453552,-0.2441406100988388,0.1831054538488388
2740316,-0.00732421875,0.6563720703125,-0.7303466796875,0.7934569716453552,-0.30517578125,0.1831054538488388
2740348,-0.00439453125,0.6556396484375,-0.7320556640625,0.7934569716453552,-0.30517578125,0.1831054538488388
2740364,-0.00732421875,0.6561279296875,-0.7310791015625,0.8544921278953552,-0.30517578125,0.1831054538488388
2740380,-0.0074462890625,0.654541015625,-0.727783203125,0.8544921278953552,-0.30517578125,0.2441406100988388
2740396,-0.0032958984375,0.6546630859375,-0.7305908203125,0.7934569716453552,-0.30517578125,0.1831054538488388
2740416,-0.0037841796875,0.655029296875,-0.7298583984375,0.8544921278953552,-0.2441406100988388,0.2441406100988388
2740437,-0.0072021484375,0.6549072265625,-0.727294921875,0.8544921278953552,-0.2441406100988388,0.30517578125
2740453,-0.0078125,0.654052734375,-0.72900390625,0.7324218153953552,-0.30517578125,0.1831054538488388
2740470,-0.0054931640625,0.654541015625,-0.72998046875,0.7934569716453552,-0.30517578125,0.2441406100988388
2740487,-0.005126953125,0.65283203125,-0.728271484375,0.8544921278953552,-0.30517578125,0.30517578125
2740520,-0.00537109375,0.6551513671875,-0.7291259765625,0.7934569716453552,-0.2441406100988388,0.1831054538488388
2740537,-0.005859375,0.6544189453125,-0.7301025390625,0.7324218153953552,-0.2441406100988388,0.2441406100988388
2740553,-0.0067138671875,0.6553955078125,-0.730224609375,0.7934569716453552,-0.2441406100988388,0.30517578125
2740585,-0.0067138671875,0.65478515625,-0.72802734375,0.7324218153953552,-0.2441406100988388,0.2441406100988388
2740606,-0.0064697265625,0.6624755859375,-0.7391357421875,0.7934569716453552,-0.30517578125,0.2441406100988388
2740622,-0.00634765625,0.6529541015625,-0.7264404296875,0.7934569716453552,-0.30517578125,0.2441406100988388
2740639,-0.004150390625,0.65234375,-0.725341796875,0.7324218153953552,-0.2441406100988388,0.3662109076976776
2740656,-0.0048828125,0.6573486328125,-0.7303466796875,0.7324218153953552,-0.2441406100988388,0.30517578125
2740672,-0.0084228515625,0.6533203125,-0.7276611328125,0.7934569716453552,-0.1831054538488388,0.30517578125
2740713,-0.00390625,0.6558837890625,-0.7301025390625,0.6713866591453552,-0.30517578125,0.2441406100988388
2740730,-0.0057373046875,0.6539306640625,-0.7275390625,0.7324218153953552,-0.2441406100988388,0.30517578125
2740746,-0.00732421875,0.6546630859375,-0.728271484375,0.6713866591453552,-0.2441406100988388,0.30517578125
2740762,-0.0078125,0.65625,-0.7313232421875,0.6713866591453552,-0.2441406100988388,0.2441406100988388
2740784,-0.0074462890625,0.6549072265625,-0.7283935546875,0.7324218153953552,-0.2441406100988388,0.2441406100988388
2740800,-0.0059814453125,0.6541748046875,-0.7286376953125,0.6713866591453552,-0.2441406100988388,0.2441406100988388
2740817,-0.0052490234375,0.6539306640625,-0.7276611328125,0.6713866591453552,-0.30517578125,0.1831054538488388
2740834,-0.0064697265625,0.6549072265625,-0.7291259765625,0.6103515625,-0.30517578125,0.2441406100988388
2740850,-0.0076904296875,0.6546630859375,-0.7308349609375,0.6103515625,-0.30517578125,0.2441406100988388
2740883,-0.006103515625,0.654296875,-0.7298583984375,0.7324218153953552,-0.30517578125,0.2441406100988388
2740953,-0.0078125,0.65771484375,-0.7340087890625,0.6713866591453552,-0.30517578125,0.1831054538488388
2740969,-0.0074462890625,0.6583251953125,-0.733642578125,0.7324218153953552,-0.2441406100988388,0.2441406100988388
2740986,-0.0069580078125,0.6597900390625,-0.7347412109375,0.7934569716453552,-0.2441406100988388,0.1220703050494194
2741003,-0.0069580078125,0.6507568359375,-0.7235107421875,0.7324218153953552,-0.2441406100988388,0.1220703050494194
2741019,-0.0087890625,0.656005859375,-0.7303466796875,0.6713866591453552,-0.30517578125,0.1220703050494194
2741036,-0.008056640625,0.6590576171875,-0.7352294921875,0.7324218153953552,-0.30517578125,0.1220703050494194
2741070,-0.007568359375,0.6571044921875,-0.7310791015625,0.7324218153953552,-0.3662109076976776,0.1831054538488388
2741091,-0.00830078125,0.65673828125,-0.7310791015625,0.7934569716453552,-0.3662109076976776,0.1831054538488388
2741107,-0.0040283203125,0.65283203125,-0.7288818359375,0.7934569716453552,-0.30517578125,0.2441406100988388
2741124,-0.0048828125,0.6583251953125,-0.7335205078125,0.7324218153953552,-0.30517578125,0.2441406100988388
2741141,-0.00830078125,0.6533203125,-0.7257080078125,0.7934569716453552,-0.2441406100988388,0.2441406100988388
2741157,-0.0079345703125,0.654052734375,-0.7264404296875,0.7324218153953552,-0.30517578125,0.2441406100988388
2741174,-0.0052490234375,0.6549072265625,-0.731201171875,0.7324218153953552,-0.30517578125,0.1831054538488388
2741195,-0.0048828125,0.65380859375,-0.7298583984375,0.7934569716453552,-0.2441406100988388,0.1831054538488388
2741211,-0.0069580078125,0.6558837890625,-0.7303466796875,0.7934569716453552,-0.30517578125,0.1831054538488388
2741227,-0.007080078125,0.65625,-0.7308349609375,0.7324218153953552,-0.30517578125,0.2441406100988388
2741243,-0.0069580078125,0.6541748046875,-0.728271484375,0.6713866591453552,-0.2441406100988388,0.2441406100988388
2741260,-0.0050048828125,0.655517578125,-0.729736328125,0.6103515625,-0.2441406100988388,0.1831054538488388
2741281,-0.0048828125,0.6551513671875,-0.728271484375,0.6713866591453552,-0.2441406100988388,0.1831054538488388
2741297,-0.0078125,0.6551513671875,-0.728759765625,0.7324218153953552,-0.1831054538488388,0.2441406100988388
2741314,-0.0064697265625,0.6553955078125,-0.7301025390625,0.7324218153953552,-0.2441406100988388,0.2441406100988388
2741331,-0.006103515625,0.6539306640625,-0.7283935546875,0.6713866591453552,-0.2441406100988388,0.1831054538488388
2741364,-0.0064697265625,0.6549072265625,-0.730712890625,0.7934569716453552,-0.2441406100988388,0.2441406100988388
2741381,-0.0072021484375,0.6553955078125,-0.7291259765625,0.6713866591453552,-0.1831054538488388,0.1831054538488388
2741397,-0.0068359375,0.65625,-0.72998046875,0.6103515625,-0.2441406100988388,0.1831054538488388
2741429,-0.006591796875,0.653076171875,-0.7274169921875,0.6713866591453552,-0.30517578125,0.2441406100988388
2741445,-0.0069580078125,0.654052734375,-0.728271484375,0.7934569716453552,-0.2441406100988388,0.1831054538488388
2741461,-0.006103515625,0.6544189453125,-0.731201171875,0.7934569716453552,-0.2441406100988388,0.1831054538488388
2741477,-0.005859375,0.654296875,-0.7298583984375,0.7934569716453552,-0.2441406100988388,0.2441406100988388
2741552,-0.0054931640625,0.6544189453125,-0.7301025390625,0.7934569716453552,-0.2441406100988388,0.30517578125
2741569,-0.005126953125,0.6533203125,-0.7279052734375,0.7324218153953552,-0.2441406100988388,0.2441406100988388
2741585,-0.0054931640625,0.65478515625,-0.7279052734375,0.7324218153953552,-0.2441406100988388,0.2441406100988388
2741602,-0.005859375,0.6553955078125,-0.730224609375,0.7324218153953552,-0.30517578125,0.2441406100988388
2741618,-0.0062255859375,0.6552734375,-0.73095703125,0.7934569716453552,-0.30517578125,0.2441406100988388
2741635,-0.0064697265625,0.654541015625,-0.729248046875,0.7934569716453552,-0.2441406100988388,0.2441406100988388
2741663,-0.0064697265625,0.655517578125,-0.730712890625,0.7324218153953552,-0.2441406100988388,0.2441406100988388
2741685,-0.006103515625,0.6546630859375,-0.7296142578125,0.7934569716453552,-0.30517578125,0.2441406100988388
2741701,-0.00732421875,0.65576171875,-0.7305908203125,0.7934569716453552,-0.30517578125,0.30517578125
2741717,-0.0072021484375,0.65576171875,-0.73095703125,0.7324218153953552,-0.2441406100988388,0.2441406100988388
2741736,-0.0076904296875,0.656494140625,-0.7333984375,0.7324218153953552,-0.30517578125,0.2441406100988388
2741753,-0.005859375,0.65380859375,-0.7293701171875,0.7934569716453552,-0.2441406100988388,0.2441406100988388
2741785,-0.008544921875,0.655517578125,-0.728759765625,0.7934569716453552,-0.30517578125,0.30517578125
2741807,-0.0059814453125,0.6505126953125,-0.7242431640625,0.7934569716453552,-0.3662109076976776,0.2441406100988388
2741823,-0.0028076171875,0.656005859375,-0.730712890625,0.7934569716453552,-0.30517578125,0.1831054538488388
2741840,-0.003662109375,0.656494140625,-0.73046875,0.7324218153953552,-0.1831054538488388,0.1831054538488388
2741857,-0.0093994140625,0.6573486328125,-0.72998046875,0.7934569716453552,-0.30517578125,0.2441406100988388
2741873,-0.007568359375,0.6531982421875,-0.7276611328125,0.7324218153953552,-0.2441406100988388,0.2441406100988388
2741907,-0.0047607421875,0.65869140625,-0.7335205078125,0.7934569716453552,-0.30517578125,0.30517578125
2741923,-0.0064697265625,0.6492919921875,-0.7213134765625,0.7324218153953552,-0.2441406100988388,0.2441406100988388
2741939,-0.0078125,0.64990234375,-0.7235107421875,0.7324218153953552,-0.30517578125,0.2441406100988388
2741955,-0.0057373046875,0.6600341796875,-0.73779296875,0.7324218153953552,-0.30517578125,0.2441406100988388
2742029,-0.007080078125,0.65234375,-0.7269287109375,0.6713866591453552,-0.30517578125,0.2441406100988388
2742046,-0.007568359375,0.656494140625,-0.7320556640625,0.6713866591453552,-0.30517578125,0.2441406100988388
2742062,-0.0059814453125,0.6539306640625,-0.7286376953125,0.7324218153953552,-0.30517578125,0.2441406100988388
2742079,-0.006103515625,0.653564453125,-0.7281494140625,0.7324218153953552,-0.2441406100988388,0.1831054538488388
2742096,-0.0064697265625,0.6571044921875,-0.7322998046875,0.7324218153953552,-0.30517578125,0.30517578125
2742112,-0.0069580078125,0.6551513671875,-0.7288818359375,0.7324218153953552,-0.2441406100988388,0.30517578125
2742144,-0.0057373046875,0.6551513671875,-0.7301025390625,0.7324218153953552,-0.30517578125,0.2441406100988388
2742160,-0.005615234375,0.65478515625,-0.72900390625,0.7324218153953552,-0.30517578125,0.30517578125
2742176,-0.00634765625,0.6556396484375,-0.7301025390625,0.6713866591453552,-0.2441406100988388,0.2441406100988388
2742204,-0.007568359375,0.6551513671875,-0.7296142578125,0.6713866591453552,-0.30517578125,0.1831054538488388
2742226,-0.007568359375,0.6533203125,-0.7281494140625,0.6713866591453552,-0.30517578125,0.1831054538488388
2742242,-0.0057373046875,0.65380859375,-0.7286376953125,0.7324218153953552,-0.30517578125,0.1831054538488388
2742259,-0.005615234375,0.6563720703125,-0.73095703125,0.7934569716453552,-0.2441406100988388,0.1831054538488388
2742276,-0.00732421875,0.6553955078125,-0.7291259765625,0.7934569716453552,-0.30517578125,0.2441406100988388
2742292,-0.0069580078125,0.6546630859375,-0.729248046875,0.7324218153953552,-0.30517578125,0.2441406100988388
2742326,-0.007568359375,0.6534423828125,-0.727783203125,0.7934569716453552,-0.2441406100988388,0.2441406100988388
2742392,-0.0068359375,0.65673828125,-0.7264404296875,0.6103515625,-0.1831054538488388,0.2441406100988388
2742414,-0.00537109375,0.6549072265625,-0.7235107421875,0.3662109076976776,-0.1831054538488388,0.30517578125
2742430,-0.00634765625,0.656005859375,-0.7264404296875,0.0610351525247097,-0.30517578125,0.30517578125
2742451,-0.00830078125,0.6553955078125,-0.7330322265625,0.1831054538488388,-0.2441406100988388,0.2441406100988388
2742468,-0.0076904296875,0.652099609375,-0.7308349609375,0.2441406100988388,-0.3662109076976776,0.30517578125
2742484,-0.0052490234375,0.6553955078125,-0.728515625,0.1831054538488388,-0.2441406100988388,0.1831054538488388
2742501,-0.0057373046875,0.6517333984375,-0.7298583984375,0.1831054538488388,-0.30517578125,0.30517578125
2742519,-0.0072021484375,0.655517578125,-0.7274169921875,0.2441406100988388,-0.2441406100988388,0.30517578125
2742535,-0.007080078125,0.6529541015625,-0.7318115234375,0.30517578125,-0.1831054538488388,0.30517578125
2742567,-0.007568359375,0.6522216796875,-0.731201171875,0.4272460639476776,-0.1831054538488388,0.30517578125
2742635,-0.0062255859375,0.6536865234375,-0.72900390625,0.54931640625,-0.30517578125,0.1831054538488388
2742651,-0.006591796875,0.6541748046875,-0.7269287109375,0.4882812201976776,-0.30517578125,0.30517578125
2742667,-0.005859375,0.651611328125,-0.7310791015625,0.4272460639476776,-0.30517578125,0.1220703050494194
2742683,-0.004638671875,0.6553955078125,-0.7308349609375,0.4882812201976776,-0.30517578125,0.1220703050494194
2742700,-0.0062255859375,0.6546630859375,-0.7293701171875,0.30517578125,-0.2441406100988388,0.1831054538488388
2742721,-0.00634765625,0.652587890625,-0.7271728515625,0.1220703050494194,-0.4272460639476776,0.1220703050494194
2742737,-0.00634765625,0.6541748046875,-0.732421875,0.1220703050494194,-0.4882812201976776,0.0610351525247097
2742754,-0.00634765625,0.6527099609375,-0.7322998046875,0.1220703050494194,-0.3662109076976776,0.1220703050494194
2742771,-0.00537109375,0.658203125,-0.7239990234375,-0.1220703050494194,-0.1831054538488388,0.30517578125
2742804,-0.009765625,0.6531982421875,-0.732421875,-0.54931640625,-0.1831054538488388,0.30517578125
2742820,-0.0059814453125,0.6497802734375,-0.735107421875,-0.54931640625,-0.2441406100988388,0.3662109076976776
2742836,-0.003173828125,0.651123046875,-0.7332763671875,-0.3662109076976776,-0.1831054538488388,0.3662109076976776
2742864,-0.008544921875,0.6517333984375,-0.7335205078125,-0.0610351525247097,-0.1831054538488388,0.30517578125
2742886,-0.0084228515625,0.64794921875,-0.7362060546875,0.4882812201976776,-0.3662109076976776,0.30517578125
2742902,-0.005126953125,0.645751953125,-0.7374267578125,1.03759765625,-0.30517578125,0.2441406100988388
2742919,-0.00634765625,0.6485595703125,-0.7381591796875,1.220703125,-0.30517578125,0.2441406100988388
2742936,-0.008056640625,0.652099609375,-0.7301025390625,1.6479490995407104,-0.2441406100988388,0.1220703050494194
2742952,-0.00830078125,0.6500244140625,-0.7327880859375,1.8920897245407104,-0.3662109076976776,0.1831054538488388
2742984,-0.0084228515625,0.65087890625,-0.7325439453125,1.8920897245407104,-0.30517578125,0.2441406100988388
2743006,-0.00927734375,0.6519775390625,-0.7275390625,1.8920897245407104,-0.30517578125,0.2441406100988388
2743022,-0.0072021484375,0.655517578125,-0.728759765625,1.7700194120407104,-0.2441406100988388,0.1831054538488388
2743043,-0.00439453125,0.65625,-0.725830078125,1.4648436307907104,-0.2441406100988388,0.30517578125
2743096,-0.005859375,0.657958984375,-0.726318359375,0.8544921278953552,-0.1831054538488388,0.1831054538488388
2743117,-0.0054931640625,0.653564453125,-0.7325439453125,0.54931640625,-0.3662109076976776,0.2441406100988388
2743138,-0.0054931640625,0.6551513671875,-0.73095703125,0.6103515625,-0.4272460639476776,0.2441406100988388
2743154,-0.0079345703125,0.6512451171875,-0.7349853515625,0.6713866591453552,-0.4272460639476776,0.2441406100988388
2743187,-0.0048828125,0.6539306640625,-0.7294921875,1.220703125,-0.2441406100988388,0.1831054538488388
2743238,-0.0084228515625,0.6539306640625,-0.7301025390625,0.9765624403953552,-0.30517578125,0.2441406100988388
2743255,-0.0079345703125,0.654296875,-0.7291259765625,0.9155272841453552,-0.2441406100988388,0.2441406100988388
2743287,-0.0052490234375,0.6519775390625,-0.729248046875,0.7934569716453552,-0.30517578125,0.2441406100988388
2743304,-0.005859375,0.653564453125,-0.7286376953125,0.7934569716453552,-0.30517578125,0.2441406100988388
2743320,-0.0086669921875,0.652099609375,-0.73486328125,0.8544921278953552,-0.1831054538488388,0.2441406100988388
2743336,-0.0057373046875,0.6519775390625,-0.7279052734375,0.8544921278953552,-0.30517578125,0.2441406100988388
2743356,-0.005126953125,0.6597900390625,-0.7298583984375,0.7934569716453552,-0.30517578125,0.1831054538488388
2743378,-0.0064697265625,0.653564453125,-0.729736328125,0.7934569716453552,-0.2441406100988388,0.30517578125
2743394,-0.0072021484375,0.656005859375,-0.7314453125,0.7324218153953552,-0.2441406100988388,0.2441406100988388
2743411,-0.005859375,0.648681640625,-0.732421875,0.7934569716453552,-0.2441406100988388,0.2441406100988388
2743428,-0.006591796875,0.6575927734375,-0.7303466796875,0.8544921278953552,-0.2441406100988388,0.1831054538488388
2743461,-0.005126953125,0.6527099609375,-0.728271484375,0.7324218153953552,-0.2441406100988388,0.30517578125
2743479,-0.0067138671875,0.6541748046875,-0.731201171875,0.7324218153953552,-0.2441406100988388,0.1831054538488388
2743495,-0.0064697265625,0.65478515625,-0.7275390625,0.7934569716453552,-0.30517578125,0.1831054538488388
2743527,-0.004638671875,0.6630859375,-0.71826171875,0.2441406100988388,-0.1220703050494194,0.30517578125
2743543,-0.010986328125,0.645751953125,-0.740234375,-0.4272460639476776,-0.30517578125,0.3662109076976776
2743559,-0.0059814453125,0.654296875,-0.7227783203125,-0.4272460639476776,-0.2441406100988388,0.2441406100988388
2743575,-0.0057373046875,0.6529541015625,-0.7347412109375,-0.4882812201976776,-0.30517578125,0.2441406100988388
2743595,-0.0025634765625,0.6640625,-0.7196044921875,-0.8544921278953552,-0.1831054538488388,0.30517578125
2743617,-0.0093994140625,0.64990234375,-0.7357177734375,-1.03759765625,-0.1831054538488388,0.2441406100988388
2743633,-0.0086669921875,0.6474609375,-0.735107421875,-0.8544921278953552,-0.30517578125,0.4272460639476776
2743650,-0.003173828125,0.65478515625,-0.730712890625,-0.8544921278953552,-0.1220703050494194,0.30517578125
2743700,-0.0084228515625,0.6466064453125,-0.736572265625,-0.6103515625,-0.1831054538488388,0.30517578125
2743716,-0.0074462890625,0.6514892578125,-0.7330322265625,-0.7324218153953552,-0.1220703050494194,0.30517578125
2743733,-0.0078125,0.6474609375,-0.7325439453125,-1.3427733182907104,-0.1831054538488388,0.4272460639476776
2743762,-0.0040283203125,0.6539306640625,-0.7332763671875,-2.0751953125,-0.1831054538488388,0.4272460639476776
2743816,-0.009765625,0.64453125,-0.7354736328125,-2.197265625,-0.0610351525247097,0.30517578125
2743842,-0.0025634765625,0.6431884765625,-0.738037109375,-2.38037109375,-0.1220703050494194,0.3662109076976776
2743859,-0.0045166015625,0.646240234375,-0.737060546875,-2.44140625,-0.1220703050494194,0.3662109076976776
2743875,-0.0108642578125,0.6475830078125,-0.7359619140625,-2.624511480331421,-0.1831054538488388,0.2441406100988388
2743896,-0.0091552734375,0.646240234375,-0.73779296875,-2.807616949081421,-0.1831054538488388,0.3662109076976776
2743912,-0.0023193359375,0.645263671875,-0.740966796875,-2.868652105331421,-0.0610351525247097,0.4272460639476776
2743929,-0.0054931640625,0.638916015625,-0.7431640625,-2.929687261581421,-0.1220703050494194,0.4272460639476776
2743946,-0.0078125,0.6412353515625,-0.7418212890625,-2.868652105331421,-0.1220703050494194,0.4882812201976776
2743967,-0.010009765625,0.6373291015625,-0.7432861328125,-2.624511480331421,-0.1220703050494194,0.4882812201976776
2743983,-0.00732421875,0.6380615234375,-0.74560546875,-2.38037109375,-0.1831054538488388,0.4272460639476776
2744000,-0.00634765625,0.630615234375,-0.7498779296875,-1.8310545682907104,-0.2441406100988388,0.3662109076976776
2744017,-0.0064697265625,0.63427734375,-0.748046875,-1.220703125,-0.30517578125,0.2441406100988388
2744033,-0.0091552734375,0.63671875,-0.748046875,-0.9765624403953552,-0.30517578125,0.1831054538488388
2744067,-0.007568359375,0.6351318359375,-0.7481689453125,-0.0610351525247097,-0.3662109076976776,0.2441406100988388
2744115,-0.01025390625,0.635986328125,-0.7476806640625,1.220703125,-0.3662109076976776,0.1831054538488388
2744137,-0.00830078125,0.63330078125,-0.7484130859375,1.7700194120407104,-0.3662109076976776,0.1220703050494194
2744154,-0.0059814453125,0.6346435546875,-0.75,2.13623046875,-0.3662109076976776,0.1220703050494194
2744187,-0.00927734375,0.637939453125,-0.7431640625,3.051757574081421,-0.4272460639476776,0.2441406100988388
2744204,-0.0078125,0.6392822265625,-0.7454833984375,3.356933355331421,-0.3662109076976776,0.1831054538488388
2744220,-0.0067138671875,0.634033203125,-0.744140625,3.662109136581421,-0.3662109076976776,0.1220703050494194
2744236,-0.0068359375,0.63623046875,-0.742431640625,3.845214605331421,-0.30517578125,0.0610351525247097
2744285,-0.005615234375,0.6427001953125,-0.7420654296875,4.45556640625,-0.4882812201976776,0.0610351525247097
2744317,-0.0067138671875,0.640625,-0.739990234375,4.638671875,-0.4272460639476776,0.1220703050494194
2744334,-0.0068359375,0.647705078125,-0.739501953125,4.69970703125,-0.3662109076976776,0.1220703050494194
2744367,-0.00732421875,0.6470947265625,-0.73388671875,4.82177734375,-0.4272460639476776,0.1220703050494194
2744384,-0.0067138671875,0.64697265625,-0.737548828125,4.82177734375,-0.3662109076976776,0.1220703050494194
2744400,-0.00634765625,0.6500244140625,-0.7342529296875,4.82177734375,-0.4272460639476776,0.0610351525247097
2744417,-0.0069580078125,0.647705078125,-0.73388671875,4.7607421875,-0.4272460639476776,0.0610351525247097
2744437,-0.0057373046875,0.6522216796875,-0.72998046875,4.69970703125,-0.3662109076976776,0.0610351525247097
2744453,-0.005859375,0.65283203125,-0.7330322265625,4.638671875,-0.4272460639476776,0.1220703050494194
2744469,-0.00634765625,0.652587890625,-0.7301025390625,4.57763671875,-0.4272460639476776,0.1831054538488388
2744485,-0.0062255859375,0.6519775390625,-0.7313232421875,4.45556640625,-0.3662109076976776,0.0
2744506,-0.005615234375,0.65576171875,-0.7291259765625,4.39453125,-0.4272460639476776,0.1220703050494194
2744526,-0.0067138671875,0.6575927734375,-0.7281494140625,4.150390625,-0.3662109076976776,0.1220703050494194
2744543,-0.0064697265625,0.6549072265625,-0.7286376953125,3.906249761581421,-0.3662109076976776,0.1220703050494194
2744560,-0.0052490234375,0.656494140625,-0.727294921875,3.845214605331421,-0.30517578125,0.1220703050494194
2744577,-0.005615234375,0.6575927734375,-0.7279052734375,3.662109136581421,-0.3662109076976776,0.1220703050494194
2744593,-0.0059814453125,0.6602783203125,-0.72607421875,3.601073980331421,-0.3662109076976776,0.1220703050494194
2744614,-0.005615234375,0.6591796875,-0.7247314453125,3.295898199081421,-0.3662109076976776,0.1831054538488388
2744630,-0.0057373046875,0.6610107421875,-0.7247314453125,3.051757574081421,-0.3662109076976776,0.1831054538488388
2744646,-0.005615234375,0.6602783203125,-0.7239990234375,2.868652105331421,-0.3662109076976776,0.1220703050494194
2744663,-0.005859375,0.6605224609375,-0.72265625,2.563476324081421,-0.30517578125,0.1831054538488388
2744679,-0.005859375,0.660400390625,-0.7242431640625,2.44140625,-0.3662109076976776,0.1831054538488388
2744695,-0.0052490234375,0.661376953125,-0.7222900390625,2.197265625,-0.3662109076976776,0.1831054538488388
2744727,-0.00537109375,0.66259765625,-0.7218017578125,1.7700194120407104,-0.30517578125,0.1831054538488388
2744743,-0.005126953125,0.6614990234375,-0.7208251953125,1.5869139432907104,-0.2441406100988388,0.1831054538488388
2744759,-0.004638671875,0.6629638671875,-0.7198486328125,1.4648436307907104,-0.30517578125,0.1831054538488388
2744775,-0.0064697265625,0.6632080078125,-0.722412109375,1.15966796875,-0.1831054538488388,0.1220703050494194
2744795,-0.0069580078125,0.6614990234375,-0.7205810546875,0.9765624403953552,-0.2441406100988388,0.2441406100988388
2744817,-0.0045166015625,0.66357421875,-0.72119140625,0.7324218153953552,-0.2441406100988388,0.1831054538488388
2744833,-0.0048828125,0.6614990234375,-0.720947265625,0.6103515625,-0.2441406100988388,0.1831054538488388
2744850,-0.0064697265625,0.6627197265625,-0.720703125,0.4272460639476776,-0.30517578125,0.1831054538488388
2744867,-0.006103515625,0.6627197265625,-0.7239990234375,0.30517578125,-0.30517578125,0.2441406100988388
2744900,-0.0047607421875,0.662109375,-0.721923828125,-0.1220703050494194,-0.1831054538488388,0.1831054538488388
2744917,-0.005126953125,0.661865234375,-0.7218017578125,-0.2441406100988388,-0.2441406100988388,0.2441406100988388
2744933,-0.0059814453125,0.6607666015625,-0.72314453125,-0.3662109076976776,-0.1831054538488388,0.30517578125
2744965,-0.005615234375,0.6614990234375,-0.7255859375,-0.4272460639476776,-0.1831054538488388,0.30517578125
2744981,-0.0045166015625,0.66064453125,-0.7232666015625,-0.54931640625,-0.2441406100988388,0.30517578125
2744997,-0.005859375,0.6591796875,-0.72412109375,-0.6103515625,-0.2441406100988388,0.2441406100988388
2745030,-0.0052490234375,0.658447265625,-0.725341796875,-0.7324218153953552,-0.1831054538488388,0.30517578125
2745051,-0.0050048828125,0.6588134765625,-0.72607421875,-0.7324218153953552,-0.2441406100988388,0.30517578125
2745067,-0.0068359375,0.658935546875,-0.72607421875,-0.7324218153953552,-0.2441406100988388,0.30517578125
2745084,-0.0062255859375,0.65869140625,-0.7288818359375,-0.6713866591453552,-0.2441406100988388,0.30517578125
2745101,-0.0050048828125,0.658935546875,-0.7286376953125,-0.6713866591453552,-0.2441406100988388,0.2441406100988388
2745117,-0.0050048828125,0.656982421875,-0.7279052734375,-0.7324218153953552,-0.2441406100988388,0.2441406100988388
2745134,-0.0067138671875,0.656982421875,-0.7276611328125,-0.6713866591453552,-0.2441406100988388,0.30517578125
2745154,-0.00634765625,0.6572265625,-0.727783203125,-0.6713866591453552,-0.2441406100988388,0.30517578125
2745170,-0.0059814453125,0.6571044921875,-0.7265625,-0.6103515625,-0.1831054538488388,0.30517578125
2745202,-0.0059814453125,0.6566162109375,-0.730224609375,-0.4882812201976776,-0.1831054538488388,0.30517578125
2745219,-0.00537109375,0.6551513671875,-0.7305908203125,-0.3662109076976776,-0.2441406100988388,0.30517578125
2745240,-0.005126953125,0.6546630859375,-0.7298583984375,-0.30517578125,-0.30517578125,0.30517578125
2745256,-0.0052490234375,0.6541748046875,-0.7293701171875,-0.2441406100988388,-0.1831054538488388,0.30517578125
2745323,-0.006103515625,0.6533203125,-0.728271484375,0.1831054538488388,-0.30517578125,0.30517578125
2745339,-0.005859375,0.6533203125,-0.7301025390625,0.30517578125,-0.30517578125,0.30517578125
2745356,-0.0062255859375,0.6546630859375,-0.732421875,0.3662109076976776,-0.1831054538488388,0.2441406100988388
2745385,-0.0054931640625,0.6544189453125,-0.729736328125,0.54931640625,-0.2441406100988388,0.2441406100988388
2745406,-0.00634765625,0.654296875,-0.7305908203125,0.6103515625,-0.2441406100988388,0.30517578125
2745423,-0.006591796875,0.6544189453125,-0.731201171875,0.7324218153953552,-0.2441406100988388,0.2441406100988388
2745440,-0.0069580078125,0.6539306640625,-0.7314453125,0.8544921278953552,-0.30517578125,0.2441406100988388
2745456,-0.005126953125,0.65380859375,-0.72900390625,0.9155272841453552,-0.2441406100988388,0.2441406100988388
2745473,-0.005615234375,0.6546630859375,-0.7298583984375,0.9765624403953552,-0.1831054538488388,0.2441406100988388
2745506,-0.0067138671875,0.6533203125,-0.7294921875,1.15966796875,-0.30517578125,0.1831054538488388
2745522,-0.0059814453125,0.6539306640625,-0.729736328125,1.220703125,-0.30517578125,0.1831054538488388
2745538,-0.005859375,0.6546630859375,-0.73046875,1.2817381620407104,-0.30517578125,0.2441406100988388
2745574,-0.006103515625,0.65673828125,-0.728759765625,1.3427733182907104,-0.2441406100988388,0.1831054538488388
2745590,-0.006591796875,0.65673828125,-0.7294921875,1.2817381620407104,-0.30517578125,0.2441406100988388
2745606,-0.005859375,0.655029296875,-0.72802734375,1.2817381620407104,-0.30517578125,0.2441406100988388
2745622,-0.006103515625,0.6551513671875,-0.7279052734375,1.2817381620407104,-0.30517578125,0.1220703050494194
2745687,-0.0059814453125,0.656494140625,-0.7296142578125,1.220703125,-0.2441406100988388,0.2441406100988388
2745708,-0.0059814453125,0.655517578125,-0.7288818359375,1.220703125,-0.1831054538488388,0.2441406100988388
2745724,-0.0064697265625,0.6561279296875,-0.729248046875,1.220703125,-0.30517578125,0.2441406100988388
2745741,-0.0068359375,0.6563720703125,-0.7271728515625,1.220703125,-0.30517578125,0.2441406100988388
2745791,-0.006103515625,0.6558837890625,-0.726806640625,1.0986328125,-0.30517578125,0.2441406100988388
2745814,-0.0068359375,0.656494140625,-0.7266845703125,1.0986328125,-0.2441406100988388,0.1831054538488388
2745831,-0.006103515625,0.6578369140625,-0.7266845703125,1.0986328125,-0.30517578125,0.1831054538488388
2745864,-0.0057373046875,0.65869140625,-0.72802734375,0.9765624403953552,-0.30517578125,0.2441406100988388
2745881,-0.0064697265625,0.65576171875,-0.7252197265625,0.9155272841453552,-0.30517578125,0.2441406100988388
2745898,-0.0062255859375,0.65869140625,-0.728271484375,0.8544921278953552,-0.2441406100988388,0.2441406100988388
2745934,-0.006103515625,0.65673828125,-0.725830078125,0.7934569716453552,-0.2441406100988388,0.1831054538488388
2745956,-0.0054931640625,0.6571044921875,-0.72705078125,0.7324218153953552,-0.2441406100988388,0.1831054538488388
2745972,-0.0054931640625,0.6563720703125,-0.7279052734375,0.6713866591453552,-0.2441406100988388,0.1831054538488388
2745993,-0.005859375,0.65673828125,-0.72705078125,0.6103515625,-0.30517578125,0.2441406100988388
2746010,-0.0064697265625,0.6566162109375,-0.7266845703125,0.54931640625,-0.30517578125,0.1831054538488388
2746026,-0.005615234375,0.656005859375,-0.72607421875,0.6103515625,-0.30517578125,0.1831054538488388
2746043,-0.0050048828125,0.6553955078125,-0.7259521484375,0.6103515625,-0.3662109076976776,0.1831054538488388
2746059,-0.0062255859375,0.6571044921875,-0.7281494140625,0.6103515625,-0.30517578125,0.2441406100988388
2746076,-0.005859375,0.65673828125,-0.727294921875,0.6103515625,-0.30517578125,0.2441406100988388
2746108,-0.0048828125,0.65625,-0.7261962890625,0.6103515625,-0.2441406100988388,0.2441406100988388
2746156,-0.0050048828125,0.6551513671875,-0.726806640625,0.54931640625,-0.30517578125,0.2441406100988388
2746178,-0.00537109375,0.6566162109375,-0.729248046875,0.6103515625,-0.2441406100988388,0.2441406100988388
2746199,-0.005615234375,0.6558837890625,-0.728271484375,0.54931640625,-0.2441406100988388,0.2441406100988388
2746219,-0.0067138671875,0.65673828125,-0.72705078125,0.4882812201976776,-0.2441406100988388,0.1831054538488388
2746236,-0.0062255859375,0.65625,-0.727783203125,0.54931640625,-0.2441406100988388,0.2441406100988388
2746253,-0.0067138671875,0.656982421875,-0.7291259765625,0.6103515625,-0.30517578125,0.1831054538488388
2746285,-0.005615234375,0.6556396484375,-0.72802734375,0.6103515625,-0.2441406100988388,0.2441406100988388
2746301,-0.006103515625,0.6568603515625,-0.7293701171875,0.6713866591453552,-0.30517578125,0.2441406100988388
2746317,-0.0047607421875,0.6551513671875,-0.7264404296875,0.6713866591453552,-0.30517578125,0.30517578125
2746349,-0.00634765625,0.656005859375,-0.727783203125,0.7324218153953552,-0.1831054538488388,0.1831054538488388
2746365,-0.006103515625,0.655029296875,-0.7274169921875,0.7934569716453552,-0.2441406100988388,0.1831054538488388
2746381,-0.0048828125,0.6552734375,-0.7286376953125,0.7934569716453552,-0.30517578125,0.2441406100988388
2746397,-0.0057373046875,0.6563720703125,-0.72998046875,0.7934569716453552,-0.2441406100988388,0.2441406100988388
2746471,-0.005615234375,0.6575927734375,-0.728515625,0.8544921278953552,-0.1831054538488388,0.1831054538488388
2746487,-0.0059814453125,0.6566162109375,-0.728271484375,0.9155272841453552,-0.30517578125,0.1831054538488388
2746504,-0.006103515625,0.656494140625,-0.7286376953125,0.8544921278953552,-0.2441406100988388,0.2441406100988388
2746521,-0.0050048828125,0.655029296875,-0.7281494140625,0.9155272841453552,-0.30517578125,0.30517578125
2746537,-0.00537109375,0.6563720703125,-0.728515625,0.9155272841453552,-0.30517578125,0.30517578125
2746554,-0.005615234375,0.6571044921875,-0.729248046875,0.7934569716453552,-0.1831054538488388,0.2441406100988388
2746587,-0.00732421875,0.6546630859375,-0.725830078125,0.8544921278953552,-0.30517578125,0.2441406100988388
2746603,-0.0068359375,0.65478515625,-0.7266845703125,0.8544921278953552,-0.30517578125,0.2441406100988388
2746655,-0.0072021484375,0.656982421875,-0.7281494140625,0.7934569716453552,-0.2441406100988388,0.2441406100988388
2746671,-0.006103515625,0.6558837890625,-0.726806640625,0.7934569716453552,-0.1831054538488388,0.2441406100988388
2746687,-0.0054931640625,0.6568603515625,-0.7283935546875,0.7934569716453552,-0.1831054538488388,0.2441406100988388
2746703,-0.00537109375,0.6568603515625,-0.728759765625,0.7324218153953552,-0.2441406100988388,0.2441406100988388
2746751,-0.0052490234375,0.6571044921875,-0.7276611328125,0.6713866591453552,-0.2441406100988388,0.30517578125
2746783,-0.00634765625,0.6561279296875,-0.726806640625,0.6713866591453552,-0.2441406100988388,0.30517578125
2746800,-0.0059814453125,0.65673828125,-0.728515625,0.6713866591453552,-0.2441406100988388,0.30517578125
2746817,-0.0059814453125,0.656494140625,-0.7286376953125,0.7324218153953552,-0.2441406100988388,0.30517578125
2746833,-0.0064697265625,0.65576171875,-0.7271728515625,0.6713866591453552,-0.2441406100988388,0.2441406100988388
2746850,-0.005615234375,0.657470703125,-0.7269287109375,0.6103515625,-0.1831054538488388,0.2441406100988388
2746883,-0.006591796875,0.6563720703125,-0.72802734375,0.6713866591453552,-0.2441406100988388,0.2441406100988388
2746899,-0.0062255859375,0.656982421875,-0.7283935546875,0.6713866591453552,-0.2441406100988388,0.1831054538488388
2746915,-0.0064697265625,0.6568603515625,-0.7279052734375,0.6713866591453552,-0.2441406100988388,0.2441406100988388
2746945,-0.0068359375,0.6575927734375,-0.72802734375,0.6713866591453552,-0.30517578125,0.2441406100988388
2746966,-0.0054931640625,0.6561279296875,-0.7275390625,0.6103515625,-0.2441406100988388,0.1831054538488388
2746982,-0.0054931640625,0.6571044921875,-0.729248046875,0.6103515625,-0.2441406100988388,0.1831054538488388
2746999,-0.0054931640625,0.6583251953125,-0.7293701171875,0.6713866591453552,-0.2441406100988388,0.30517578125
2747065,-0.0064697265625,0.6558837890625,-0.72900390625,0.7324218153953552,-0.2441406100988388,0.2441406100988388
2747082,-0.0078125,0.6552734375,-0.727294921875,0.7324218153953552,-0.2441406100988388,0.30517578125
2747098,-0.0072021484375,0.65625,-0.726806640625,0.7324218153953552,-0.30517578125,0.30517578125
2747134,-0.00537109375,0.6563720703125,-0.7286376953125,0.7324218153953552,-0.30517578125,0.2441406100988388
2747150,-0.00634765625,0.656494140625,-0.727783203125,0.7934569716453552,-0.30517578125,0.1831054538488388
2747166,-0.0069580078125,0.6556396484375,-0.72607421875,0.7934569716453552,-0.2441406100988388,0.1831054538488388
2747182,-0.00634765625,0.6553955078125,-0.7281494140625,0.7934569716453552,-0.1831054538488388,0.2441406100988388
2747199,-0.00537109375,0.6566162109375,-0.73046875,0.7934569716453552,-0.1831054538488388,0.2441406100988388
2747220,-0.005615234375,0.657470703125,-0.73046875,0.8544921278953552,-0.2441406100988388,0.1831054538488388
2747236,-0.0064697265625,0.65625,-0.7275390625,0.9155272841453552,-0.2441406100988388,0.2441406100988388
2747253,-0.007080078125,0.656982421875,-0.728271484375,0.9155272841453552,-0.2441406100988388,0.30517578125
2747270,-0.0069580078125,0.6566162109375,-0.728759765625,0.8544921278953552,-0.30517578125,0.30517578125
2747303,-0.006103515625,0.6571044921875,-0.7276611328125,0.8544921278953552,-0.2441406100988388,0.2441406100988388
2747320,-0.00537109375,0.6572265625,-0.728271484375,0.8544921278953552,-0.2441406100988388,0.2441406100988388
2747336,-0.0045166015625,0.6573486328125,-0.7274169921875,0.8544921278953552,-0.2441406100988388,0.2441406100988388
2747365,-0.0064697265625,0.6571044921875,-0.727783203125,0.7934569716453552,-0.2441406100988388,0.2441406100988388
2747386,-0.00634765625,0.656982421875,-0.7281494140625,0.8544921278953552,-0.30517578125,0.2441406100988388
2747403,-0.0057373046875,0.6563720703125,-0.7274169921875,0.9155272841453552,-0.30517578125,0.2441406100988388
2747420,-0.00537109375,0.65625,-0.7279052734375,0.7934569716453552,-0.2441406100988388,0.2441406100988388
2747436,-0.0057373046875,0.656494140625,-0.7271728515625,0.7324218153953552,-0.30517578125,0.2441406100988388
2747457,-0.00634765625,0.6568603515625,-0.726318359375,0.7324218153953552,-0.30517578125,0.1831054538488388
2747477,-0.0052490234375,0.6580810546875,-0.728515625,0.7324218153953552,-0.30517578125,0.1220703050494194
2747498,-0.005615234375,0.65673828125,-0.7269287109375,0.7934569716453552,-0.3662109076976776,0.2441406100988388
2747518,-0.0069580078125,0.656494140625,-0.727783203125,0.7324218153953552,-0.30517578125,0.2441406100988388
2747538,-0.0052490234375,0.657470703125,-0.729248046875,0.7324218153953552,-0.2441406100988388,0.1220703050494194
2747560,-0.00537109375,0.6578369140625,-0.7281494140625,0.7324218153953552,-0.30517578125,0.1220703050494194
2747580,-0.00537109375,0.6593017578125,-0.731201171875,0.7324218153953552,-0.30517578125,0.30517578125
2747596,-0.0059814453125,0.656982421875,-0.727783203125,0.7324218153953552,-0.2441406100988388,0.2441406100988388
2747613,-0.005859375,0.6573486328125,-0.7288818359375,0.6713866591453552,-0.2441406100988388,0.1831054538488388
2747630,-0.0048828125,0.6593017578125,-0.7308349609375,0.6713866591453552,-0.2441406100988388,0.2441406100988388
2747663,-0.006591796875,0.655029296875,-0.7254638671875,0.6713866591453552,-0.30517578125,0.2441406100988388
2747680,-0.005859375,0.65869140625,-0.7308349609375,0.6103515625,-0.1831054538488388,0.2441406100988388
2747696,-0.004150390625,0.6527099609375,-0.7230224609375,0.6713866591453552,-0.2441406100988388,0.30517578125
2747729,-0.0076904296875,0.6728515625,-0.7470703125,0.7324218153953552,-0.2441406100988388,0.30517578125
2747750,-0.009765625,0.6439208984375,-0.7108154296875,0.7324218153953552,-0.30517578125,0.30517578125
2747766,-0.00341796875,0.6590576171875,-0.7315673828125,0.6713866591453552,-0.2441406100988388,0.2441406100988388
2747812,-0.010986328125,0.6556396484375,-0.7266845703125,0.7324218153953552,-0.3662109076976776,0.2441406100988388
2747856,-0.0067138671875,0.6549072265625,-0.7259521484375,0.7934569716453552,-0.2441406100988388,0.1831054538488388
2747873,-0.01025390625,0.657470703125,-0.7259521484375,0.7324218153953552,-0.30517578125,0.2441406100988388
2747906,-0.003173828125,0.6551513671875,-0.727294921875,0.6713866591453552,-0.30517578125,0.1831054538488388
2747923,-0.005126953125,0.65869140625,-0.730712890625,0.6713866591453552,-0.2441406100988388,0.1831054538488388
2747939,-0.00732421875,0.6558837890625,-0.727294921875,0.7324218153953552,-0.2441406100988388,0.1831054538488388
2747956,-0.0069580078125,0.6571044921875,-0.7288818359375,0.7324218153953552,-0.2441406100988388,0.2441406100988388
2747976,-0.0037841796875,0.6561279296875,-0.7303466796875,0.7324218153953552,-0.2441406100988388,0.2441406100988388
2747992,-0.0068359375,0.6566162109375,-0.72802734375,0.7324218153953552,-0.2441406100988388,0.1831054538488388
2748008,-0.008056640625,0.6593017578125,-0.73095703125,0.7934569716453552,-0.30517578125,0.1831054538488388
2748024,-0.006591796875,0.65576171875,-0.7261962890625,0.7934569716453552,-0.2441406100988388,0.2441406100988388
2748046,-0.0052490234375,0.6571044921875,-0.7261962890625,0.7324218153953552,-0.2441406100988388,0.2441406100988388
2748062,-0.005126953125,0.658935546875,-0.7275390625,0.7324218153953552,-0.30517578125,0.2441406100988388
2748079,-0.0068359375,0.6556396484375,-0.726806640625,0.7324218153953552,-0.30517578125,0.1831054538488388
2748096,-0.0064697265625,0.656982421875,-0.7276611328125,0.7324218153953552,-0.2441406100988388,0.1831054538488388
2748112,-0.0050048828125,0.6575927734375,-0.7271728515625,0.8544921278953552,-0.2441406100988388,0.1831054538488388
2748146,-0.0067138671875,0.656005859375,-0.7274169921875,0.7324218153953552,-0.2441406100988388,0.2441406100988388
2748162,-0.00732421875,0.655029296875,-0.7266845703125,0.7324218153953552,-0.2441406100988388,0.2441406100988388
2748178,-0.006591796875,0.65576171875,-0.7271728515625,0.7324218153953552,-0.30517578125,0.2441406100988388
2748214,-0.006103515625,0.657958984375,-0.7296142578125,0.7324218153953552,-0.30517578125,0.2441406100988388
2748236,-0.0069580078125,0.6561279296875,-0.7261962890625,0.7324218153953552,-0.30517578125,0.2441406100988388
2748252,-0.00634765625,0.6556396484375,-0.724365234375,0.7324218153953552,-0.2441406100988388,0.30517578125
2748271,-0.004150390625,0.65869140625,-0.7296142578125,0.7934569716453552,-0.1831054538488388,0.30517578125
2748288,-0.00634765625,0.65478515625,-0.7259521484375,0.7934569716453552,-0.2441406100988388,0.2441406100988388
2748304,-0.00732421875,0.6573486328125,-0.7288818359375,0.7934569716453552,-0.2441406100988388,0.2441406100988388
2748321,-0.005859375,0.658203125,-0.7283935546875,0.7324218153953552,-0.30517578125,0.30517578125
2748338,-0.0054931640625,0.6566162109375,-0.7265625,0.7934569716453552,-0.30517578125,0.30517578125
2748354,-0.006591796875,0.6568603515625,-0.7279052734375,0.7934569716453552,-0.30517578125,0.2441406100988388
2748385,-0.0064697265625,0.6558837890625,-0.7261962890625,0.7324218153953552,-0.2441406100988388,0.2441406100988388
2748406,-0.006591796875,0.6556396484375,-0.7259521484375,0.7934569716453552,-0.2441406100988388,0.2441406100988388
2748422,-0.005126953125,0.657470703125,-0.72705078125,0.7324218153953552,-0.30517578125,0.30517578125
2748439,-0.0069580078125,0.6566162109375,-0.7261962890625,0.6713866591453552,-0.30517578125,0.2441406100988388
2748456,-0.007568359375,0.656982421875,-0.7276611328125,0.6713866591453552,-0.2441406100988388,0.1831054538488388
2748472,-0.005615234375,0.6556396484375,-0.726318359375,0.6713866591453552,-0.2441406100988388,0.2441406100988388
2748504,-0.0064697265625,0.6561279296875,-0.726806640625,0.54931640625,-0.2441406100988388,0.2441406100988388
2748526,-0.00732421875,0.6566162109375,-0.72900390625,0.54931640625,-0.30517578125,0.2441406100988388
2748542,-0.004638671875,0.6568603515625,-0.728759765625,0.54931640625,-0.2441406100988388,0.3662109076976776
2748559,-0.0059814453125,0.6561279296875,-0.728759765625,0.54931640625,-0.2441406100988388,0.30517578125
2748577,-0.0069580078125,0.656494140625,-0.7293701171875,0.4882812201976776,-0.1831054538488388,0.30517578125
2748593,-0.0067138671875,0.654541015625,-0.7281494140625,0.4882812201976776,-0.2441406100988388,0.3662109076976776
2748626,-0.006103515625,0.6563720703125,-0.7279052734375,0.7934569716453552,-0.2441406100988388,0.2441406100988388
2748648,-0.0062255859375,0.65673828125,-0.7266845703125,0.7934569716453552,-0.2441406100988388,0.2441406100988388
2748664,-0.0062255859375,0.6558837890625,-0.7296142578125,0.8544921278953552,-0.2441406100988388,0.30517578125
2748681,-0.0072021484375,0.6534423828125,-0.730224609375,1.0986328125,-0.1220703050494194,0.2441406100988388
2748698,-0.007568359375,0.6527099609375,-0.7305908203125,1.220703125,-0.1831054538488388,0.2441406100988388
2748714,-0.006103515625,0.6566162109375,-0.7286376953125,1.5258787870407104,-0.2441406100988388,0.2441406100988388
2748748,-0.00732421875,0.6519775390625,-0.7353515625,2.197265625,-0.30517578125,0.1831054538488388
2748764,-0.00830078125,0.653564453125,-0.731201171875,2.44140625,-0.2441406100988388,0.1220703050494194
2748780,-0.0089111328125,0.6546630859375,-0.7305908203125,2.685546636581421,-0.30517578125,0.1220703050494194
2748796,-0.0057373046875,0.65869140625,-0.7254638671875,2.929687261581421,-0.3662109076976776,0.0610351525247097
2748814,-0.00537109375,0.662109375,-0.7249755859375,2.990722417831421,-0.3662109076976776,0.0610351525247097
2748871,-0.00634765625,0.6597900390625,-0.7264404296875,3.417968511581421,-0.3662109076976776,0.1220703050494194
2748887,-0.00634765625,0.659912109375,-0.7236328125,3.417968511581421,-0.3662109076976776,0.0610351525247097
2748904,-0.00537109375,0.661376953125,-0.71923828125,3.356933355331421,-0.3662109076976776,0.1220703050494194
2748921,-0.0037841796875,0.6650390625,-0.7222900390625,3.295898199081421,-0.3662109076976776,0.2441406100988388
2748937,-0.0068359375,0.6590576171875,-0.72509765625,3.356933355331421,-0.3662109076976776,0.30517578125
2748954,-0.0072021484375,0.65966796875,-0.724365234375,3.540038824081421,-0.3662109076976776,0.1220703050494194
2748987,-0.0067138671875,0.66650390625,-0.7174072265625,3.540038824081421,-0.3662109076976776,0.1220703050494194
2749035,-0.005859375,0.6654052734375,-0.7177734375,3.356933355331421,-0.3662109076976776,0.1831054538488388
2749073,-0.0064697265625,0.6668701171875,-0.718994140625,2.807616949081421,-0.3662109076976776,0.1831054538488388
2749122,-0.0067138671875,0.6697998046875,-0.7137451171875,2.50244140625,-0.3662109076976776,0.0610351525247097
2749138,-0.0062255859375,0.6676025390625,-0.7176513671875,2.44140625,-0.3662109076976776,0.0610351525247097
2749159,-0.00537109375,0.6678466796875,-0.718505859375,2.44140625,-0.30517578125,0.1831054538488388
2749176,-0.004638671875,0.6695556640625,-0.716064453125,2.3193359375,-0.2441406100988388,0.1831054538488388
2749192,-0.0059814453125,0.670166015625,-0.714111328125,2.25830078125,-0.30517578125,0.1831054538488388
2749226,-0.0042724609375,0.67138671875,-0.7149658203125,2.13623046875,-0.30517578125,0.1220703050494194
2749242,-0.0050048828125,0.66845703125,-0.716552734375,2.25830078125,-0.3662109076976776,0.1831054538488388
2749258,-0.0048828125,0.667236328125,-0.71630859375,2.563476324081421,-0.3662109076976776,0.0
2749294,-0.005859375,0.673828125,-0.714599609375,2.50244140625,-0.54931640625,-0.0610351525247097
2749310,-0.0057373046875,0.6705322265625,-0.708984375,2.44140625,-0.4882812201976776,0.0
2749326,-0.0037841796875,0.6759033203125,-0.7130126953125,2.3193359375,-0.54931640625,-0.0610351525247097
2749342,-0.002685546875,0.6766357421875,-0.7125244140625,2.13623046875,-0.6103515625,-0.30517578125
2749359,-0.0029296875,0.6756591796875,-0.7061767578125,1.6479490995407104,-0.7324218153953552,-0.3662109076976776
2749380,-0.0050048828125,0.677734375,-0.704345703125,1.3427733182907104,-0.7324218153953552,-0.30517578125
2749396,-0.0081787109375,0.6788330078125,-0.7080078125,0.8544921278953552,-0.6713866591453552,-0.1831054538488388
2749413,-0.004638671875,0.67041015625,-0.713134765625,0.54931640625,-0.4272460639476776,0.0
2749430,-0.0009765625,0.67236328125,-0.713623046875,0.4272460639476776,-0.3662109076976776,0.0610351525247097
2749463,-0.00927734375,0.6846923828125,-0.698486328125,-1.15966796875,0.1220703050494194,0.7324218153953552
2749480,-0.007080078125,0.6807861328125,-0.699462890625,-2.38037109375,0.3662109076976776,1.03759765625
2749496,-0.00244140625,0.6744384765625,-0.70166015625,-2.868652105331421,0.2441406100988388,1.03759765625
2749529,-0.0050048828125,0.67138671875,-0.712646484375,-4.2724609375,0.1220703050494194,0.6713866591453552
2749550,-0.0089111328125,0.6722412109375,-0.712646484375,-4.5166015625,0.1831054538488388,0.6713866591453552
2749566,-0.00634765625,0.6700439453125,-0.7142333984375,-4.638671875,0.0,0.54931640625
2749583,-0.0029296875,0.660400390625,-0.72216796875,-4.21142578125,-0.1831054538488388,0.4272460639476776
2749600,-0.0052490234375,0.656982421875,-0.7266845703125,-3.906249761581421,-0.2441406100988388,0.30517578125
2749616,-0.006103515625,0.6593017578125,-0.7269287109375,-3.295898199081421,-0.30517578125,0.0610351525247097
2749654,-0.0052490234375,0.6622314453125,-0.7249755859375,-2.624511480331421,-0.30517578125,0.3662109076976776
2749670,-0.0054931640625,0.65771484375,-0.7293701171875,-2.13623046875,-0.2441406100988388,0.2441406100988388
2749686,-0.00537109375,0.6568603515625,-0.7288818359375,-1.8310545682907104,-0.2441406100988388,0.2441406100988388
2749702,-0.005615234375,0.6549072265625,-0.7318115234375,-1.2817381620407104,-0.2441406100988388,0.2441406100988388
2749766,-0.006103515625,0.658203125,-0.727294921875,0.0,-0.3662109076976776,0.2441406100988388
2749787,-0.0059814453125,0.657470703125,-0.7294921875,0.30517578125,-0.2441406100988388,0.1831054538488388
2749804,-0.0064697265625,0.65625,-0.7281494140625,0.4882812201976776,-0.1831054538488388,0.1220703050494194
2749821,-0.0047607421875,0.662841796875,-0.7237548828125,0.6103515625,-0.30517578125,0.1220703050494194
2749837,-0.0045166015625,0.66357421875,-0.722412109375,0.4882812201976776,-0.30517578125,0.1220703050494194
2749854,-0.005615234375,0.6640625,-0.718994140625,0.1831054538488388,-0.30517578125,0.2441406100988388
2749887,-0.00537109375,0.663330078125,-0.7198486328125,-0.7324218153953552,-0.2441406100988388,0.30517578125
2749935,-0.0048828125,0.66650390625,-0.720458984375,-2.746581792831421,-0.1220703050494194,0.3662109076976776
2749957,-0.0054931640625,0.6611328125,-0.7227783203125,-3.540038824081421,-0.0610351525247097,0.4882812201976776
2749974,-0.004638671875,0.6573486328125,-0.7259521484375,-3.845214605331421,-0.0610351525247097,0.54931640625
2750007,-0.0068359375,0.6573486328125,-0.7276611328125,-4.82177734375,0.0,0.54931640625
2750024,-0.0059814453125,0.65478515625,-0.7296142578125,-5.065917491912842,-0.1220703050494194,0.4882812201976776
2750040,-0.0050048828125,0.6484375,-0.732666015625,-5.065917491912842,-0.1220703050494194,0.4272460639476776
2750057,-0.0059814453125,0.64990234375,-0.7335205078125,-5.065917491912842,-0.1220703050494194,0.4272460639476776
2750077,-0.0069580078125,0.64794921875,-0.737060546875,-4.94384765625,-0.1220703050494194,0.3662109076976776
2750093,-0.0045166015625,0.6502685546875,-0.7357177734375,-4.94384765625,-0.1831054538488388,0.4272460639476776
2750109,-0.007080078125,0.6444091796875,-0.741455078125,-4.8828125,-0.0610351525247097,0.4272460639476776
2750125,-0.007568359375,0.64208984375,-0.7406005859375,-4.57763671875,0.0610351525247097,0.4882812201976776
2750141,-0.008056640625,0.6392822265625,-0.740478515625,-4.08935546875,0.0610351525247097,0.4882812201976776
2750157,-0.00732421875,0.640380859375,-0.739990234375,-3.967284917831421,0.1220703050494194,0.4882812201976776
2750189,-0.0072021484375,0.64111328125,-0.7337646484375,-3.784179449081421,0.2441406100988388,0.6713866591453552
2750205,-0.0064697265625,0.64013671875,-0.7327880859375,-3.906249761581421,0.1831054538488388,0.6103515625
2750221,0.0030517578125,0.63134765625,-0.726806640625,-4.2724609375,-0.6103515625,-0.1220703050494194
2750237,0.0064697265625,0.6309814453125,-0.7352294921875,-4.69970703125,-1.2817381620407104,-0.8544921278953552
2750261,0.010009765625,0.67138671875,-0.734130859375,-6.896972179412842,-2.50244140625,-2.685546636581421
2750277,0.054443359375,0.7689208984375,-0.696044921875,-11.596678733825684,-7.019042491912842,-5.310058116912842
2750294,0.0128173828125,1.2314453125,-1.20556640625,-13.427733421325684,-9.3994140625,-6.652831554412842
2750315,0.008544921875,1.5426025390625,-1.7781982421875,-5.615233898162842,-5.249022960662842,-1.2817381620407104
2750331,0.0062255859375,1.485595703125,-1.8489990234375,6.774901866912842,0.8544921278953552,3.967284917831421
2750364,0.0028076171875,0.99609375,-1.2392578125,18.1884765625,6.469726085662842,8.11767578125
2750429,-0.0128173828125,0.928466796875,-1.0877685546875,17.4560546875,2.807616949081421,3.845214605331421
2750450,-0.030029296875,1.0164794921875,-1.097900390625,18.73779296875,3.173827886581421,4.638671875
2750466,-0.0341796875,1.032958984375,-1.088134765625,19.10400390625,4.45556640625,6.652831554412842
2750487,-0.01220703125,0.9010009765625,-0.9534912109375,18.798828125,4.21142578125,6.896972179412842
2750508,-0.0274658203125,0.8262939453125,-0.9097900390625,17.76123046875,3.173827886581421,5.920409679412842
2750524,-0.0447998046875,0.8128662109375,-0.9072265625,17.822265625,2.807616949081421,5.432128429412842
2750545,-0.0418701171875,0.788330078125,-0.8887939453125,17.51708984375,2.38037109375,4.33349609375
2750561,-0.0306396484375,0.80419921875,-0.8533935546875,17.51708984375,2.0751953125,3.967284917831421
2750577,-0.030517578125,0.7906494140625,-0.8447265625,16.4794921875,1.4648436307907104,3.417968511581421
2750598,-0.0303955078125,0.7769775390625,-0.8017578125,15.624999046325684,0.8544921278953552,2.746581792831421
2750615,-0.027099609375,0.7266845703125,-0.721923828125,14.343260765075684,0.1220703050494194,2.0751953125
2750640,-0.0220947265625,0.64208984375,-0.6292724609375,13.366698265075684,-0.6103515625,1.5869139432907104
2750656,-0.0174560546875,0.5472412109375,-0.5367431640625,12.695311546325684,-1.15966796875,0.9155272841453552
2750673,-0.013671875,0.5107421875,-0.46435546875,11.657713890075684,-2.563476324081421,-0.7934569716453552
2750690,-0.0130615234375,0.5128173828125,-0.4627685546875,11.230467796325684,-4.0283203125,-2.01416015625
2750724,-0.0030517578125,0.4442138671875,-0.384765625,12.512206077575684,-4.7607421875,-2.685546636581421
2750740,-0.0048828125,0.416748046875,-0.3408203125,13.061522483825684,-4.94384765625,-2.807616949081421
2750757,-0.0125732421875,0.33349609375,-0.2584228515625,13.732909202575684,-5.065917491912842,-2.624511480331421
2750789,-0.008056640625,0.1702880859375,-0.0833740234375,13.183592796325684,-5.554198741912842,-2.746581792831421
2750805,-0.0048828125,0.087890625,0.0260009765625,11.718749046325684,-6.408690929412842,-3.295898199081421
2750821,-0.00390625,0.078857421875,0.0645751953125,10.559081077575684,-6.896972179412842,-3.540038824081421
2750837,-0.0028076171875,0.0543212890625,0.0693359375,7.263183116912842,-7.385253429412842,-3.356933355331421
2750857,-0.0076904296875,0.0638427734375,0.0323486328125,5.981444835662842,-8.1787109375,-3.723144292831421
2750873,-0.017578125,0.0537109375,-0.16259765625,10.742186546325684,-8.72802734375,-4.45556640625
2750889,-0.012451171875,0.176513671875,-0.173828125,14.770506858825684,-8.97216796875,-4.45556640625
2750903,0.0045166015625,0.317626953125,-0.3199462890625,20.141599655151367,-10.314940452575684,-5.065917491912842
2750958,-0.0028076171875,0.7249755859375,-0.8809814453125,26.916501998901367,-5.920409679412842,-2.563476324081421
2750975,0.00830078125,0.8443603515625,-0.74658203125,26.123044967651367,-4.8828125,-2.01416015625
2750991,0.0037841796875,0.8751220703125,-0.746826171875,22.949216842651367,-3.662109136581421,0.1831054538488388
2751025,0.00537109375,0.7666015625,-0.741455078125,21.057126998901367,-4.33349609375,1.03759765625
2751041,0.0008544921875,0.7998046875,-0.767822265625,21.179197311401367,-3.845214605331421,1.4648436307907104
2751057,-0.0057373046875,0.7889404296875,-0.7584228515625,19.8974609375,-2.44140625,2.50244140625
2751089,-0.004638671875,0.6988525390625,-0.6134033203125,16.90673828125,-1.8920897245407104,3.173827886581421
2751105,-0.003662109375,0.65478515625,-0.54443359375,12.939452171325684,-2.0751953125,3.173827886581421
2751121,-0.0037841796875,0.6351318359375,-0.52294921875,10.437010765075684,-2.01416015625,3.112792730331421
2751137,0.0020751953125,0.615478515625,-0.4920654296875,6.896972179412842,-2.197265625,3.234863042831421
2751157,0.004638671875,0.60498046875,-0.48876953125,4.2724609375,-2.807616949081421,2.807616949081421
2751173,0.0015869140625,0.674560546875,-0.5665283203125,2.197265625,-3.051757574081421,2.563476324081421
2751189,-0.0003662109375,0.714599609375,-0.60498046875,0.0610351525247097,-2.868652105331421,2.868652105331421
2751205,0.002685546875,0.757080078125,-0.6451416015625,-1.7089842557907104,-2.44140625,3.417968511581421
2751227,0.004150390625,0.7591552734375,-0.6630859375,-2.44140625,-2.25830078125,3.479003667831421
2751243,0.0059814453125,0.793212890625,-0.6783447265625,-3.967284917831421,-1.9531248807907104,3.601073980331421
2751260,0.0064697265625,0.81640625,-0.688232421875,-5.126952648162842,-1.5869139432907104,3.906249761581421
2751277,0.0091552734375,0.820556640625,-0.6724853515625,-5.676269054412842,-1.5869139432907104,4.08935546875
2751293,0.006103515625,0.8067626953125,-0.6566162109375,-7.080077648162842,-1.5258787870407104,4.2724609375
2751325,0.0030517578125,0.7972412109375,-0.6129150390625,-10.925292015075684,-1.4648436307907104,4.21142578125
2751347,0.006591796875,0.7982177734375,-0.590087890625,-12.145995140075684,-1.5258787870407104,4.2724609375
2751363,0.0087890625,0.76318359375,-0.55712890625,-14.770506858825684,-1.8920897245407104,4.33349609375
2751380,0.0013427734375,0.73095703125,-0.551513671875,-16.9677734375,-2.01416015625,4.150390625
2751397,0.0006103515625,0.701171875,-0.5335693359375,-18.06640625,-1.9531248807907104,4.08935546875
2751413,0.005126953125,0.666015625,-0.5015869140625,-20.385740280151367,-2.01416015625,3.845214605331421
2751444,0.0062255859375,0.6058349609375,-0.45556640625,-24.902341842651367,-2.197265625,3.417968511581421
2751466,0.0062255859375,0.58056640625,-0.44091796875,-25.878904342651367,-2.197265625,3.234863042831421
2751482,0.0093994140625,0.541259765625,-0.4058837890625,-27.526853561401367,-2.38037109375,2.746581792831421
2751499,0.010498046875,0.522216796875,-0.3990478515625,-28.137205123901367,-2.563476324081421,2.563476324081421
2751516,0.008056640625,0.5191650390625,-0.4129638671875,-28.869626998901367,-2.807616949081421,2.197265625
2751533,0.00537109375,0.5157470703125,-0.4241943359375,-29.113767623901367,-2.685546636581421,2.0751953125
2751566,-0.0006103515625,0.46044921875,-0.408935546875,-28.869626998901367,-2.624511480331421,1.5258787870407104
2751582,-0.0028076171875,0.4521484375,-0.404541015625,-28.686521530151367,-2.746581792831421,1.3427733182907104
2751598,-0.006103515625,0.4505615234375,-0.42138671875,-27.832029342651367,-2.990722417831421,0.8544921278953552
2751634,-0.012451171875,0.4827880859375,-0.502197265625,-25.329587936401367,-3.295898199081421,0.0
2751682,-0.0146484375,0.5673828125,-0.6318359375,-17.822265625,-3.295898199081421,-0.7324218153953552
2751699,-0.01220703125,0.6063232421875,-0.650146484375,-14.953612327575684,-2.868652105331421,-0.54931640625
2751724,-0.01513671875,0.5965576171875,-0.684814453125,-11.230467796325684,-2.685546636581421,-0.4882812201976776
2751742,-0.016845703125,0.59375,-0.7083740234375,-8.36181640625,-2.13623046875,-0.7324218153953552
2751758,-0.010986328125,0.5938720703125,-0.6961669921875,-6.408690929412842,-1.8920897245407104,-0.7934569716453552
2751775,-0.0093994140625,0.5887451171875,-0.6942138671875,-4.150390625,-1.6479490995407104,-0.8544921278953552
2751808,-0.006591796875,0.6080322265625,-0.741455078125,0.7934569716453552,-1.4648436307907104,-1.2817381620407104
2751825,-0.003173828125,0.6107177734375,-0.7523193359375,2.50244140625,-1.220703125,-1.220703125
2751841,-0.0003662109375,0.6136474609375,-0.7520751953125,4.8828125,-1.220703125,-1.4648436307907104
2751857,0.0030517578125,0.6552734375,-0.7969970703125,7.446288585662842,-0.9155272841453552,-1.5869139432907104
2751877,0.0098876953125,0.685791015625,-0.8206787109375,9.58251953125,-0.0610351525247097,-1.03759765625
2751893,0.01318359375,0.68115234375,-0.814208984375,10.742186546325684,0.1831054538488388,-0.9155272841453552
2751909,0.0196533203125,0.67822265625,-0.80322265625,12.878417015075684,0.4272460639476776,-0.9155272841453552
2751925,0.0205078125,0.7022705078125,-0.8046875,13.610838890075684,0.7324218153953552,-0.7324218153953552
2751947,0.0225830078125,0.7047119140625,-0.786376953125,15.258788108825684,1.4648436307907104,-0.0610351525247097
2751963,0.0269775390625,0.690185546875,-0.748046875,16.05224609375,1.8920897245407104,0.4882812201976776
2751980,0.0306396484375,0.6895751953125,-0.729736328125,16.78466796875,1.8310545682907104,0.4272460639476776
2751997,0.0269775390625,0.7513427734375,-0.8031005859375,18.12744140625,1.4648436307907104,0.2441406100988388
2752013,0.0281982421875,0.7813720703125,-0.82763671875,20.629880905151367,2.0751953125,0.7324218153953552
2752047,0.033447265625,0.7755126953125,-0.7802734375,23.681638717651367,3.295898199081421,2.50244140625
2752095,0.0120849609375,0.7371826171875,-0.7330322265625,22.216794967651367,3.112792730331421,2.01416015625
2752117,0.007080078125,0.76806640625,-0.7379150390625,20.263669967651367,2.868652105331421,1.8310545682907104
2752134,0.0069580078125,0.7677001953125,-0.73486328125,18.24951171875,3.112792730331421,1.9531248807907104
2752167,0.0020751953125,0.7562255859375,-0.7086181640625,14.221190452575684,2.929687261581421,1.5258787870407104
2752184,0.0029296875,0.767333984375,-0.7161865234375,11.474608421325684,2.685546636581421,0.9765624403953552
2752201,0.0025634765625,0.8038330078125,-0.7432861328125,8.97216796875,2.807616949081421,1.03759765625
2752217,0.001220703125,0.8028564453125,-0.736572265625,6.774901866912842,2.807616949081421,0.9155272841453552
2752237,-0.003173828125,0.8211669921875,-0.756591796875,4.82177734375,2.807616949081421,0.6713866591453552
2752253,-0.002197265625,0.8302001953125,-0.764892578125,3.906249761581421,2.868652105331421,0.54931640625
2752269,0.0030517578125,0.8599853515625,-0.778076171875,2.13623046875,2.868652105331421,0.4272460639476776
2752286,0.0042724609375,0.87646484375,-0.79052734375,1.4038084745407104,3.051757574081421,0.6103515625
2752307,0.006591796875,0.867431640625,-0.7711181640625,-0.2441406100988388,3.417968511581421,0.8544921278953552
2752323,0.002685546875,0.847412109375,-0.753662109375,-1.9531248807907104,3.295898199081421,0.6103515625
2752340,-0.0062255859375,0.848388671875,-0.756591796875,-2.746581792831421,3.173827886581421,0.4272460639476776
2752357,-0.0098876953125,0.8482666015625,-0.7572021484375,-4.0283203125,3.234863042831421,0.3662109076976776
2752373,-0.0137939453125,0.8419189453125,-0.7567138671875,-4.8828125,3.112792730331421,0.0610351525247097
2752404,-0.0108642578125,0.8641357421875,-0.7630615234375,-5.249022960662842,3.112792730331421,0.1220703050494194
2752426,-0.01171875,0.851318359375,-0.74755859375,-5.310058116912842,2.990722417831421,0.0610351525247097
2752442,-0.0189208984375,0.841064453125,-0.7337646484375,-5.371093273162842,2.868652105331421,-0.1220703050494194
2752459,-0.0252685546875,0.822509765625,-0.728271484375,-5.187987804412842,2.563476324081421,-0.2441406100988388
2752525,-0.0107421875,0.5557861328125,-0.51025390625,-18.37158203125,-9.94873046875,-12.145995140075684
2752542,-0.0037841796875,0.6695556640625,-0.63232421875,-16.05224609375,-9.1552734375,-11.352538108825684
2752558,0.00537109375,0.7969970703125,-0.7462158203125,-18.1884765625,-8.97216796875,-11.657713890075684
2752594,0.0997314453125,1.52880859375,-1.395263671875,-9.6435546875,6.835937023162842,2.563476324081421
2752610,-0.027587890625,0.0960693359375,-0.08984375,-3.967284917831421,5.493163585662842,5.126952648162842
2752626,-0.043701171875,0.2147216796875,-0.201416015625,-5.615233898162842,4.21142578125,3.784179449081421
2752642,0.02392578125,0.4322509765625,-0.4234619140625,-6.103515148162842,2.807616949081421,2.25830078125
2752664,0.0762939453125,1.1781005859375,-1.1395263671875,-9.765625,-0.7934569716453552,-0.30517578125
2752680,0.02978515625,0.77880859375,-0.8023681640625,-8.36181640625,-0.0610351525247097,0.9155272841453552
2752697,0.01416015625,0.4237060546875,-0.4267578125,-8.72802734375,1.6479490995407104,2.13623046875
2752714,-0.0435791015625,0.7037353515625,-0.71435546875,-10.375975608825684,-0.4272460639476776,0.54931640625
2752730,0.0054931640625,0.7777099609375,-0.824462890625,-9.21630859375,0.4882812201976776,1.220703125
2752764,-0.024169921875,0.7003173828125,-0.7027587890625,-9.09423828125,0.54931640625,0.30517578125
2752781,-0.037841796875,0.687255859375,-0.67529296875,-8.60595703125,0.0,0.9765624403953552
2752802,0.0029296875,0.605712890625,-0.666748046875,-8.85009765625,-0.1831054538488388,0.9155272841453552
2752818,0.0263671875,0.677490234375,-0.7550048828125,-8.48388671875,0.1831054538488388,0.6713866591453552
2752885,0.014404296875,0.6640625,-0.7188720703125,-7.202147960662842,0.0,0.6103515625
2752901,0.014892578125,0.6483154296875,-0.739013671875,-6.530761241912842,0.1220703050494194,0.7324218153953552
2752917,0.000732421875,0.65576171875,-0.7381591796875,-6.042479991912842,0.1831054538488388,0.6103515625
2752954,-0.0025634765625,0.65234375,-0.726318359375,-4.57763671875,-0.0610351525247097,0.4272460639476776
2752970,0.0098876953125,0.65673828125,-0.7425537109375,-3.845214605331421,0.0,0.54931640625
2752986,0.005126953125,0.6546630859375,-0.7391357421875,-3.417968511581421,0.0610351525247097,0.4882812201976776
2753002,-0.0123291015625,0.6456298828125,-0.7281494140625,-2.746581792831421,-0.1831054538488388,0.3662109076976776
2753024,-0.01025390625,0.65185546875,-0.742919921875,-2.3193359375,-0.1831054538488388,0.3662109076976776
2753040,0.0032958984375,0.6441650390625,-0.735595703125,-1.4648436307907104,-0.1831054538488388,0.3662109076976776
2753061,0.0032958984375,0.6495361328125,-0.7413330078125,-0.6713866591453552,-0.1220703050494194,0.30517578125
2753078,-0.0059814453125,0.64697265625,-0.729248046875,0.0610351525247097,-0.2441406100988388,0.30517578125
2753094,-0.00830078125,0.6513671875,-0.73779296875,0.3662109076976776,-0.2441406100988388,0.2441406100988388
2753124,-0.0010986328125,0.649169921875,-0.7412109375,1.7700194120407104,-0.2441406100988388,0.1831054538488388
2753141,-0.0013427734375,0.6534423828125,-0.7318115234375,2.25830078125,-0.30517578125,0.1831054538488388
2753157,-0.0023193359375,0.6533203125,-0.7308349609375,2.38037109375,-0.2441406100988388,0.1220703050494194
2753189,-0.0040283203125,0.6473388671875,-0.7257080078125,2.746581792831421,-0.30517578125,0.2441406100988388
2753205,-0.00439453125,0.6551513671875,-0.7314453125,2.990722417831421,-0.3662109076976776,0.1831054538488388
2753221,-0.00439453125,0.6591796875,-0.7313232421875,3.112792730331421,-0.4272460639476776,0.2441406100988388
2753237,-0.0035400390625,0.6544189453125,-0.7281494140625,3.173827886581421,-0.4272460639476776,0.1831054538488388
2753257,-0.001220703125,0.654052734375,-0.7294921875,3.356933355331421,-0.30517578125,0.1220703050494194
2753279,-0.0030517578125,0.6558837890625,-0.7271728515625,3.417968511581421,-0.3662109076976776,0.0610351525247097
2753295,-0.0054931640625,0.661865234375,-0.7271728515625,3.356933355331421,-0.30517578125,0.1831054538488388
2753312,-0.001220703125,0.6578369140625,-0.719482421875,3.295898199081421,-0.3662109076976776,0.1831054538488388
2753362,-0.0059814453125,0.659912109375,-0.724609375,3.173827886581421,-0.4272460639476776,0.1220703050494194
2753379,-0.0047607421875,0.6614990234375,-0.725830078125,3.295898199081421,-0.3662109076976776,0.1220703050494194
2753395,0.0,0.6619873046875,-0.7210693359375,3.234863042831421,-0.30517578125,0.1220703050494194
2753424,-0.00341796875,0.66357421875,-0.72314453125,3.051757574081421,-0.3662109076976776,0.1831054538488388
2753446,-0.00439453125,0.66357421875,-0.7222900390625,2.929687261581421,-0.3662109076976776,0.1831054538488388
2753462,-0.001953125,0.6619873046875,-0.7183837890625,2.868652105331421,-0.30517578125,0.1831054538488388
2753479,-0.0009765625,0.6640625,-0.7183837890625,2.746581792831421,-0.2441406100988388,0.2441406100988388
2753496,-0.0042724609375,0.6632080078125,-0.7210693359375,2.685546636581421,-0.2441406100988388,0.30517578125
2753512,-0.005615234375,0.660888671875,-0.7110595703125,2.624511480331421,-0.1220703050494194,0.30517578125
2753546,0.0028076171875,0.6474609375,-0.7098388671875,2.38037109375,-1.7089842557907104,-1.5258787870407104
2753562,0.0089111328125,0.677001953125,-0.6864013671875,1.15966796875,-4.39453125,-4.45556640625
2753578,-0.0084228515625,0.73291015625,-0.6859130859375,0.0,-7.080077648162842,-6.286620616912842
2753614,-0.123779296875,1.427978515625,-1.7772216796875,9.21630859375,-3.601073980331421,-0.54931640625
2753630,-0.1060791015625,1.3951416015625,-1.8416748046875,14.282225608825684,-0.9765624403953552,0.6713866591453552
2753646,-0.04931640625,1.2174072265625,-1.653076171875,21.423337936401367,2.990722417831421,0.54931640625
2753662,0.0089111328125,1.094482421875,-1.291748046875,22.949216842651367,1.0986328125,1.3427733182907104
2753726,0.026123046875,0.9844970703125,-1.2574462890625,17.7001953125,0.4882812201976776,-1.220703125
2753747,0.0299072265625,1.0435791015625,-1.189697265625,15.930174827575684,2.197265625,-0.1220703050494194
2753763,0.038818359375,1.0213623046875,-1.0830078125,14.709471702575684,2.25830078125,0.7324218153953552
2753779,0.0438232421875,0.962890625,-1.0404052734375,10.925292015075684,2.44140625,1.5869139432907104
2753829,0.0460205078125,0.986083984375,-0.994384765625,-0.4882812201976776,2.685546636581421,1.4038084745407104
2753862,0.0540771484375,0.970458984375,-0.8909912109375,-7.446288585662842,5.126952648162842,3.295898199081421
2753879,0.050537109375,0.904052734375,-0.789794921875,-12.512206077575684,5.249022960662842,3.845214605331421
2753895,0.0401611328125,0.8531494140625,-0.733642578125,-13.305663108825684,5.187987804412842,4.2724609375
2753914,0.035888671875,0.774658203125,-0.65478515625,-15.747069358825684,6.164550304412842,4.82177734375
2753931,0.033203125,0.747314453125,-0.6153564453125,-16.11328125,6.164550304412842,5.065917491912842
2753947,0.0216064453125,0.6685791015625,-0.5245361328125,-16.2353515625,6.408690929412842,5.0048828125
2753963,0.0118408203125,0.58154296875,-0.444580078125,-16.11328125,5.981444835662842,5.065917491912842
2753985,0.0052490234375,0.5374755859375,-0.4215087890625,-15.563963890075684,6.042479991912842,4.8828125
2754001,0.0,0.454833984375,-0.34326171875,-14.465331077575684,5.737304210662842,4.82177734375
2754018,-0.010009765625,0.3265380859375,-0.2410888671875,-12.878417015075684,5.554198741912842,4.45556640625
2754084,-0.010009765625,0.0069580078125,0.1429443359375,-12.878417015075684,2.44140625,1.4038084745407104
2754101,-0.007568359375,-0.034423828125,0.222412109375,-13.122557640075684,1.7089842557907104,0.6713866591453552
2754118,-0.0078125,-0.060791015625,0.3480224609375,-14.465331077575684,-1.4038084745407104,-0.54931640625
2754139,-0.0345458984375,-0.099853515625,-0.1317138671875,-23.010251998901367,-2.3193359375,-1.8920897245407104
2754155,-0.001708984375,0.3814697265625,-0.1142578125,-24.658201217651367,-2.01416015625,-2.563476324081421
2754172,0.0179443359375,0.462158203125,-0.0540771484375,-14.953612327575684,-2.3193359375,-4.2724609375
2754203,-0.00732421875,0.6552734375,-0.196044921875,0.0610351525247097,-5.065917491912842,-4.8828125
2754219,-0.011962890625,0.7701416015625,-0.2960205078125,-5.859374523162842,-6.774901866912842,-3.601073980331421
2754236,-0.0035400390625,0.7850341796875,-0.5810546875,-4.94384765625,-6.408690929412842,-0.6713866591453552
2754268,0.0052490234375,0.8160400390625,-0.90087890625,7.324218273162842,-5.065917491912842,-0.2441406100988388
2754316,0.0048828125,0.6561279296875,-0.9188232421875,12.207030296325684,-2.746581792831421,0.3662109076976776
2754338,0.0023193359375,0.69091796875,-0.8663330078125,14.770506858825684,-2.38037109375,0.3662109076976776
2754359,0.00146484375,0.6087646484375,-0.818603515625,21.423337936401367,-1.8920897245407104,0.6103515625
2754379,0.000732421875,0.59716796875,-0.7620849609375,24.841306686401367,-1.5869139432907104,0.4882812201976776
2754396,-0.005126953125,0.5745849609375,-0.6920166015625,26.489255905151367,-1.5258787870407104,0.1831054538488388
2754417,-0.0045166015625,0.568359375,-0.6392822265625,28.747556686401367,-1.5869139432907104,0.2441406100988388
2754448,-0.0037841796875,0.5479736328125,-0.5550537109375,29.113767623901367,-1.7700194120407104,0.4272460639476776
2754470,-0.0045166015625,0.5341796875,-0.4923095703125,28.930662155151367,-1.7700194120407104,0.3662109076976776
2754486,-0.0072021484375,0.514404296875,-0.4473876953125,28.625486373901367,-1.8310545682907104,0.4272460639476776
2754503,-0.0052490234375,0.4962158203125,-0.4085693359375,28.381345748901367,-1.8310545682907104,0.6103515625
2754520,-0.002685546875,0.4344482421875,-0.34375,26.489255905151367,-2.13623046875,0.4272460639476776
2754536,-0.0037841796875,0.420654296875,-0.2996826171875,25.329587936401367,-2.25830078125,0.30517578125
2754574,-0.00341796875,0.3089599609375,-0.1815185546875,20.751951217651367,-2.25830078125,1.03759765625
2754622,-0.0059814453125,0.2352294921875,-0.1473388671875,11.962889671325684,-4.69970703125,-0.4882812201976776
2754643,-0.013916015625,0.3001708984375,-0.3031005859375,11.474608421325684,-4.82177734375,-1.03759765625
2754660,-0.0150146484375,0.4012451171875,-0.378662109375,11.352538108825684,-4.45556640625,-1.03759765625
2754676,-0.0157470703125,0.4788818359375,-0.43212890625,11.291502952575684,-4.08935546875,-1.03759765625
2754697,-0.0140380859375,0.519775390625,-0.4830322265625,9.1552734375,-3.967284917831421,-1.5258787870407104
2754713,-0.01025390625,0.58447265625,-0.5303955078125,8.6669921875,-4.2724609375,-1.8310545682907104
2754746,-0.01416015625,0.7596435546875,-0.7080078125,9.3994140625,-2.44140625,-0.3662109076976776
2754762,-0.0169677734375,0.7437744140625,-0.694091796875,9.6435546875,-2.0751953125,-0.30517578125
2754778,-0.0211181640625,0.7264404296875,-0.6649169921875,9.58251953125,-2.0751953125,-0.7324218153953552
2754814,-0.010009765625,0.7821044921875,-0.6719970703125,9.46044921875,-2.197265625,-0.9765624403953552
2754830,-0.001708984375,0.8233642578125,-0.7288818359375,9.765625,-1.9531248807907104,-0.9155272841453552
2754846,0.0025634765625,0.8531494140625,-0.772216796875,10.681151390075684,-1.220703125,-0.6713866591453552
2754862,0.007568359375,0.868408203125,-0.778564453125,10.986327171325684,-0.9155272841453552,-0.54931640625
2754884,0.0194091796875,0.896240234375,-0.7861328125,11.474608421325684,-0.4272460639476776,-0.30517578125
2754900,0.02587890625,0.9158935546875,-0.80078125,11.535643577575684,-0.1831054538488388,-0.1220703050494194
2754917,0.021240234375,0.90478515625,-0.8013916015625,11.474608421325684,0.1831054538488388,0.2441406100988388
2754934,0.020263671875,0.90185546875,-0.79052734375,11.230467796325684,0.6103515625,0.4272460639476776
2754951,0.0242919921875,0.89013671875,-0.7862548828125,10.620116233825684,0.54931640625,0.4272460639476776
2754984,0.033935546875,0.86474609375,-0.785400390625,8.7890625,0.7934569716453552,0.30517578125
2755000,0.0263671875,0.839111328125,-0.7578125,7.385253429412842,0.9765624403953552,0.1831054538488388
2755016,0.0191650390625,0.832763671875,-0.7437744140625,6.530761241912842,0.9155272841453552,0.0
2755045,0.0189208984375,0.8184814453125,-0.77392578125,4.69970703125,0.30517578125,-0.4882812201976776
2755067,0.0174560546875,0.80859375,-0.77001953125,3.967284917831421,0.6713866591453552,-0.9765624403953552
2755083,0.0107421875,0.7735595703125,-0.739013671875,3.234863042831421,0.6103515625,-2.01416015625
2755099,0.010986328125,0.78369140625,-0.7012939453125,2.746581792831421,0.30517578125,-2.685546636581421
2755165,0.0234375,0.91650390625,-0.7933349609375,0.8544921278953552,-1.5869139432907104,-5.432128429412842
2755187,0.02392578125,0.961181640625,-0.8265380859375,1.0986328125,-1.7700194120407104,-5.554198741912842
2755203,0.0184326171875,0.979248046875,-0.836669921875,1.220703125,-1.6479490995407104,-5.493163585662842
2755220,0.0159912109375,0.96923828125,-0.8026123046875,1.0986328125,-1.4648436307907104,-5.432128429412842
2755270,0.0137939453125,1.398193359375,-1.2747802734375,-32.28759765625,0.6103515625,-6.958007335662842
2755303,0.03759765625,1.3873291015625,-0.8455810546875,-52.185054779052734,17.9443359375,15.014647483825684
2755320,-0.0504150390625,0.0048828125,-0.0968017578125,16.357421875,13.305663108825684,15.563963890075684
2755337,-0.0638427734375,0.1072998046875,-0.0904541015625,24.291990280151367,0.6103515625,2.197265625
2755353,-0.052978515625,0.3956298828125,-0.4237060546875,5.493163585662842,-4.82177734375,-6.469726085662842
2755370,-0.0068359375,0.593994140625,-0.4552001953125,4.08935546875,-2.3193359375,-2.50244140625
2755403,-0.00146484375,0.912109375,-0.6998291015625,4.0283203125,-2.3193359375,-2.25830078125
2755425,0.0587158203125,1.6785888671875,-1.411376953125,11.108397483825684,2.0751953125,3.540038824081421
2755441,0.0146484375,0.14453125,-0.1181640625,11.230467796325684,2.0751953125,3.540038824081421
2755458,0.025634765625,0.894775390625,-0.72119140625,6.530761241912842,-1.7089842557907104,-1.5869139432907104
2755475,0.0201416015625,1.122802734375,-0.9012451171875,6.530761241912842,0.0,1.3427733182907104
2755491,0.021240234375,0.6146240234375,-0.5294189453125,6.408690929412842,0.54931640625,2.0751953125
2755522,-0.0086669921875,0.835205078125,-0.7303466796875,5.737304210662842,-0.1220703050494194,0.0610351525247097
2755586,-0.000732421875,0.719970703125,-0.5869140625,3.784179449081421,-0.54931640625,0.30517578125
2755602,0.00830078125,0.7861328125,-0.6466064453125,3.356933355331421,-0.30517578125,0.1220703050494194
2755618,0.0198974609375,0.733642578125,-0.6241455078125,3.173827886581421,-0.3662109076976776,0.30517578125
2755638,0.0142822265625,0.7703857421875,-0.6082763671875,2.807616949081421,-0.1831054538488388,0.0610351525247097
2755658,0.0072021484375,0.763427734375,-0.6187744140625,2.25830078125,-0.2441406100988388,0.30517578125
2755674,0.011474609375,0.775390625,-0.6109619140625,1.7089842557907104,-0.30517578125,0.30517578125
2755705,0.0140380859375,0.75927734375,-0.61328125,0.9155272841453552,-0.30517578125,0.2441406100988388
2755726,0.0106201171875,0.7525634765625,-0.6234130859375,0.4882812201976776,-0.1831054538488388,0.30517578125
2755742,0.011474609375,0.7681884765625,-0.6181640625,0.4272460639476776,-0.1220703050494194,0.30517578125
2755759,0.01220703125,0.7537841796875,-0.6214599609375,0.30517578125,-0.1831054538488388,0.4272460639476776
2755776,0.0133056640625,0.760009765625,-0.6168212890625,0.1831054538488388,-0.1831054538488388,0.3662109076976776
2755792,0.010498046875,0.7540283203125,-0.6239013671875,0.1831054538488388,-0.2441406100988388,0.4272460639476776
2755826,0.010009765625,0.750244140625,-0.623046875,0.1220703050494194,-0.1831054538488388,0.3662109076976776
2755842,0.0096435546875,0.75146484375,-0.6231689453125,0.54931640625,-0.30517578125,0.4882812201976776
2755858,0.0103759765625,0.734130859375,-0.6285400390625,0.9765624403953552,-0.4272460639476776,0.30517578125
2755894,0.039306640625,0.7874755859375,-0.5908203125,1.03759765625,-3.845214605331421,-5.554198741912842
2755910,0.056396484375,0.980224609375,-0.6893310546875,-1.7089842557907104,-8.7890625,-9.8876953125
2755926,0.056884765625,1.3992919921875,-1.0167236328125,-1.8310545682907104,-10.009765625,-8.4228515625
2755942,0.0308837890625,1.86181640625,-1.8519287109375,5.859374523162842,-3.112792730331421,0.54931640625
2755964,0.0372314453125,1.774169921875,-1.8369140625,10.986327171325684,2.01416015625,2.685546636581421
2755980,0.0318603515625,1.4583740234375,-1.4066162109375,16.90673828125,6.835937023162842,6.347655773162842
2755997,0.031494140625,1.2071533203125,-1.162109375,19.53125,6.530761241912842,8.36181640625
2756014,0.00390625,0.8046875,-0.9688720703125,18.5546875,4.94384765625,6.469726085662842
2756030,-0.0045166015625,0.8720703125,-0.9525146484375,15.869139671325684,2.563476324081421,1.8920897245407104
2756064,-0.008056640625,1.125,-1.0789794921875,12.145995140075684,1.3427733182907104,0.1220703050494194
2756080,0.00537109375,1.1900634765625,-1.075927734375,11.657713890075684,4.39453125,2.746581792831421
2756096,0.0169677734375,1.1201171875,-0.946044921875,10.314940452575684,4.33349609375,3.234863042831421
2756125,-0.00390625,1.0716552734375,-0.8040771484375,3.906249761581421,2.685546636581421,1.7089842557907104
2756147,-0.01416015625,1.05615234375,-0.8125,-1.15966796875,3.356933355331421,2.563476324081421
2756163,0.0048828125,0.9566650390625,-0.71337890625,-2.868652105331421,3.662109136581421,2.44140625
2756180,0.0115966796875,0.966796875,-0.6976318359375,-6.713866710662842,3.051757574081421,1.2817381620407104
2756197,0.0164794921875,0.985107421875,-0.635009765625,-9.94873046875,3.662109136581421,1.6479490995407104
2756213,0.00732421875,0.897705078125,-0.579833984375,-11.840819358825684,3.601073980331421,1.7700194120407104
2756244,0.0106201171875,0.805419921875,-0.4990234375,-16.7236328125,3.417968511581421,1.2817381620407104
2756266,0.008544921875,0.71923828125,-0.4302978515625,-17.7001953125,3.479003667831421,1.0986328125
2756282,0.0028076171875,0.60791015625,-0.3546142578125,-17.822265625,3.417968511581421,0.7324218153953552
2756299,-0.0009765625,0.5576171875,-0.31640625,-18.24951171875,3.051757574081421,0.1220703050494194
2756316,-0.005126953125,0.439208984375,-0.236083984375,-17.9443359375,2.50244140625,-0.54931640625
2756332,-0.0035400390625,0.3389892578125,-0.1806640625,-17.578125,2.25830078125,-0.7934569716453552
2756364,-0.0048828125,0.196533203125,-0.0897216796875,-16.66259765625,1.3427733182907104,-2.01416015625
2756386,-0.008544921875,0.1248779296875,-0.032470703125,-16.17431640625,0.9765624403953552,-2.38037109375
2756402,-0.0101318359375,0.0318603515625,0.0369873046875,-16.05224609375,0.8544921278953552,-2.685546636581421
2756419,-0.00537109375,-0.0025634765625,0.1158447265625,-16.357421875,0.54931640625,-3.723144292831421
2756436,0.0184326171875,-0.0421142578125,0.3336181640625,-20.080564498901367,-0.4272460639476776,-5.615233898162842
2756452,0.01123046875,0.038330078125,0.1741943359375,-24.841306686401367,-0.8544921278953552,-6.835937023162842
2756484,0.0440673828125,0.5909423828125,-0.001708984375,-11.108397483825684,-3.051757574081421,-4.7607421875
2756506,0.0340576171875,0.379150390625,-0.0177001953125,4.150390625,-6.286620616912842,-4.94384765625
2756522,0.02294921875,0.3983154296875,-0.1336669921875,7.141112804412842,-7.080077648162842,-4.638671875
2756543,0.0338134765625,0.5545654296875,-0.284423828125,-0.7324218153953552,-8.30078125,-4.2724609375
2756564,0.01025390625,0.6376953125,-0.4317626953125,-9.6435546875,-6.835937023162842,-5.065917491912842
2756584,0.071044921875,0.8251953125,-0.8150634765625,-1.5869139432907104,-5.187987804412842,-2.990722417831421
2756602,0.0460205078125,0.902099609375,-0.917724609375,9.521484375,-3.356933355331421,-2.0751953125
2756667,0.009521484375,0.7891845703125,-0.839111328125,16.845703125,-1.03759765625,1.0986328125
2756738,0.01025390625,0.6033935546875,-0.57861328125,20.080564498901367,-1.15966796875,0.4882812201976776
2756755,0.0084228515625,0.5823974609375,-0.5291748046875,20.080564498901367,-1.0986328125,0.4882812201976776
2756788,0.0155029296875,0.591064453125,-0.491455078125,18.06640625,-1.9531248807907104,0.2441406100988388
2756805,0.0142822265625,0.606689453125,-0.505126953125,17.08984375,-1.8310545682907104,0.6103515625
2756821,0.0174560546875,0.5902099609375,-0.444580078125,16.4794921875,-1.7700194120407104,0.8544921278953552
2756859,0.0146484375,0.511474609375,-0.38916015625,13.793944358825684,-2.0751953125,1.4648436307907104
2756915,0.01025390625,0.3087158203125,-0.2021484375,11.657713890075684,-2.13623046875,1.3427733182907104
2756932,0.0089111328125,0.2911376953125,-0.1678466796875,9.27734375,-2.563476324081421,1.03759765625
2756965,0.005859375,0.2315673828125,-0.1246337890625,5.798339366912842,-2.868652105331421,0.6713866591453552
2756981,0.00439453125,0.2374267578125,-0.142822265625,3.601073980331421,-3.601073980331421,0.0
2756998,0.00341796875,0.3155517578125,-0.2216796875,1.6479490995407104,-4.21142578125,-0.7324218153953552
2757034,0.0130615234375,0.6268310546875,-0.5091552734375,0.4882812201976776,-4.21142578125,-0.6103515625
2757050,0.013916015625,0.67236328125,-0.554931640625,0.4272460639476776,-3.540038824081421,0.0610351525247097
2757066,0.0106201171875,0.712646484375,-0.57861328125,0.4272460639476776,-2.38037109375,0.9155272841453552
2757082,0.0142822265625,0.727783203125,-0.5791015625,0.2441406100988388,-2.3193359375,0.9765624403953552
2757099,0.01513671875,0.7490234375,-0.59521484375,-0.2441406100988388,-2.624511480331421,0.7324218153953552
2757120,0.01025390625,0.8038330078125,-0.6396484375,-0.2441406100988388,-2.44140625,0.8544921278953552
2757136,0.00244140625,0.80419921875,-0.6654052734375,-0.30517578125,-2.3193359375,1.0986328125
2757154,0.00537109375,0.801513671875,-0.6717529296875,-0.2441406100988388,-2.38037109375,1.03759765625
2757171,0.0125732421875,0.80029296875,-0.69482421875,-0.6103515625,-2.3193359375,0.6103515625
2757204,0.01806640625,0.8543701171875,-0.7374267578125,-1.5258787870407104,-1.5869139432907104,0.6713866591453552
2757221,0.0179443359375,0.8363037109375,-0.730224609375,-1.8920897245407104,-1.15966796875,0.7934569716453552
2757237,0.0213623046875,0.7978515625,-0.6683349609375,-3.051757574081421,-1.3427733182907104,0.1831054538488388
2757269,0.020263671875,0.848876953125,-0.7059326171875,-4.82177734375,-1.5869139432907104,-0.3662109076976776
2757285,0.0269775390625,0.8524169921875,-0.7093505859375,-5.432128429412842,-2.01416015625,-0.8544921278953552
2757301,0.02783203125,0.887939453125,-0.7449951171875,-5.676269054412842,-2.01416015625,-1.03759765625
2757317,0.0401611328125,0.9385986328125,-0.7801513671875,-5.859374523162842,-1.5258787870407104,-0.7934569716453552
2757392,0.0572509765625,0.947021484375,-0.786376953125,-7.751464366912842,-0.2441406100988388,0.3662109076976776
2757457,0.045654296875,0.98779296875,-0.8338623046875,-7.873534679412842,1.3427733182907104,2.44140625
2757474,0.04150390625,0.990234375,-0.83544921875,-7.751464366912842,1.7089842557907104,2.746581792831421
2757507,0.0184326171875,0.955078125,-0.81005859375,-7.385253429412842,2.38037109375,3.234863042831421
2757524,0.0145263671875,0.9259033203125,-0.80224609375,-7.385253429412842,2.0751953125,3.051757574081421
2757541,0.0135498046875,0.9251708984375,-0.819091796875,-7.324218273162842,1.9531248807907104,2.624511480331421
2757557,0.0181884765625,0.9295654296875,-0.8216552734375,-7.324218273162842,1.9531248807907104,2.3193359375
2757611,0.09814453125,-0.016845703125,0.1412353515625,-19.59228515625,10.253905296325684,13.305663108825684
2757637,-0.04736328125,0.447998046875,-0.4251708984375,-7.751464366912842,-5.249022960662842,-4.69970703125
2757654,-0.0020751953125,0.5535888671875,-0.47705078125,-21.057126998901367,-2.13623046875,-3.295898199081421
2757687,0.0533447265625,1.2655029296875,-1.17138671875,-14.953612327575684,-2.01416015625,-2.3193359375
2757761,-0.006103515625,0.991943359375,-1.0687255859375,2.197265625,1.7700194120407104,2.0751953125
2757778,0.081787109375,0.4547119140625,-0.4393310546875,2.50244140625,2.13623046875,1.6479490995407104
2757795,0.049560546875,0.705810546875,-0.6339111328125,1.4038084745407104,-0.6103515625,-0.6713866591453552
2757815,-0.0084228515625,0.63623046875,-0.602783203125,0.8544921278953552,0.3662109076976776,0.9765624403953552
2757831,-0.01513671875,0.622802734375,-0.6512451171875,0.4882812201976776,-0.4272460639476776,0.6103515625
2757848,0.0030517578125,0.7249755859375,-0.7681884765625,1.7089842557907104,-0.1831054538488388,0.6103515625
2757864,0.01708984375,0.6552734375,-0.7236328125,2.25830078125,0.1220703050494194,0.3662109076976776
2757880,0.015625,0.68994140625,-0.68017578125,2.50244140625,-0.1220703050494194,0.0610351525247097
2757896,-0.005615234375,0.715087890625,-0.6900634765625,2.624511480331421,-0.2441406100988388,0.1831054538488388
2757925,0.0255126953125,0.68212890625,-0.693603515625,2.624511480331421,-0.8544921278953552,-0.1220703050494194
2757947,0.041259765625,0.6883544921875,-0.711181640625,2.807616949081421,-2.197265625,-2.197265625
2757967,0.061279296875,0.746826171875,-0.6900634765625,1.7089842557907104,-5.859374523162842,-6.347655773162842
2757983,0.06494140625,1.1304931640625,-0.9757080078125,1.6479490995407104,-9.6435546875,-7.751464366912842
2758000,0.0029296875,1.60400390625,-1.6407470703125,3.906249761581421,-7.690429210662842,-4.21142578125
2758016,0.0289306640625,1.5772705078125,-1.774169921875,13.854979515075684,-1.4648436307907104,1.5869139432907104
2758037,0.061767578125,1.3128662109375,-1.5965576171875,23.498533248901367,2.50244140625,4.33349609375
2758102,-0.02294921875,0.7845458984375,-1.0400390625,27.160642623901367,-1.2817381620407104,-0.2441406100988388
2758123,0.013916015625,0.9884033203125,-1.115966796875,25.634763717651367,-1.8920897245407104,-0.8544921278953552
2758156,-0.0120849609375,1.0489501953125,-1.0584716796875,24.108884811401367,0.0610351525247097,2.3193359375
2758180,-0.0098876953125,0.975341796875,-0.9677734375,20.996091842651367,0.0610351525247097,2.25830078125
2758197,-0.0030517578125,0.960693359375,-0.9205322265625,16.05224609375,0.0,1.9531248807907104
2758214,0.00048828125,0.9107666015625,-0.83203125,10.375975608825684,-0.3662109076976776,1.220703125
2758234,-0.00341796875,0.9130859375,-0.782470703125,4.94384765625,-1.03759765625,0.6713866591453552
2758251,0.0009765625,0.980224609375,-0.836181640625,1.03759765625,-0.8544921278953552,0.30517578125
2758267,0.0086669921875,0.9935302734375,-0.793212890625,-0.6713866591453552,-0.30517578125,0.9155272841453552
2758283,0.0157470703125,0.958740234375,-0.7215576171875,-5.126952648162842,0.9765624403953552,1.5258787870407104
2758331,0.0185546875,0.7755126953125,-0.4786376953125,-15.014647483825684,0.4882812201976776,2.01416015625
2758363,0.0098876953125,0.6436767578125,-0.3822021484375,-17.27294921875,0.4272460639476776,1.7700194120407104
2758380,0.0079345703125,0.539306640625,-0.3157958984375,-17.822265625,0.3662109076976776,1.7700194120407104
2758397,0.010009765625,0.4888916015625,-0.2724609375,-18.24951171875,0.30517578125,1.7089842557907104
2758413,0.009033203125,0.356689453125,-0.1898193359375,-18.4326171875,0.3662109076976776,1.7700194120407104
2758430,0.005126953125,0.22509765625,-0.0902099609375,-18.12744140625,-0.1220703050494194,1.3427733182907104
2758463,-0.0003662109375,0.086181640625,0.009033203125,-18.49365234375,-0.6713866591453552,0.4272460639476776
2758480,0.0018310546875,0.029296875,0.10302734375,-21.240232467651367,-0.54931640625,0.0610351525247097
2758501,0.0037841796875,0.010986328125,0.1259765625,-23.437498092651367,-0.7324218153953552,0.0
2758517,0.0096435546875,-0.0362548828125,0.2042236328125,-29.785154342651367,-0.8544921278953552,-0.6713866591453552
2758534,0.0084228515625,0.0390625,0.2073974609375,-34.72900390625,-0.4882812201976776,-1.6479490995407104
2758551,0.0306396484375,0.449462890625,0.034423828125,-31.982419967651367,-0.8544921278953552,-1.4648436307907104
2758584,0.05029296875,0.5394287109375,0.14208984375,-1.0986328125,-6.408690929412842,-0.2441406100988388
2758601,0.0482177734375,0.4534912109375,-0.0914306640625,3.417968511581421,-9.09423828125,1.3427733182907104
2758617,0.051025390625,0.5887451171875,-0.3914794921875,2.38037109375,-9.33837890625,0.9765624403953552
2758649,0.009521484375,0.7943115234375,-0.736572265625,0.2441406100988388,-7.019042491912842,2.685546636581421
2758697,0.02685546875,0.9378662109375,-1.0921630859375,3.234863042831421,-2.44140625,3.295898199081421
2758719,0.030029296875,0.8759765625,-1.183837890625,12.634276390075684,-1.4648436307907104,4.2724609375
2758736,0.0123291015625,0.7901611328125,-1.0911865234375,18.9208984375,0.2441406100988388,5.126952648162842
2758773,0.0045166015625,0.6353759765625,-0.72509765625,22.399900436401367,0.54931640625,3.967284917831421
2758790,-0.0008544921875,0.55859375,-0.6275634765625,22.644041061401367,0.1220703050494194,3.662109136581421
2758806,0.000244140625,0.5238037109375,-0.57177734375,22.705076217651367,0.1220703050494194,3.479003667831421
2758823,0.0013427734375,0.4771728515625,-0.48193359375,21.484373092651367,0.0,3.112792730331421
2758840,-0.00048828125,0.46728515625,-0.3880615234375,20.01953125,-0.1831054538488388,2.868652105331421
2758861,-0.006103515625,0.448486328125,-0.3642578125,18.98193359375,-0.30517578125,2.990722417831421
2758877,-0.000732421875,0.4091796875,-0.29296875,16.29638671875,-0.8544921278953552,2.929687261581421
2758944,-0.0111083984375,0.3541259765625,-0.2796630859375,13.122557640075684,-2.0751953125,1.7089842557907104
2758960,-0.0128173828125,0.334716796875,-0.269775390625,12.084959983825684,-2.0751953125,1.15966796875
2758977,-0.01025390625,0.3251953125,-0.232666015625,11.535643577575684,-2.25830078125,1.03759765625
2759009,-0.011474609375,0.311279296875,-0.241943359375,8.23974609375,-3.295898199081421,-0.2441406100988388
2759025,-0.0115966796875,0.328125,-0.261474609375,5.798339366912842,-3.906249761581421,-1.220703125
2759041,-0.0164794921875,0.39892578125,-0.332763671875,4.08935546875,-4.45556640625,-2.13623046875
2759057,-0.0189208984375,0.4482421875,-0.3768310546875,3.356933355331421,-4.45556640625,-2.563476324081421
2759077,-0.01904296875,0.53125,-0.461669921875,2.13623046875,-4.5166015625,-2.868652105331421
2759093,-0.0150146484375,0.592041015625,-0.544677734375,1.3427733182907104,-4.21142578125,-3.356933355331421
2759109,-0.004638671875,0.6690673828125,-0.590576171875,0.9155272841453552,-4.150390625,-3.662109136581421
2759125,-0.00341796875,0.70263671875,-0.6339111328125,0.7324218153953552,-3.906249761581421,-4.150390625
2759146,0.0018310546875,0.7437744140625,-0.645751953125,0.7934569716453552,-3.540038824081421,-4.21142578125
2759166,-0.00048828125,0.751708984375,-0.6636962890625,0.6713866591453552,-3.295898199081421,-4.2724609375
2759181,0.0040283203125,0.7181396484375,-0.6494140625,0.54931640625,-3.051757574081421,-4.2724609375
2759198,0.0086669921875,0.7034912109375,-0.63623046875,0.1831054538488388,-2.868652105331421,-4.8828125
2759214,0.01708984375,0.7059326171875,-0.6380615234375,0.0,-2.990722417831421,-5.310058116912842
2759248,0.02978515625,0.7510986328125,-0.6884765625,0.0610351525247097,-2.624511480331421,-5.920409679412842
2759264,0.038818359375,0.793212890625,-0.7462158203125,0.9155272841453552,-2.0751953125,-6.042479991912842
2759280,0.0457763671875,0.8533935546875,-0.8096923828125,1.7700194120407104,-1.6479490995407104,-5.920409679412842
2759296,0.0487060546875,0.8651123046875,-0.8096923828125,3.662109136581421,-0.1831054538488388,-5.065917491912842
2759314,0.053466796875,0.8321533203125,-0.7601318359375,5.554198741912842,0.54931640625,-4.57763671875
2759373,0.05859375,0.882080078125,-0.82080078125,11.901854515075684,1.5869139432907104,-3.967284917831421
2759389,0.065185546875,0.89013671875,-0.8148193359375,15.563963890075684,2.38037109375,-3.540038824081421
2759406,0.0650634765625,0.9169921875,-0.8211669921875,19.34814453125,2.929687261581421,-3.356933355331421
2759422,0.0606689453125,0.9437255859375,-0.834716796875,23.010251998901367,3.601073980331421,-2.685546636581421
2759439,0.0609130859375,0.9501953125,-0.8218994140625,24.719236373901367,3.967284917831421,-2.38037109375
2759455,0.058837890625,0.9219970703125,-0.786376953125,27.465818405151367,3.967284917831421,-2.3193359375
2759486,0.052001953125,0.9764404296875,-0.8050537109375,30.456541061401367,4.33349609375,-1.8310545682907104
2759507,0.0462646484375,0.962646484375,-0.787841796875,31.433103561401367,4.45556640625,-1.8920897245407104
2759523,0.0411376953125,0.9647216796875,-0.7762451171875,31.738279342651367,4.45556640625,-1.8920897245407104
2759540,0.0399169921875,0.97509765625,-0.7674560546875,31.494138717651367,4.5166015625,-1.9531248807907104
2759557,0.032470703125,0.987060546875,-0.7557373046875,30.700681686401367,4.7607421875,-1.4648436307907104
2759573,0.0299072265625,0.93505859375,-0.6995849609375,30.151365280151367,5.0048828125,-1.0986328125
2759607,0.240966796875,2.5687255859375,-2.4669189453125,-242.98094177246094,30.700681686401367,13.305663108825684
2759623,0.1043701171875,1.514404296875,-0.399658203125,-216.43064880371094,48.095699310302734,50.720211029052734
2759639,0.016357421875,-0.500244140625,0.6953125,-24.658201217651367,18.4326171875,26.489255905151367
2759675,-0.173095703125,0.274658203125,-0.3369140625,-18.00537109375,-2.807616949081421,-9.58251953125
2759697,-0.0145263671875,1.354736328125,-1.041015625,-23.864744186401367,1.2817381620407104,-5.432128429412842
2759713,0.0701904296875,1.7403564453125,-1.313720703125,-27.465818405151367,4.638671875,-1.5869139432907104
2759730,0.128173828125,0.434326171875,-0.2406005859375,7.995604991912842,1.9531248807907104,4.69970703125
2759747,-0.1019287109375,0.1822509765625,-0.166259765625,12.329100608825684,-2.197265625,0.7934569716453552
2759780,0.0135498046875,0.802001953125,-0.7896728515625,10.314940452575684,0.7324218153953552,1.220703125
2759797,0.0023193359375,0.512451171875,-0.5350341796875,9.6435546875,-1.6479490995407104,-0.30517578125
2759813,0.03076171875,0.8035888671875,-0.7376708984375,10.620116233825684,-0.1831054538488388,0.1831054538488388
2759845,-0.003173828125,0.721435546875,-0.6533203125,10.986327171325684,-0.6103515625,-0.30517578125
2759906,0.0074462890625,0.736328125,-0.6898193359375,10.620116233825684,-0.6713866591453552,-0.0610351525247097
2759928,-0.0068359375,0.7100830078125,-0.652099609375,10.681151390075684,-0.7324218153953552,-0.1220703050494194
2759944,0.0040283203125,0.728515625,-0.651611328125,10.803221702575684,-0.6713866591453552,-0.30517578125
2759961,0.0225830078125,0.748779296875,-0.660888671875,10.620116233825684,-0.7934569716453552,-0.0610351525247097
2759978,0.0218505859375,0.7325439453125,-0.6507568359375,10.620116233825684,-0.6713866591453552,0.0
2759994,-0.0047607421875,0.727294921875,-0.6536865234375,10.559081077575684,-0.7934569716453552,-0.0610351525247097
2760025,0.0128173828125,0.7244873046875,-0.6458740234375,11.047362327575684,-0.7934569716453552,-0.1831054538488388
2760041,0.0159912109375,0.73486328125,-0.650146484375,11.047362327575684,-0.7324218153953552,-0.30517578125
2760057,0.0089111328125,0.744873046875,-0.642333984375,10.864256858825684,-0.7324218153953552,-0.0610351525247097
2760089,0.0118408203125,0.7479248046875,-0.6419677734375,10.620116233825684,-0.8544921278953552,-0.1220703050494194
2760105,0.013427734375,0.7496337890625,-0.639404296875,10.742186546325684,-0.7324218153953552,-0.2441406100988388
2760121,0.011474609375,0.7374267578125,-0.6287841796875,10.803221702575684,-0.7324218153953552,-0.1220703050494194
2760137,0.0107421875,0.7489013671875,-0.630615234375,10.864256858825684,-0.6713866591453552,-0.1831054538488388
2760162,0.0103759765625,0.7587890625,-0.633544921875,10.803221702575684,-0.7934569716453552,-0.1831054538488388
2760178,0.012939453125,0.7569580078125,-0.6170654296875,10.681151390075684,-0.7324218153953552,-0.2441406100988388
2760195,0.0133056640625,0.7537841796875,-0.6279296875,10.620116233825684,-0.7324218153953552,-0.0610351525247097
2760212,0.01416015625,0.7569580078125,-0.6143798828125,10.620116233825684,-0.6713866591453552,-0.1220703050494194
2760228,0.0096435546875,0.75830078125,-0.620849609375,10.559081077575684,-0.7324218153953552,-0.1831054538488388
2760262,0.0145263671875,0.755126953125,-0.609375,10.437010765075684,-0.7324218153953552,-0.1220703050494194
2760279,0.0126953125,0.77490234375,-0.6170654296875,10.437010765075684,-0.7934569716453552,-0.0610351525247097
2760300,0.011474609375,0.7674560546875,-0.612060546875,10.437010765075684,-0.7324218153953552,-0.1220703050494194
2760316,0.0120849609375,0.766357421875,-0.6099853515625,10.314940452575684,-0.7934569716453552,-0.1220703050494194
2760334,0.013427734375,0.7716064453125,-0.6083984375,10.192870140075684,-0.6103515625,-0.1831054538488388
2760351,0.0135498046875,0.771484375,-0.6060791015625,10.131834983825684,-0.7324218153953552,-0.1220703050494194
2760384,0.01416015625,0.7685546875,-0.5953369140625,9.94873046875,-0.7324218153953552,-0.1220703050494194
2760445,0.0135498046875,0.776123046875,-0.5865478515625,9.58251953125,-0.7324218153953552,-0.1220703050494194
2760467,0.0137939453125,0.7823486328125,-0.58642578125,9.521484375,-0.7324218153953552,-0.0610351525247097
2760483,0.0152587890625,0.7867431640625,-0.589599609375,9.3994140625,-0.6103515625,-0.1220703050494194
2760504,0.0147705078125,0.7861328125,-0.580078125,9.27734375,-0.6713866591453552,-0.1220703050494194
2760521,0.0140380859375,0.79150390625,-0.5843505859375,9.21630859375,-0.6103515625,-0.0610351525247097
2760537,0.01513671875,0.783447265625,-0.579345703125,9.1552734375,-0.6713866591453552,-0.0610351525247097
2760574,0.01416015625,0.7938232421875,-0.5794677734375,8.9111328125,-0.6713866591453552,-0.1220703050494194
2760590,0.0169677734375,0.7982177734375,-0.571533203125,8.7890625,-0.6713866591453552,-0.0610351525247097
2760606,0.0172119140625,0.7984619140625,-0.5731201171875,8.60595703125,-0.6103515625,-0.0610351525247097
2760622,0.016357421875,0.7960205078125,-0.5692138671875,8.544921875,-0.6713866591453552,-0.0610351525247097
2760639,0.015625,0.7965087890625,-0.570068359375,8.36181640625,-0.6103515625,-0.1220703050494194
2760660,0.0166015625,0.8009033203125,-0.5677490234375,8.30078125,-0.6103515625,-0.0610351525247097
2760676,0.0167236328125,0.802978515625,-0.564697265625,8.30078125,-0.6103515625,-0.0610351525247097
2760693,0.0159912109375,0.803466796875,-0.5626220703125,8.1787109375,-0.6103515625,-0.0610351525247097
2760710,0.01611328125,0.8045654296875,-0.5616455078125,8.056640625,-0.6103515625,-0.0610351525247097
2760743,0.016845703125,0.806640625,-0.5596923828125,7.751464366912842,-0.6103515625,0.0
2760760,0.01611328125,0.8050537109375,-0.5574951171875,7.629394054412842,-0.6103515625,-0.0610351525247097
2760776,0.0181884765625,0.8131103515625,-0.555419921875,7.507323741912842,-0.6103515625,0.0
2760805,0.016845703125,0.8092041015625,-0.5491943359375,7.385253429412842,-0.6103515625,0.0
2760827,0.01611328125,0.812255859375,-0.5516357421875,7.324218273162842,-0.6713866591453552,0.0
2760843,0.0174560546875,0.8154296875,-0.5501708984375,7.080077648162842,-0.54931640625,0.0
2760860,0.0179443359375,0.8115234375,-0.5484619140625,7.019042491912842,-0.54931640625,0.0
2760877,0.017578125,0.81494140625,-0.5479736328125,6.958007335662842,-0.4882812201976776,0.0
2760893,0.017333984375,0.8134765625,-0.547119140625,6.896972179412842,-0.4882812201976776,0.0
2760926,0.0181884765625,0.818603515625,-0.5416259765625,6.713866710662842,-0.54931640625,0.0
2760943,0.018310546875,0.818603515625,-0.538330078125,6.530761241912842,-0.54931640625,0.0
2760959,0.018310546875,0.818359375,-0.5406494140625,6.408690929412842,-0.54931640625,0.0
2760995,0.01904296875,0.81689453125,-0.53466796875,6.286620616912842,-0.4882812201976776,0.0
2761043,0.017578125,0.8228759765625,-0.53271484375,6.042479991912842,-0.54931640625,0.0
2761060,0.0189208984375,0.8297119140625,-0.536376953125,5.981444835662842,-0.4882812201976776,0.0610351525247097
2761081,0.0189208984375,0.827880859375,-0.532470703125,5.920409679412842,-0.4882812201976776,0.1220703050494194
2761097,0.018798828125,0.82373046875,-0.525634765625,5.737304210662842,-0.4272460639476776,0.0
2761114,0.017822265625,0.8187255859375,-0.5223388671875,5.676269054412842,-0.4882812201976776,0.0
2761131,0.01611328125,0.7747802734375,-0.4892578125,5.676269054412842,-0.54931640625,0.0
2761164,0.0240478515625,0.8482666015625,-0.545166015625,5.432128429412842,-0.3662109076976776,0.1220703050494194
2761180,0.0118408203125,0.761474609375,-0.4755859375,5.432128429412842,-0.54931640625,-0.0610351525247097
2761196,0.0244140625,0.875244140625,-0.5465087890625,5.310058116912842,-0.4882812201976776,0.0
2761228,0.0167236328125,0.8291015625,-0.51611328125,5.0048828125,-0.54931640625,0.0610351525247097
2761244,0.0123291015625,0.832763671875,-0.521484375,4.94384765625,-0.4882812201976776,0.0610351525247097
2761260,0.0211181640625,0.824462890625,-0.5113525390625,4.94384765625,-0.4882812201976776,0.1220703050494194
2761276,0.0228271484375,0.8436279296875,-0.5250244140625,4.8828125,-0.54931640625,0.0610351525247097
2761301,0.015625,0.818603515625,-0.52880859375,4.57763671875,0.0610351525247097,-0.4882812201976776
2761317,0.0208740234375,0.8634033203125,-0.45361328125,0.8544921278953552,-0.2441406100988388,0.2441406100988388
2761334,0.009521484375,0.7923583984375,-0.5865478515625,-3.601073980331421,-0.8544921278953552,1.0986328125
2761355,0.0521240234375,0.8575439453125,-0.5198974609375,-1.2817381620407104,-0.1831054538488388,0.4882812201976776
2761371,0.0028076171875,0.8275146484375,-0.501953125,-1.5258787870407104,0.1831054538488388,0.1831054538488388
2761405,0.0179443359375,0.84521484375,-0.5108642578125,-1.6479490995407104,0.0,0.1220703050494194
2761421,0.02978515625,0.818359375,-0.5267333984375,-1.8920897245407104,-0.3662109076976776,0.4272460639476776
2761437,0.02783203125,0.8382568359375,-0.5252685546875,-1.7700194120407104,-0.1220703050494194,0.3662109076976776
2761469,0.0086669921875,0.833984375,-0.523681640625,-0.9765624403953552,-0.2441406100988388,0.2441406100988388
2761485,0.0145263671875,0.82177734375,-0.51953125,-1.0986328125,-0.2441406100988388,0.2441406100988388
2761501,0.028564453125,0.8319091796875,-0.5234375,-1.03759765625,-0.1831054538488388,0.3662109076976776
2761517,0.023193359375,0.833984375,-0.5257568359375,-1.03759765625,-0.2441406100988388,0.3662109076976776
2761537,0.012939453125,0.830078125,-0.525390625,-0.9765624403953552,-0.1831054538488388,0.30517578125
2761559,0.0120849609375,0.8309326171875,-0.5257568359375,-0.6103515625,-0.1831054538488388,0.2441406100988388
2761575,0.0220947265625,0.833740234375,-0.521484375,-0.4272460639476776,-0.1220703050494194,0.1220703050494194
2761592,0.0238037109375,0.834228515625,-0.5281982421875,-0.4272460639476776,-0.2441406100988388,0.2441406100988388
2761609,0.0167236328125,0.8221435546875,-0.517333984375,-0.30517578125,-0.2441406100988388,0.30517578125
2761642,0.019775390625,0.831298828125,-0.5279541015625,0.1220703050494194,-0.2441406100988388,0.2441406100988388
2761659,0.02099609375,0.82177734375,-0.5277099609375,0.30517578125,-0.1831054538488388,0.1831054538488388
2761675,0.021240234375,0.83056640625,-0.5225830078125,0.3662109076976776,-0.2441406100988388,0.1831054538488388
2761707,0.0174560546875,0.82568359375,-0.5284423828125,0.54931640625,-0.2441406100988388,0.2441406100988388
2761723,0.0174560546875,0.8228759765625,-0.5286865234375,0.7324218153953552,-0.3662109076976776,0.2441406100988388
2761739,0.0205078125,0.833984375,-0.5281982421875,0.9155272841453552,-0.1831054538488388,0.30517578125
2761775,0.0181884765625,0.8299560546875,-0.525146484375,1.220703125,-0.30517578125,0.2441406100988388
2761791,0.017578125,0.8233642578125,-0.5272216796875,1.2817381620407104,-0.3662109076976776,0.1831054538488388
2761807,0.020263671875,0.8236083984375,-0.52490234375,1.4038084745407104,-0.30517578125,0.1831054538488388
2761823,0.02001953125,0.8280029296875,-0.531982421875,1.5258787870407104,-0.30517578125,0.2441406100988388
2761840,0.017822265625,0.8311767578125,-0.5228271484375,1.6479490995407104,-0.30517578125,0.2441406100988388
2761861,0.016845703125,0.8289794921875,-0.5234375,1.7089842557907104,-0.3662109076976776,0.2441406100988388
2761877,0.0201416015625,0.828369140625,-0.5224609375,1.8920897245407104,-0.30517578125,0.1831054538488388
2761894,0.019775390625,0.8280029296875,-0.5294189453125,1.8310545682907104,-0.3662109076976776,0.1831054538488388
2761911,0.0184326171875,0.830322265625,-0.5218505859375,1.9531248807907104,-0.30517578125,0.1831054538488388
2761944,0.0211181640625,0.8310546875,-0.5206298828125,2.197265625,-0.3662109076976776,0.2441406100988388
2761960,0.0201416015625,0.82763671875,-0.52685546875,2.197265625,-0.30517578125,0.1831054538488388
2761976,0.01953125,0.830078125,-0.522705078125,2.3193359375,-0.30517578125,0.1220703050494194
2762008,0.0189208984375,0.8319091796875,-0.5234375,2.3193359375,-0.30517578125,0.1831054538488388
2762024,0.0206298828125,0.8294677734375,-0.5230712890625,2.44140625,-0.3662109076976776,0.1831054538488388
2762040,0.0194091796875,0.8338623046875,-0.5185546875,2.563476324081421,-0.30517578125,0.1220703050494194
2762056,0.018310546875,0.8330078125,-0.521484375,2.563476324081421,-0.30517578125,0.1220703050494194
2762076,0.0191650390625,0.831298828125,-0.519287109375,2.624511480331421,-0.30517578125,0.0610351525247097
2762098,0.01953125,0.83154296875,-0.5223388671875,2.685546636581421,-0.4272460639476776,0.1831054538488388
2762114,0.020263671875,0.834716796875,-0.51708984375,2.746581792831421,-0.3662109076976776,0.2441406100988388
2762131,0.01904296875,0.832763671875,-0.51904296875,2.685546636581421,-0.3662109076976776,0.1831054538488388
2762148,0.0198974609375,0.833984375,-0.515380859375,2.807616949081421,-0.4272460639476776,0.1831054538488388
2762181,0.0205078125,0.8359375,-0.517333984375,2.868652105331421,-0.3662109076976776,0.1220703050494194
2762198,0.01953125,0.835693359375,-0.5206298828125,2.868652105331421,-0.30517578125,0.1220703050494194
2762214,0.0196533203125,0.8359375,-0.5146484375,2.929687261581421,-0.3662109076976776,0.1831054538488388
2762245,0.0205078125,0.8349609375,-0.5115966796875,2.990722417831421,-0.3662109076976776,0.1831054538488388
2762266,0.019287109375,0.83544921875,-0.51611328125,2.868652105331421,-0.30517578125,0.0610351525247097
2762282,0.0194091796875,0.8365478515625,-0.5135498046875,2.929687261581421,-0.3662109076976776,0.0610351525247097
