tMillis,ax,ay,az,gx,gy,gz
787554,-0.017822265625,0.5572509765625,-0.80517578125,0.6103515625,-0.1831054538488388,0.2441406100988388
787570,-0.018798828125,0.556884765625,-0.8056640625,0.7324218153953552,-0.1831054538488388,0.2441406100988388
787586,-0.0185546875,0.5577392578125,-0.805908203125,0.7324218153953552,-0.1831054538488388,0.2441406100988388
787603,-0.0179443359375,0.55859375,-0.8060302734375,0.6713866591453552,-0.30517578125,0.2441406100988388
787619,-0.01806640625,0.5587158203125,-0.806396484375,0.6713866591453552,-0.2441406100988388,0.30517578125
787667,-0.0189208984375,0.5582275390625,-0.806396484375,0.6713866591453552,-0.30517578125,0.1831054538488388
787729,-0.018310546875,0.558837890625,-0.80615234375,0.7324218153953552,-0.2441406100988388,0.2441406100988388
787746,-0.017822265625,0.5587158203125,-0.8082275390625,0.7324218153953552,-0.1831054538488388,0.1831054538488388
787763,-0.0186767578125,0.5595703125,-0.8079833984375,0.7934569716453552,-0.1831054538488388,0.2441406100988388
787783,-0.0189208984375,0.5589599609375,-0.8060302734375,0.7934569716453552,-0.2441406100988388,0.2441406100988388
787799,-0.0184326171875,0.55810546875,-0.8067626953125,0.7934569716453552,-0.2441406100988388,0.1831054538488388
787829,-0.0196533203125,0.5582275390625,-0.8043212890625,0.7324218153953552,-0.1831054538488388,0.30517578125
787884,-0.0189208984375,0.5577392578125,-0.8062744140625,0.7324218153953552,-0.1831054538488388,0.30517578125
787968,-0.01806640625,0.5594482421875,-0.8056640625,0.7934569716453552,-0.2441406100988388,0.2441406100988388
787985,-0.0174560546875,0.559326171875,-0.8070068359375,0.7324218153953552,-0.2441406100988388,0.1831054538488388
788002,-0.0179443359375,0.556884765625,-0.804931640625,0.7324218153953552,-0.1831054538488388,0.1831054538488388
788022,-0.018310546875,0.5574951171875,-0.8057861328125,0.7324218153953552,-0.1831054538488388,0.1831054538488388
788039,-0.017578125,0.55810546875,-0.80517578125,0.6713866591453552,-0.1831054538488388,0.2441406100988388
788055,-0.017333984375,0.5584716796875,-0.8050537109375,0.6713866591453552,-0.1831054538488388,0.30517578125
788072,-0.0179443359375,0.5594482421875,-0.8077392578125,0.6713866591453552,-0.1831054538488388,0.2441406100988388
788088,-0.018798828125,0.55810546875,-0.8070068359375,0.7324218153953552,-0.1831054538488388,0.2441406100988388
788105,-0.01904296875,0.5579833984375,-0.806396484375,0.7324218153953552,-0.1831054538488388,0.2441406100988388
788126,-0.01708984375,0.5587158203125,-0.806640625,0.7934569716453552,-0.1831054538488388,0.2441406100988388
788142,-0.0181884765625,0.557861328125,-0.8038330078125,0.7324218153953552,-0.1831054538488388,0.2441406100988388
788159,-0.0189208984375,0.5592041015625,-0.80419921875,0.6713866591453552,-0.1831054538488388,0.2441406100988388
788192,-0.0179443359375,0.55908203125,-0.8050537109375,0.7324218153953552,-0.1831054538488388,0.2441406100988388
788209,-0.0185546875,0.5587158203125,-0.805908203125,0.7324218153953552,-0.1831054538488388,0.2441406100988388
788226,-0.0181884765625,0.558349609375,-0.805419921875,0.7324218153953552,-0.1831054538488388,0.2441406100988388
788242,-0.01806640625,0.55859375,-0.806640625,0.7324218153953552,-0.2441406100988388,0.2441406100988388
788262,-0.0189208984375,0.55908203125,-0.807861328125,0.6103515625,-0.1831054538488388,0.2441406100988388
788284,-0.0185546875,0.5582275390625,-0.8046875,0.6713866591453552,-0.1831054538488388,0.2441406100988388
788300,-0.0177001953125,0.55810546875,-0.8055419921875,0.6713866591453552,-0.1831054538488388,0.30517578125
788317,-0.0177001953125,0.55908203125,-0.806884765625,0.6103515625,-0.2441406100988388,0.30517578125
788334,-0.0185546875,0.558837890625,-0.8056640625,0.6103515625,-0.2441406100988388,0.2441406100988388
788367,-0.0185546875,0.558349609375,-0.804443359375,0.6713866591453552,-0.2441406100988388,0.30517578125
788384,-0.0174560546875,0.557861328125,-0.806884765625,0.6103515625,-0.1831054538488388,0.2441406100988388
788400,-0.0185546875,0.55859375,-0.8065185546875,0.6103515625,-0.2441406100988388,0.2441406100988388
788432,-0.01708984375,0.5589599609375,-0.8050537109375,0.6103515625,-0.1220703050494194,0.30517578125
788448,-0.0172119140625,0.5584716796875,-0.804443359375,0.6103515625,-0.1220703050494194,0.2441406100988388
788464,-0.0186767578125,0.5587158203125,-0.8050537109375,0.6103515625,-0.1831054538488388,0.1831054538488388
788497,-0.018310546875,0.5595703125,-0.807373046875,0.6713866591453552,-0.1831054538488388,0.1831054538488388
788518,-0.0174560546875,0.5589599609375,-0.8060302734375,0.6103515625,-0.0610351525247097,0.30517578125
788534,-0.0191650390625,0.556884765625,-0.8045654296875,0.6103515625,-0.1220703050494194,0.3662109076976776
788551,-0.01904296875,0.5595703125,-0.806884765625,0.6103515625,-0.1220703050494194,0.30517578125
788568,-0.0186767578125,0.5587158203125,-0.8048095703125,0.7324218153953552,-0.1831054538488388,0.30517578125
788584,-0.01904296875,0.557373046875,-0.804931640625,0.6713866591453552,-0.1831054538488388,0.30517578125
788601,-0.01904296875,0.5587158203125,-0.8057861328125,0.6713866591453552,-0.1831054538488388,0.2441406100988388
788622,-0.01806640625,0.55908203125,-0.8062744140625,0.6103515625,-0.1831054538488388,0.2441406100988388
788638,-0.0181884765625,0.558837890625,-0.8065185546875,0.6713866591453552,-0.1831054538488388,0.2441406100988388
788654,-0.0191650390625,0.557861328125,-0.805908203125,0.6103515625,-0.30517578125,0.1831054538488388
788670,-0.0191650390625,0.557861328125,-0.8057861328125,0.6103515625,-0.2441406100988388,0.1831054538488388
788687,-0.018798828125,0.55810546875,-0.80615234375,0.6103515625,-0.1220703050494194,0.2441406100988388
788708,-0.0186767578125,0.5577392578125,-0.806884765625,0.6713866591453552,-0.2441406100988388,0.2441406100988388
788724,-0.0189208984375,0.55859375,-0.8050537109375,0.6713866591453552,-0.30517578125,0.2441406100988388
788794,-0.0185546875,0.5579833984375,-0.8052978515625,0.6713866591453552,-0.1831054538488388,0.2441406100988388
788810,-0.017822265625,0.5572509765625,-0.8060302734375,0.6713866591453552,-0.1831054538488388,0.2441406100988388
788827,-0.017333984375,0.558349609375,-0.8060302734375,0.6713866591453552,-0.1831054538488388,0.1831054538488388
788843,-0.0186767578125,0.55908203125,-0.8050537109375,0.6103515625,-0.2441406100988388,0.1831054538488388
788897,-0.017333984375,0.5576171875,-0.8048095703125,0.6713866591453552,-0.1220703050494194,0.30517578125
788923,-0.0181884765625,0.5594482421875,-0.8065185546875,0.6713866591453552,-0.2441406100988388,0.2441406100988388
788940,-0.01806640625,0.5595703125,-0.806884765625,0.6713866591453552,-0.1831054538488388,0.2441406100988388
788973,-0.0189208984375,0.5577392578125,-0.806396484375,0.6713866591453552,-0.2441406100988388,0.2441406100988388
789006,-0.0181884765625,0.55908203125,-0.8052978515625,0.6713866591453552,-0.1831054538488388,0.2441406100988388
789049,-0.0184326171875,0.5577392578125,-0.8046875,0.6713866591453552,-0.2441406100988388,0.1831054538488388
789083,-0.0189208984375,0.558349609375,-0.8056640625,0.6713866591453552,-0.1831054538488388,0.2441406100988388
789107,-0.019775390625,0.5596923828125,-0.8065185546875,0.7324218153953552,-0.1831054538488388,0.2441406100988388
789140,-0.01806640625,0.5579833984375,-0.803955078125,0.6103515625,-0.1831054538488388,0.2441406100988388
789164,-0.01904296875,0.5595703125,-0.806396484375,0.6713866591453552,-0.1831054538488388,0.2441406100988388
789181,-0.0191650390625,0.55908203125,-0.80615234375,0.6103515625,-0.1831054538488388,0.2441406100988388
789214,-0.018798828125,0.558349609375,-0.80224609375,0.6713866591453552,-0.1831054538488388,0.30517578125
789231,-0.019775390625,0.5592041015625,-0.80322265625,0.7324218153953552,-0.30517578125,0.30517578125
789248,-0.0181884765625,0.558837890625,-0.8056640625,0.6103515625,-0.1831054538488388,0.2441406100988388
789264,-0.017333984375,0.5584716796875,-0.8050537109375,0.6103515625,-0.1831054538488388,0.2441406100988388
789284,-0.018798828125,0.5587158203125,-0.8040771484375,0.7324218153953552,-0.1831054538488388,0.2441406100988388
789300,-0.01953125,0.5594482421875,-0.805908203125,0.7324218153953552,-0.1831054538488388,0.2441406100988388
789316,-0.017822265625,0.5576171875,-0.8043212890625,0.6103515625,-0.1831054538488388,0.2441406100988388
789332,-0.0185546875,0.5582275390625,-0.804443359375,0.6103515625,-0.1831054538488388,0.2441406100988388
789353,-0.018798828125,0.5582275390625,-0.80419921875,0.6103515625,-0.2441406100988388,0.30517578125
789369,-0.0186767578125,0.5599365234375,-0.8067626953125,0.6713866591453552,-0.2441406100988388,0.30517578125
789386,-0.0184326171875,0.5596923828125,-0.8079833984375,0.6713866591453552,-0.2441406100988388,0.1831054538488388
789403,-0.0179443359375,0.558837890625,-0.8060302734375,0.6713866591453552,-0.2441406100988388,0.2441406100988388
789419,-0.018798828125,0.559326171875,-0.804443359375,0.6713866591453552,-0.2441406100988388,0.1831054538488388
789449,-0.0179443359375,0.5577392578125,-0.8040771484375,0.6713866591453552,-0.1831054538488388,0.30517578125
789466,-0.0196533203125,0.558837890625,-0.8045654296875,0.7324218153953552,-0.1831054538488388,0.2441406100988388
789514,-0.0181884765625,0.5582275390625,-0.806396484375,0.6713866591453552,-0.1831054538488388,0.2441406100988388
789530,-0.0189208984375,0.5587158203125,-0.8056640625,0.6103515625,-0.1831054538488388,0.2441406100988388
789546,-0.0198974609375,0.559326171875,-0.8046875,0.6103515625,-0.2441406100988388,0.2441406100988388
789562,-0.0186767578125,0.55810546875,-0.8040771484375,0.6713866591453552,-0.2441406100988388,0.1831054538488388
789582,-0.01708984375,0.5579833984375,-0.804931640625,0.6713866591453552,-0.1831054538488388,0.1831054538488388
789604,-0.017578125,0.5577392578125,-0.803955078125,0.6713866591453552,-0.2441406100988388,0.2441406100988388
789620,-0.0184326171875,0.558349609375,-0.805419921875,0.6713866591453552,-0.1831054538488388,0.2441406100988388
789637,-0.0184326171875,0.55859375,-0.80517578125,0.7324218153953552,-0.1831054538488388,0.2441406100988388
789654,-0.0184326171875,0.559326171875,-0.8055419921875,0.6713866591453552,-0.1831054538488388,0.1831054538488388
789687,-0.0179443359375,0.5595703125,-0.8074951171875,0.7324218153953552,-0.2441406100988388,0.30517578125
789704,-0.0177001953125,0.5572509765625,-0.8031005859375,0.7934569716453552,-0.2441406100988388,0.2441406100988388
789720,-0.0179443359375,0.557861328125,-0.8033447265625,0.7934569716453552,-0.2441406100988388,0.1831054538488388
789752,-0.0181884765625,0.56005859375,-0.806640625,0.7324218153953552,-0.2441406100988388,0.1831054538488388
789773,-0.0186767578125,0.5579833984375,-0.80419921875,0.7934569716453552,-0.1831054538488388,0.1831054538488388
789789,-0.018310546875,0.5576171875,-0.804931640625,0.8544921278953552,-0.1831054538488388,0.1831054538488388
789806,-0.017333984375,0.55810546875,-0.8048095703125,0.7934569716453552,-0.2441406100988388,0.2441406100988388
789823,-0.017822265625,0.558837890625,-0.804931640625,0.7934569716453552,-0.2441406100988388,0.2441406100988388
789839,-0.0186767578125,0.5584716796875,-0.80419921875,0.7934569716453552,-0.2441406100988388,0.2441406100988388
789873,-0.0184326171875,0.5599365234375,-0.8065185546875,0.7324218153953552,-0.1831054538488388,0.2441406100988388
789938,-0.017578125,0.5595703125,-0.8045654296875,0.7324218153953552,-0.2441406100988388,0.2441406100988388
789959,-0.017578125,0.558837890625,-0.8043212890625,0.7324218153953552,-0.2441406100988388,0.2441406100988388
789975,-0.0189208984375,0.5594482421875,-0.806396484375,0.7324218153953552,-0.2441406100988388,0.1831054538488388
789992,-0.0191650390625,0.5599365234375,-0.8067626953125,0.7324218153953552,-0.1220703050494194,0.1831054538488388
790009,-0.0179443359375,0.560791015625,-0.805908203125,0.7324218153953552,-0.1220703050494194,0.2441406100988388
790025,-0.0184326171875,0.5596923828125,-0.8062744140625,0.7324218153953552,-0.1220703050494194,0.2441406100988388
790042,-0.0194091796875,0.558837890625,-0.8056640625,0.6713866591453552,-0.1831054538488388,0.2441406100988388
790062,-0.018310546875,0.5596923828125,-0.8062744140625,0.7934569716453552,-0.2441406100988388,0.30517578125
790079,-0.0174560546875,0.560546875,-0.806396484375,0.7324218153953552,-0.2441406100988388,0.2441406100988388
790100,-0.0185546875,0.55908203125,-0.8038330078125,0.6713866591453552,-0.2441406100988388,0.1831054538488388
790116,-0.018310546875,0.55810546875,-0.805419921875,0.7324218153953552,-0.1831054538488388,0.2441406100988388
790137,-0.01806640625,0.558349609375,-0.8055419921875,0.6713866591453552,-0.2441406100988388,0.30517578125
790170,-0.01806640625,0.5594482421875,-0.80615234375,0.6713866591453552,-0.1831054538488388,0.30517578125
790186,-0.018798828125,0.5601806640625,-0.8062744140625,0.6713866591453552,-0.1831054538488388,0.30517578125
790202,-0.018310546875,0.5599365234375,-0.8050537109375,0.6103515625,-0.1831054538488388,0.30517578125
790235,-0.018310546875,0.5589599609375,-0.8050537109375,0.6103515625,-0.1831054538488388,0.1831054538488388
790251,-0.0184326171875,0.5596923828125,-0.8046875,0.6103515625,-0.1220703050494194,0.2441406100988388
790268,-0.019287109375,0.5596923828125,-0.804443359375,0.6103515625,-0.1831054538488388,0.3662109076976776
790289,-0.0189208984375,0.5596923828125,-0.8045654296875,0.6103515625,-0.1831054538488388,0.30517578125
790306,-0.018798828125,0.5601806640625,-0.8055419921875,0.54931640625,-0.2441406100988388,0.2441406100988388
790322,-0.0191650390625,0.5599365234375,-0.8060302734375,0.6103515625,-0.2441406100988388,0.2441406100988388
790355,-0.0184326171875,0.5594482421875,-0.803466796875,0.4882812201976776,-0.1220703050494194,0.30517578125
790372,-0.0191650390625,0.559326171875,-0.8048095703125,0.54931640625,-0.1831054538488388,0.30517578125
790388,-0.017822265625,0.5594482421875,-0.8046875,0.54931640625,-0.1831054538488388,0.2441406100988388
790404,-0.0174560546875,0.559814453125,-0.804443359375,0.54931640625,-0.1831054538488388,0.2441406100988388
790429,-0.01904296875,0.559326171875,-0.8043212890625,0.4882812201976776,-0.1831054538488388,0.2441406100988388
790445,-0.0181884765625,0.55859375,-0.8043212890625,0.54931640625,-0.1220703050494194,0.30517578125
790462,-0.018798828125,0.5584716796875,-0.8055419921875,0.54931640625,-0.2441406100988388,0.30517578125
790479,-0.0191650390625,0.5595703125,-0.8057861328125,0.54931640625,-0.30517578125,0.2441406100988388
790495,-0.0181884765625,0.559326171875,-0.80615234375,0.54931640625,-0.2441406100988388,0.1831054538488388
790529,-0.0179443359375,0.560302734375,-0.805908203125,0.54931640625,-0.1831054538488388,0.1831054538488388
790546,-0.018310546875,0.5596923828125,-0.805419921875,0.54931640625,-0.1831054538488388,0.2441406100988388
790567,-0.0184326171875,0.5595703125,-0.80517578125,0.6103515625,-0.1831054538488388,0.30517578125
790583,-0.0186767578125,0.5582275390625,-0.8056640625,0.6103515625,-0.1831054538488388,0.2441406100988388
790600,-0.0186767578125,0.558349609375,-0.8060302734375,0.6103515625,-0.1831054538488388,0.2441406100988388
790617,-0.0185546875,0.5594482421875,-0.8055419921875,0.6713866591453552,-0.1831054538488388,0.30517578125
790650,-0.0174560546875,0.5596923828125,-0.8046875,0.6103515625,-0.2441406100988388,0.2441406100988388
790667,-0.01806640625,0.5579833984375,-0.804443359375,0.6713866591453552,-0.2441406100988388,0.2441406100988388
790683,-0.0179443359375,0.5582275390625,-0.8052978515625,0.6713866591453552,-0.1831054538488388,0.2441406100988388
790716,-0.01904296875,0.558837890625,-0.8052978515625,0.6713866591453552,-0.1831054538488388,0.2441406100988388
790737,-0.0186767578125,0.56005859375,-0.806396484375,0.6713866591453552,-0.1831054538488388,0.1831054538488388
790753,-0.0181884765625,0.5589599609375,-0.8037109375,0.6713866591453552,-0.1831054538488388,0.2441406100988388
790770,-0.0186767578125,0.5579833984375,-0.805419921875,0.6713866591453552,-0.1831054538488388,0.2441406100988388
790787,-0.0186767578125,0.5589599609375,-0.8067626953125,0.6713866591453552,-0.1831054538488388,0.2441406100988388
790803,-0.0191650390625,0.559326171875,-0.8055419921875,0.6713866591453552,-0.1220703050494194,0.1831054538488388
790840,-0.0181884765625,0.5584716796875,-0.8057861328125,0.7934569716453552,-0.1831054538488388,0.2441406100988388
790857,-0.018798828125,0.5577392578125,-0.8048095703125,0.7324218153953552,-0.2441406100988388,0.2441406100988388
790873,-0.0181884765625,0.558349609375,-0.80419921875,0.7324218153953552,-0.1831054538488388,0.2441406100988388
790889,-0.0185546875,0.558349609375,-0.803955078125,0.6713866591453552,-0.1831054538488388,0.2441406100988388
790906,-0.0185546875,0.5589599609375,-0.8048095703125,0.7324218153953552,-0.1831054538488388,0.2441406100988388
790927,-0.0194091796875,0.5596923828125,-0.805419921875,0.7934569716453552,-0.1220703050494194,0.2441406100988388
790943,-0.0194091796875,0.5592041015625,-0.8048095703125,0.6713866591453552,-0.1220703050494194,0.2441406100988388
790961,-0.01806640625,0.55859375,-0.8052978515625,0.6713866591453552,-0.2441406100988388,0.2441406100988388
790978,-0.0179443359375,0.559326171875,-0.805908203125,0.6713866591453552,-0.2441406100988388,0.2441406100988388
791011,-0.0186767578125,0.5589599609375,-0.8050537109375,0.7324218153953552,-0.1831054538488388,0.1831054538488388
791027,-0.0185546875,0.55859375,-0.8046875,0.6713866591453552,-0.2441406100988388,0.1831054538488388
791043,-0.0184326171875,0.559814453125,-0.8048095703125,0.6713866591453552,-0.1831054538488388,0.2441406100988388
791072,-0.0191650390625,0.5594482421875,-0.803955078125,0.6713866591453552,-0.1220703050494194,0.1831054538488388
791094,-0.0181884765625,0.559326171875,-0.8035888671875,0.6103515625,-0.2441406100988388,0.2441406100988388
791110,-0.0184326171875,0.560302734375,-0.80419921875,0.6713866591453552,-0.2441406100988388,0.2441406100988388
791127,-0.0184326171875,0.5604248046875,-0.8060302734375,0.6713866591453552,-0.2441406100988388,0.30517578125
791144,-0.0174560546875,0.5596923828125,-0.806396484375,0.6713866591453552,-0.2441406100988388,0.30517578125
791160,-0.018310546875,0.559326171875,-0.805419921875,0.7324218153953552,-0.1220703050494194,0.2441406100988388
791191,-0.0185546875,0.5606689453125,-0.8043212890625,0.6713866591453552,-0.1831054538488388,0.2441406100988388
791208,-0.018798828125,0.5596923828125,-0.8043212890625,0.6103515625,-0.1831054538488388,0.2441406100988388
791228,-0.018798828125,0.56005859375,-0.8055419921875,0.6103515625,-0.2441406100988388,0.1831054538488388
791248,-0.018798828125,0.56005859375,-0.8050537109375,0.6713866591453552,-0.1831054538488388,0.1220703050494194
791265,-0.0177001953125,0.56005859375,-0.804443359375,0.6103515625,-0.1220703050494194,0.2441406100988388
791290,-0.018310546875,0.5594482421875,-0.80419921875,0.6103515625,-0.1831054538488388,0.30517578125
791310,-0.0185546875,0.559326171875,-0.80517578125,0.6103515625,-0.1831054538488388,0.30517578125
791330,-0.0184326171875,0.560546875,-0.8067626953125,0.6103515625,-0.1831054538488388,0.2441406100988388
791346,-0.01708984375,0.558837890625,-0.804931640625,0.6103515625,-0.1831054538488388,0.30517578125
791367,-0.01806640625,0.5592041015625,-0.804931640625,0.6713866591453552,-0.1220703050494194,0.2441406100988388
791384,-0.01806640625,0.560302734375,-0.8052978515625,0.6103515625,-0.1220703050494194,0.2441406100988388
791400,-0.017578125,0.559814453125,-0.8062744140625,0.6713866591453552,-0.1220703050494194,0.2441406100988388
791450,-0.017822265625,0.5594482421875,-0.8055419921875,0.6103515625,-0.1831054538488388,0.2441406100988388
791518,-0.0177001953125,0.5594482421875,-0.8060302734375,0.6713866591453552,-0.1831054538488388,0.1831054538488388
791625,-0.0194091796875,0.5579833984375,-0.8043212890625,0.7324218153953552,-0.2441406100988388,0.30517578125
791642,-0.01806640625,0.5584716796875,-0.806640625,0.7324218153953552,-0.1831054538488388,0.30517578125
791675,-0.018310546875,0.5599365234375,-0.804931640625,0.6713866591453552,-0.1831054538488388,0.1831054538488388
791692,-0.0184326171875,0.5587158203125,-0.804443359375,0.6713866591453552,-0.1831054538488388,0.2441406100988388
791708,-0.0179443359375,0.558837890625,-0.8048095703125,0.6103515625,-0.1831054538488388,0.2441406100988388
791724,-0.016845703125,0.559326171875,-0.8055419921875,0.6103515625,-0.1831054538488388,0.2441406100988388
791744,-0.01953125,0.56005859375,-0.80517578125,0.6713866591453552,-0.2441406100988388,0.1831054538488388
791766,-0.01904296875,0.560302734375,-0.806640625,0.6713866591453552,-0.2441406100988388,0.1831054538488388
791782,-0.017822265625,0.5589599609375,-0.8043212890625,0.6103515625,-0.1831054538488388,0.1831054538488388
791799,-0.0186767578125,0.558837890625,-0.804443359375,0.7324218153953552,-0.2441406100988388,0.2441406100988388
791816,-0.0194091796875,0.5594482421875,-0.8046875,0.7324218153953552,-0.2441406100988388,0.30517578125
791849,-0.017333984375,0.559326171875,-0.803466796875,0.6713866591453552,-0.1220703050494194,0.1831054538488388
791866,-0.0185546875,0.5589599609375,-0.80517578125,0.7324218153953552,-0.1831054538488388,0.2441406100988388
791882,-0.0189208984375,0.5601806640625,-0.8055419921875,0.7324218153953552,-0.1831054538488388,0.30517578125
791930,-0.0184326171875,0.559814453125,-0.80419921875,0.6713866591453552,-0.2441406100988388,0.1831054538488388
791982,-0.01806640625,0.560302734375,-0.803955078125,0.6103515625,-0.2441406100988388,0.2441406100988388
791999,-0.0189208984375,0.5606689453125,-0.8055419921875,0.6713866591453552,-0.2441406100988388,0.30517578125
792030,-0.018798828125,0.5599365234375,-0.8057861328125,0.6713866591453552,-0.1831054538488388,0.2441406100988388
792046,-0.0184326171875,0.56005859375,-0.804931640625,0.6713866591453552,-0.1220703050494194,0.1831054538488388
792063,-0.0185546875,0.5594482421875,-0.8048095703125,0.6713866591453552,-0.2441406100988388,0.2441406100988388
792093,-0.017578125,0.5594482421875,-0.8057861328125,0.6713866591453552,-0.2441406100988388,0.2441406100988388
792114,-0.018798828125,0.5595703125,-0.8052978515625,0.6103515625,-0.2441406100988388,0.30517578125
792130,-0.02001953125,0.5596923828125,-0.803466796875,0.6713866591453552,-0.1831054538488388,0.30517578125
792147,-0.0181884765625,0.5599365234375,-0.806396484375,0.6713866591453552,-0.1220703050494194,0.2441406100988388
792164,-0.0177001953125,0.55908203125,-0.8057861328125,0.54931640625,-0.1831054538488388,0.2441406100988388
792180,-0.0181884765625,0.5595703125,-0.8060302734375,0.6103515625,-0.2441406100988388,0.2441406100988388
792211,-0.01708984375,0.5595703125,-0.8031005859375,0.6713866591453552,-0.1831054538488388,0.2441406100988388
792233,-0.0174560546875,0.5589599609375,-0.802978515625,0.6103515625,-0.1220703050494194,0.2441406100988388
792249,-0.018798828125,0.5595703125,-0.80419921875,0.6713866591453552,-0.1831054538488388,0.2441406100988388
792266,-0.01904296875,0.559326171875,-0.8055419921875,0.6713866591453552,-0.1831054538488388,0.2441406100988388
792332,-0.01806640625,0.5595703125,-0.8048095703125,0.6103515625,-0.2441406100988388,0.30517578125
792348,-0.0177001953125,0.5601806640625,-0.8048095703125,0.6103515625,-0.2441406100988388,0.30517578125
792364,-0.0186767578125,0.558349609375,-0.802978515625,0.6713866591453552,-0.2441406100988388,0.2441406100988388
792396,-0.017333984375,0.5599365234375,-0.806396484375,0.6713866591453552,-0.1831054538488388,0.30517578125
792412,-0.017578125,0.560302734375,-0.8056640625,0.6103515625,-0.1831054538488388,0.30517578125
792428,-0.0191650390625,0.5596923828125,-0.8040771484375,0.54931640625,-0.1831054538488388,0.30517578125
792444,-0.0189208984375,0.559326171875,-0.80419921875,0.6103515625,-0.1831054538488388,0.2441406100988388
792469,-0.0172119140625,0.5584716796875,-0.8043212890625,0.6103515625,-0.2441406100988388,0.2441406100988388
792485,-0.019287109375,0.56005859375,-0.805419921875,0.6713866591453552,-0.2441406100988388,0.2441406100988388
792502,-0.0191650390625,0.5595703125,-0.80322265625,0.7324218153953552,-0.2441406100988388,0.1831054538488388
792519,-0.0189208984375,0.5604248046875,-0.8046875,0.6713866591453552,-0.2441406100988388,0.2441406100988388
792535,-0.017333984375,0.5576171875,-0.8035888671875,0.6713866591453552,-0.2441406100988388,0.30517578125
792568,-0.0186767578125,0.5623779296875,-0.8106689453125,0.6713866591453552,-0.1831054538488388,0.2441406100988388
792585,-0.0196533203125,0.560791015625,-0.8070068359375,0.6713866591453552,-0.1831054538488388,0.2441406100988388
792601,-0.0191650390625,0.557861328125,-0.80224609375,0.7324218153953552,-0.2441406100988388,0.2441406100988388
792633,-0.017822265625,0.55859375,-0.8060302734375,0.7324218153953552,-0.1831054538488388,0.2441406100988388
792649,-0.0191650390625,0.561279296875,-0.80810546875,0.6713866591453552,-0.1831054538488388,0.2441406100988388
792665,-0.01904296875,0.5626220703125,-0.8084716796875,0.7324218153953552,-0.2441406100988388,0.30517578125
792701,-0.018310546875,0.5557861328125,-0.79931640625,0.6713866591453552,-0.2441406100988388,0.2441406100988388
792723,-0.0186767578125,0.5604248046875,-0.806884765625,0.7324218153953552,-0.1831054538488388,0.2441406100988388
792739,-0.0177001953125,0.5577392578125,-0.8040771484375,0.6713866591453552,-0.1831054538488388,0.2441406100988388
792760,-0.02001953125,0.5567626953125,-0.8023681640625,0.6713866591453552,-0.2441406100988388,0.1831054538488388
792777,-0.018310546875,0.5626220703125,-0.8094482421875,0.6713866591453552,-0.2441406100988388,0.1831054538488388
792793,-0.0169677734375,0.560546875,-0.80712890625,0.6103515625,-0.2441406100988388,0.30517578125
792810,-0.0189208984375,0.5609130859375,-0.805419921875,0.6103515625,-0.2441406100988388,0.30517578125
792826,-0.0194091796875,0.5596923828125,-0.8057861328125,0.6713866591453552,-0.1831054538488388,0.1831054538488388
792843,-0.0174560546875,0.5582275390625,-0.804931640625,0.6713866591453552,-0.1831054538488388,0.2441406100988388
792876,-0.019775390625,0.5595703125,-0.8057861328125,0.6103515625,-0.1220703050494194,0.2441406100988388
792897,-0.01904296875,0.5633544921875,-0.8116455078125,0.6713866591453552,-0.1220703050494194,0.2441406100988388
792913,-0.017822265625,0.5625,-0.809814453125,0.6713866591453552,-0.2441406100988388,0.2441406100988388
792930,-0.01904296875,0.558837890625,-0.803466796875,0.6713866591453552,-0.2441406100988388,0.2441406100988388
792947,-0.018310546875,0.5579833984375,-0.80322265625,0.6713866591453552,-0.1831054538488388,0.1831054538488388
792963,-0.0172119140625,0.5567626953125,-0.8016357421875,0.6103515625,-0.1831054538488388,0.1831054538488388
792997,-0.01953125,0.560546875,-0.806884765625,0.6713866591453552,-0.1831054538488388,0.30517578125
793013,-0.0189208984375,0.5592041015625,-0.803955078125,0.6713866591453552,-0.1831054538488388,0.2441406100988388
793029,-0.017578125,0.559326171875,-0.802734375,0.6103515625,-0.1831054538488388,0.2441406100988388
793045,-0.0184326171875,0.5611572265625,-0.8067626953125,0.6103515625,-0.2441406100988388,0.2441406100988388
793068,-0.0186767578125,0.5589599609375,-0.8048095703125,0.6713866591453552,-0.2441406100988388,0.2441406100988388
793084,-0.0184326171875,0.5587158203125,-0.804931640625,0.6713866591453552,-0.2441406100988388,0.2441406100988388
793101,-0.0172119140625,0.5604248046875,-0.8060302734375,0.6713866591453552,-0.1831054538488388,0.1831054538488388
793122,-0.0185546875,0.560791015625,-0.8056640625,0.6713866591453552,-0.2441406100988388,0.2441406100988388
793138,-0.01904296875,0.55908203125,-0.8055419921875,0.6713866591453552,-0.2441406100988388,0.2441406100988388
793155,-0.0184326171875,0.56005859375,-0.8062744140625,0.6713866591453552,-0.1831054538488388,0.2441406100988388
793172,-0.01806640625,0.560546875,-0.8050537109375,0.6713866591453552,-0.1831054538488388,0.2441406100988388
793188,-0.0179443359375,0.558837890625,-0.8043212890625,0.6713866591453552,-0.1831054538488388,0.1831054538488388
793204,-0.0177001953125,0.5584716796875,-0.8043212890625,0.6713866591453552,-0.1831054538488388,0.1831054538488388
793236,-0.0186767578125,0.5599365234375,-0.803955078125,0.6713866591453552,-0.1831054538488388,0.2441406100988388
793252,-0.0194091796875,0.558837890625,-0.80224609375,0.6713866591453552,-0.2441406100988388,0.1831054538488388
793268,-0.01904296875,0.559814453125,-0.8062744140625,0.6103515625,-0.30517578125,0.2441406100988388
793284,-0.01806640625,0.560302734375,-0.8070068359375,0.6103515625,-0.2441406100988388,0.2441406100988388
793304,-0.01806640625,0.5594482421875,-0.804931640625,0.6103515625,-0.2441406100988388,0.1831054538488388
793320,-0.0184326171875,0.5596923828125,-0.8035888671875,0.6713866591453552,-0.2441406100988388,0.2441406100988388
793336,-0.018310546875,0.5599365234375,-0.805908203125,0.6713866591453552,-0.2441406100988388,0.2441406100988388
793350,-0.0177001953125,0.55908203125,-0.8055419921875,0.6713866591453552,-0.1831054538488388,0.2441406100988388
793405,-0.0185546875,0.5594482421875,-0.8046875,0.6713866591453552,-0.1831054538488388,0.1831054538488388
793422,-0.017578125,0.559326171875,-0.803955078125,0.6103515625,-0.1831054538488388,0.1831054538488388
793438,-0.0179443359375,0.559326171875,-0.8046875,0.6103515625,-0.1831054538488388,0.1831054538488388
793472,-0.01904296875,0.5599365234375,-0.8055419921875,0.6713866591453552,-0.1831054538488388,0.2441406100988388
793488,-0.018310546875,0.5582275390625,-0.804931640625,0.6103515625,-0.1831054538488388,0.1831054538488388
793504,-0.0185546875,0.5582275390625,-0.8055419921875,0.6713866591453552,-0.1831054538488388,0.2441406100988388
793536,-0.018310546875,0.5606689453125,-0.806640625,0.6713866591453552,-0.2441406100988388,0.30517578125
793552,-0.0186767578125,0.5599365234375,-0.8048095703125,0.6713866591453552,-0.2441406100988388,0.30517578125
793568,-0.0181884765625,0.558349609375,-0.8079833984375,0.7324218153953552,-0.1831054538488388,0.30517578125
793584,-0.0179443359375,0.558349609375,-0.806640625,0.7934569716453552,-0.1831054538488388,0.2441406100988388
793604,-0.017333984375,0.560546875,-0.80126953125,0.8544921278953552,-0.2441406100988388,0.1831054538488388
793620,-0.018798828125,0.560546875,-0.8055419921875,0.8544921278953552,-0.2441406100988388,0.2441406100988388
793636,-0.0189208984375,0.5601806640625,-0.806396484375,0.9155272841453552,-0.2441406100988388,0.1831054538488388
793651,-0.0186767578125,0.5596923828125,-0.8046875,0.9155272841453552,-0.1831054538488388,0.1831054538488388
793704,-0.0184326171875,0.5616455078125,-0.8035888671875,0.7324218153953552,-0.30517578125,0.2441406100988388
793721,-0.0186767578125,0.560546875,-0.8056640625,0.6713866591453552,-0.30517578125,0.2441406100988388
793738,-0.0181884765625,0.5606689453125,-0.8050537109375,0.6103515625,-0.1831054538488388,0.2441406100988388
793771,-0.0179443359375,0.5616455078125,-0.8038330078125,0.54931640625,-0.2441406100988388,0.1831054538488388
793787,-0.0167236328125,0.560791015625,-0.802978515625,0.54931640625,-0.2441406100988388,0.1831054538488388
793803,-0.0177001953125,0.560302734375,-0.803466796875,0.4882812201976776,-0.2441406100988388,0.30517578125
793835,-0.0181884765625,0.556884765625,-0.8062744140625,0.6713866591453552,-0.1831054538488388,0.30517578125
793851,-0.0185546875,0.5589599609375,-0.807373046875,0.9765624403953552,-0.2441406100988388,0.2441406100988388
793867,-0.018310546875,0.5546875,-0.80810546875,1.220703125,-0.2441406100988388,0.30517578125
793883,-0.0189208984375,0.5537109375,-0.8099365234375,1.8310545682907104,-0.1831054538488388,0.0610351525247097
793903,-0.0167236328125,0.561279296875,-0.8040771484375,2.25830078125,-0.2441406100988388,0.2441406100988388
793919,-0.0181884765625,0.5589599609375,-0.805419921875,2.624511480331421,-0.30517578125,0.2441406100988388
793935,-0.01953125,0.5572509765625,-0.805908203125,2.868652105331421,-0.3662109076976776,0.2441406100988388
793951,-0.019775390625,0.5552978515625,-0.8084716796875,3.417968511581421,-0.1831054538488388,0.0610351525247097
793972,-0.0177001953125,0.5623779296875,-0.8040771484375,3.662109136581421,-0.2441406100988388,0.0610351525247097
793993,-0.017333984375,0.56787109375,-0.8013916015625,3.723144292831421,-0.2441406100988388,0.1220703050494194
794009,-0.01953125,0.56103515625,-0.802001953125,3.784179449081421,-0.30517578125,0.1831054538488388
794072,-0.0179443359375,0.5699462890625,-0.7972412109375,4.45556640625,-0.30517578125,0.0
794089,-0.01708984375,0.56982421875,-0.7984619140625,4.39453125,-0.4272460639476776,0.0610351525247097
794105,-0.017333984375,0.5635986328125,-0.802490234375,4.57763671875,-0.3662109076976776,0.1220703050494194
794141,-0.016845703125,0.57470703125,-0.79296875,4.82177734375,-0.3662109076976776,-0.0610351525247097
794163,-0.0177001953125,0.573974609375,-0.79443359375,4.69970703125,-0.4272460639476776,-0.0610351525247097
794179,-0.016357421875,0.5753173828125,-0.793701171875,4.69970703125,-0.3662109076976776,0.0
794200,-0.0181884765625,0.5718994140625,-0.7978515625,4.69970703125,-0.4272460639476776,0.0
794217,-0.018798828125,0.5758056640625,-0.794921875,4.7607421875,-0.4272460639476776,-0.0610351525247097
794233,-0.017578125,0.5784912109375,-0.7904052734375,4.69970703125,-0.4272460639476776,-0.0610351525247097
794283,-0.0196533203125,0.5814208984375,-0.796142578125,2.807616949081421,-0.9765624403953552,-0.6103515625
794325,-0.0140380859375,0.576904296875,-0.7625732421875,0.3662109076976776,-1.8310545682907104,-1.03759765625
794342,-0.010498046875,0.62255859375,-0.787841796875,-0.6103515625,-2.563476324081421,-1.5869139432907104
794376,-0.046142578125,0.6181640625,-0.888916015625,-0.2441406100988388,-4.08935546875,-2.807616949081421
794441,-0.0518798828125,0.7930908203125,-1.1842041015625,0.54931640625,0.6713866591453552,0.8544921278953552
794457,-0.042236328125,0.7923583984375,-1.140625,-0.9155272841453552,1.7089842557907104,1.8310545682907104
794490,-0.0328369140625,0.69775390625,-1.0328369140625,-0.7934569716453552,1.7089842557907104,1.9531248807907104
794507,-0.0394287109375,0.6912841796875,-1.0548095703125,-1.4038084745407104,0.9155272841453552,1.5869139432907104
794524,-0.0474853515625,0.7364501953125,-1.110107421875,2.0751953125,0.6103515625,1.03759765625
794556,-0.042236328125,0.76025390625,-1.1126708984375,5.493163585662842,0.54931640625,0.9765624403953552
794572,-0.0372314453125,0.7481689453125,-1.114501953125,8.11767578125,0.6103515625,0.8544921278953552
794588,-0.0299072265625,0.7305908203125,-1.07275390625,8.30078125,0.6713866591453552,0.7934569716453552
794604,-0.0189208984375,0.682861328125,-1.0009765625,10.192870140075684,-0.4272460639476776,0.0
794624,-0.01171875,0.7169189453125,-1.0211181640625,10.742186546325684,-1.220703125,-0.6103515625
794645,-0.0126953125,0.742919921875,-1.0343017578125,11.108397483825684,-1.2817381620407104,-0.4882812201976776
794661,-0.00927734375,0.760498046875,-1.030029296875,13.122557640075684,-1.220703125,-0.30517578125
794679,-0.0076904296875,0.752685546875,-1.02587890625,13.427733421325684,-0.7934569716453552,0.1220703050494194
794696,-0.0054931640625,0.7652587890625,-1.0347900390625,14.160155296325684,-0.6103515625,0.2441406100988388
794729,-0.001953125,0.734130859375,-0.9576416015625,14.648436546325684,1.0986328125,1.3427733182907104
794746,-0.0050048828125,0.717041015625,-0.90966796875,14.648436546325684,1.0986328125,1.4648436307907104
794762,-0.01904296875,0.73193359375,-0.9161376953125,13.427733421325684,1.5258787870407104,1.9531248807907104
794791,-0.0279541015625,0.683349609375,-0.8514404296875,13.244627952575684,1.9531248807907104,2.13623046875
794813,-0.0296630859375,0.6732177734375,-0.837646484375,11.474608421325684,1.8920897245407104,1.8920897245407104
794829,-0.02880859375,0.645751953125,-0.7847900390625,10.314940452575684,2.13623046875,1.8920897245407104
794846,-0.02392578125,0.592529296875,-0.70068359375,9.1552734375,2.0751953125,1.8310545682907104
794863,-0.02392578125,0.572998046875,-0.6590576171875,6.286620616912842,1.5869139432907104,1.4648436307907104
794879,-0.0225830078125,0.556884765625,-0.6390380859375,4.08935546875,1.2817381620407104,1.2817381620407104
794913,-0.020263671875,0.5303955078125,-0.6175537109375,-0.8544921278953552,1.220703125,1.2817381620407104
794929,-0.0194091796875,0.5186767578125,-0.6070556640625,-1.9531248807907104,1.5258787870407104,1.4648436307907104
794945,-0.0177001953125,0.482421875,-0.555908203125,-4.08935546875,1.7089842557907104,1.7089842557907104
794981,-0.0150146484375,0.4334716796875,-0.506103515625,-6.591796398162842,1.6479490995407104,1.6479490995407104
795003,-0.017333984375,0.4200439453125,-0.4959716796875,-7.934569835662842,1.4648436307907104,1.5869139432907104
795019,-0.02001953125,0.392822265625,-0.4705810546875,-9.033203125,1.7089842557907104,1.7700194120407104
795040,-0.01904296875,0.3466796875,-0.4222412109375,-10.253905296325684,1.5258787870407104,1.5258787870407104
795057,-0.01904296875,0.3231201171875,-0.408203125,-10.620116233825684,1.4038084745407104,1.4038084745407104
795073,-0.013427734375,0.311767578125,-0.3887939453125,-11.901854515075684,1.0986328125,1.15966796875
795090,-0.01318359375,0.3131103515625,-0.40185546875,-12.939452171325684,0.7934569716453552,0.9155272841453552
795107,-0.0067138671875,0.3221435546875,-0.413330078125,-13.610838890075684,0.8544921278953552,0.7324218153953552
795123,-0.00244140625,0.34033203125,-0.434814453125,-14.343260765075684,0.7324218153953552,0.6713866591453552
795152,-0.0001220703125,0.3883056640625,-0.497314453125,-14.587401390075684,0.6713866591453552,0.7934569716453552
795174,-0.000732421875,0.39794921875,-0.523193359375,-14.770506858825684,0.7934569716453552,0.8544921278953552
795190,0.0009765625,0.430419921875,-0.5849609375,-14.526366233825684,1.03759765625,0.9155272841453552
795207,-0.00048828125,0.4537353515625,-0.633056640625,-14.282225608825684,1.220703125,0.9155272841453552
795224,-0.003173828125,0.4815673828125,-0.6617431640625,-13.549803733825684,1.4038084745407104,0.9765624403953552
795240,-0.0047607421875,0.493896484375,-0.677978515625,-12.451170921325684,1.4038084745407104,0.9155272841453552
795271,-0.010009765625,0.52099609375,-0.7532958984375,-10.253905296325684,1.4038084745407104,0.8544921278953552
795293,-0.0106201171875,0.51611328125,-0.7489013671875,-8.4228515625,1.4648436307907104,0.6103515625
795309,-0.0150146484375,0.5201416015625,-0.74462890625,-6.774901866912842,1.0986328125,0.1831054538488388
795330,-0.0213623046875,0.5267333984375,-0.7562255859375,-4.94384765625,0.7934569716453552,-0.0610351525247097
795347,-0.023193359375,0.5234375,-0.7574462890625,-4.08935546875,0.6713866591453552,-0.2441406100988388
795384,-0.020751953125,0.5513916015625,-0.78564453125,0.6103515625,-0.1831054538488388,-1.4038084745407104
795404,-0.0230712890625,0.5631103515625,-0.7904052734375,2.563476324081421,-0.1831054538488388,-1.4648436307907104
795425,-0.0262451171875,0.552734375,-0.777099609375,4.2724609375,-0.4272460639476776,-1.7700194120407104
795445,-0.0291748046875,0.5523681640625,-0.7698974609375,5.615233898162842,-0.7934569716453552,-2.13623046875
795462,-0.0299072265625,0.553955078125,-0.7684326171875,6.164550304412842,-0.9765624403953552,-2.3193359375
795519,-0.0328369140625,0.59228515625,-0.7978515625,7.324218273162842,-1.5258787870407104,-2.746581792831421
795535,-0.0340576171875,0.5882568359375,-0.78564453125,7.324218273162842,-1.4038084745407104,-2.746581792831421
795552,-0.0343017578125,0.5858154296875,-0.7772216796875,6.835937023162842,-1.2817381620407104,-2.807616949081421
795569,-0.0335693359375,0.581298828125,-0.762451171875,6.347655773162842,-1.2817381620407104,-2.746581792831421
795585,-0.0302734375,0.5924072265625,-0.7476806640625,5.065917491912842,-1.3427733182907104,-2.868652105331421
795602,-0.0294189453125,0.5975341796875,-0.75244140625,3.723144292831421,-1.5869139432907104,-2.746581792831421
795632,-0.0250244140625,0.6014404296875,-0.7833251953125,2.01416015625,-1.0986328125,-2.25830078125
795654,-0.023193359375,0.59765625,-0.778076171875,0.9765624403953552,-0.9155272841453552,-2.13623046875
795670,-0.022216796875,0.611572265625,-0.7987060546875,0.1831054538488388,-0.8544921278953552,-2.0751953125
795687,-0.0198974609375,0.6224365234375,-0.8135986328125,-0.1220703050494194,-0.6103515625,-1.8310545682907104
795704,-0.0185546875,0.61865234375,-0.812255859375,-0.54931640625,-0.0610351525247097,-1.2817381620407104
795720,-0.017578125,0.60693359375,-0.8092041015625,-0.6713866591453552,0.30517578125,-0.9765624403953552
795751,-0.01904296875,0.5970458984375,-0.8099365234375,-0.9765624403953552,0.7934569716453552,-0.7324218153953552
795773,-0.0169677734375,0.586181640625,-0.7999267578125,-1.220703125,1.03759765625,-0.3662109076976776
795789,-0.016357421875,0.57666015625,-0.7867431640625,-1.4038084745407104,1.15966796875,-0.30517578125
795806,-0.0189208984375,0.5723876953125,-0.7938232421875,-1.5258787870407104,1.220703125,-0.2441406100988388
795823,-0.0189208984375,0.57666015625,-0.797119140625,-1.4648436307907104,1.2817381620407104,-0.1831054538488388
795839,-0.0208740234375,0.5782470703125,-0.79833984375,-1.4038084745407104,1.3427733182907104,-0.1220703050494194
795873,-0.0234375,0.5718994140625,-0.783935546875,-1.220703125,1.220703125,-0.1220703050494194
795938,-0.032958984375,0.56494140625,-0.794189453125,-0.2441406100988388,0.7324218153953552,-0.4882812201976776
795959,-0.0341796875,0.562255859375,-0.78955078125,-0.1220703050494194,0.6713866591453552,-0.54931640625
795975,-0.0350341796875,0.5545654296875,-0.779296875,0.2441406100988388,0.3662109076976776,-0.6713866591453552
795989,-0.035400390625,0.5543212890625,-0.771728515625,0.2441406100988388,0.1831054538488388,-0.9155272841453552
796006,-0.03515625,0.5513916015625,-0.773193359375,0.2441406100988388,-0.0610351525247097,-0.9765624403953552
796023,-0.034912109375,0.554931640625,-0.7794189453125,0.2441406100988388,-0.2441406100988388,-1.15966796875
796055,-0.028564453125,0.551025390625,-0.766845703125,0.0,-0.4882812201976776,-1.2817381620407104
796072,-0.028564453125,0.5489501953125,-0.767822265625,-0.1831054538488388,-0.7934569716453552,-1.3427733182907104
796088,-0.031982421875,0.5499267578125,-0.779296875,-0.30517578125,-0.8544921278953552,-1.4648436307907104
796104,-0.0322265625,0.550537109375,-0.77734375,-0.30517578125,-0.9155272841453552,-1.5258787870407104
796128,-0.0313720703125,0.55029296875,-0.7823486328125,-0.3662109076976776,-1.220703125,-1.7089842557907104
796144,-0.0306396484375,0.560791015625,-0.8155517578125,0.1831054538488388,-1.3427733182907104,-1.8920897245407104
796161,-0.031005859375,0.5706787109375,-0.8370361328125,0.54931640625,-1.220703125,-1.9531248807907104
796181,-0.0279541015625,0.5665283203125,-0.834716796875,1.5258787870407104,-0.8544921278953552,-1.8920897245407104
796198,-0.0235595703125,0.5682373046875,-0.8341064453125,2.807616949081421,-0.6713866591453552,-2.01416015625
796231,-0.0184326171875,0.571533203125,-0.82568359375,3.784179449081421,-0.1831054538488388,-2.01416015625
796247,-0.01318359375,0.5743408203125,-0.8148193359375,4.0283203125,-0.0610351525247097,-1.8310545682907104
796263,-0.011474609375,0.5784912109375,-0.814453125,4.08935546875,0.0610351525247097,-1.7700194120407104
796295,-0.006591796875,0.5753173828125,-0.8038330078125,3.540038824081421,0.2441406100988388,-1.5258787870407104
796311,-0.0057373046875,0.5794677734375,-0.8072509765625,3.234863042831421,0.54931640625,-1.2817381620407104
796343,-0.005615234375,0.580322265625,-0.802978515625,2.50244140625,0.8544921278953552,-0.8544921278953552
796363,-0.0091552734375,0.5775146484375,-0.797119140625,2.0751953125,0.9155272841453552,-0.7324218153953552
796385,-0.0113525390625,0.5867919921875,-0.8011474609375,1.8310545682907104,0.9765624403953552,-0.6713866591453552
796401,-0.013671875,0.589111328125,-0.800537109375,1.7700194120407104,1.0986328125,-0.54931640625
796418,-0.0164794921875,0.578125,-0.78857421875,1.6479490995407104,1.15966796875,-0.3662109076976776
796435,-0.017822265625,0.5784912109375,-0.78759765625,1.4038084745407104,1.03759765625,-0.30517578125
796468,-0.017578125,0.5714111328125,-0.7689208984375,0.4882812201976776,0.7324218153953552,-0.30517578125
796485,-0.0191650390625,0.576904296875,-0.7757568359375,0.1831054538488388,0.6103515625,-0.3662109076976776
796501,-0.020263671875,0.5794677734375,-0.7747802734375,-0.4272460639476776,0.6103515625,-0.2441406100988388
796532,-0.01904296875,0.5626220703125,-0.7640380859375,-1.5258787870407104,0.1220703050494194,-0.4272460639476776
796553,-0.022705078125,0.5660400390625,-0.768798828125,-2.197265625,-0.1220703050494194,-0.54931640625
796569,-0.0203857421875,0.5628662109375,-0.7630615234375,-2.50244140625,-0.2441406100988388,-0.6103515625
796588,-0.018798828125,0.56201171875,-0.7646484375,-2.990722417831421,-0.54931640625,-0.7934569716453552
796605,-0.0184326171875,0.5662841796875,-0.7833251953125,-3.173827886581421,-0.7934569716453552,-0.9155272841453552
796622,-0.016357421875,0.5626220703125,-0.776611328125,-3.234863042831421,-0.9155272841453552,-1.03759765625
796655,-0.0120849609375,0.573486328125,-0.79296875,-3.417968511581421,-1.15966796875,-0.9765624403953552
796671,-0.009521484375,0.5716552734375,-0.794921875,-3.417968511581421,-1.03759765625,-0.9155272841453552
796687,-0.0079345703125,0.5684814453125,-0.797119140625,-3.356933355331421,-1.03759765625,-0.8544921278953552
796703,-0.00634765625,0.566650390625,-0.790771484375,-3.417968511581421,-1.03759765625,-0.7934569716453552
796727,-0.0052490234375,0.572021484375,-0.7979736328125,-3.417968511581421,-1.220703125,-0.7324218153953552
796743,-0.00634765625,0.5799560546875,-0.8155517578125,-3.356933355331421,-0.8544921278953552,-0.4272460639476776
796760,-0.008544921875,0.570068359375,-0.80078125,-3.173827886581421,-0.7324218153953552,-0.2441406100988388
796780,-0.010009765625,0.5672607421875,-0.8001708984375,-2.929687261581421,-0.8544921278953552,-0.1831054538488388
796797,-0.01025390625,0.5677490234375,-0.8076171875,-2.624511480331421,-0.6713866591453552,-0.1220703050494194
796830,-0.0067138671875,0.5572509765625,-0.78271484375,-1.7700194120407104,-0.4272460639476776,0.0610351525247097
796852,-0.0067138671875,0.5565185546875,-0.7786865234375,-1.5258787870407104,-0.4272460639476776,0.1220703050494194
796868,-0.009033203125,0.5535888671875,-0.775634765625,-1.03759765625,-0.4272460639476776,0.2441406100988388
796885,-0.011474609375,0.5511474609375,-0.77490234375,-0.3662109076976776,-0.2441406100988388,0.3662109076976776
796902,-0.011962890625,0.543701171875,-0.7586669921875,0.0,-0.1220703050494194,0.4882812201976776
796918,-0.0096435546875,0.5360107421875,-0.74072265625,0.6103515625,-0.1220703050494194,0.4882812201976776
796951,-0.0064697265625,0.5433349609375,-0.758056640625,1.5258787870407104,-0.1831054538488388,0.4882812201976776
796973,-0.0020751953125,0.548828125,-0.7579345703125,1.6479490995407104,-0.1831054538488388,0.54931640625
796989,-0.0023193359375,0.5621337890625,-0.7813720703125,1.9531248807907104,-0.0610351525247097,0.6103515625
797006,-0.001220703125,0.566650390625,-0.784423828125,2.3193359375,0.30517578125,0.8544921278953552
797023,-0.0023193359375,0.5675048828125,-0.789794921875,2.44140625,0.54931640625,1.03759765625
797039,-0.003662109375,0.5611572265625,-0.7696533203125,2.624511480331421,0.9155272841453552,1.2817381620407104
797073,-0.005615234375,0.5655517578125,-0.757080078125,2.624511480331421,1.0986328125,1.4038084745407104
797089,-0.01123046875,0.566162109375,-0.767333984375,2.685546636581421,1.15966796875,1.5258787870407104
797105,-0.0133056640625,0.56396484375,-0.76171875,3.051757574081421,1.5869139432907104,1.6479490995407104
797141,-0.018798828125,0.5194091796875,-0.6915283203125,3.417968511581421,1.5869139432907104,1.6479490995407104
797163,-0.020751953125,0.509521484375,-0.6756591796875,3.295898199081421,1.4648436307907104,1.5258787870407104
797179,-0.0220947265625,0.498291015625,-0.64306640625,2.685546636581421,1.03759765625,1.3427733182907104
797200,-0.0267333984375,0.4981689453125,-0.6429443359375,1.9531248807907104,0.1831054538488388,0.8544921278953552
797217,-0.033203125,0.52197265625,-0.681640625,1.8310545682907104,-0.0610351525247097,0.7324218153953552
797233,-0.0335693359375,0.5218505859375,-0.689697265625,1.8920897245407104,-0.1220703050494194,0.6103515625
797250,-0.0296630859375,0.514404296875,-0.666015625,2.197265625,-0.0610351525247097,0.6103515625
797267,-0.026123046875,0.498291015625,-0.6397705078125,2.0751953125,-0.2441406100988388,0.4882812201976776
797283,-0.021728515625,0.48876953125,-0.6201171875,1.5258787870407104,-1.03759765625,0.0610351525247097
797311,-0.022216796875,0.5224609375,-0.6754150390625,1.220703125,-1.7700194120407104,-0.1831054538488388
797333,-0.0240478515625,0.5322265625,-0.6998291015625,1.4648436307907104,-1.6479490995407104,-0.0610351525247097
797349,-0.0252685546875,0.5234375,-0.7069091796875,2.38037109375,-1.03759765625,0.30517578125
797366,-0.0177001953125,0.48974609375,-0.659423828125,2.746581792831421,-1.220703125,0.2441406100988388
797383,-0.0113525390625,0.486328125,-0.6419677734375,2.746581792831421,-1.4038084745407104,0.0610351525247097
797399,-0.010498046875,0.50146484375,-0.657958984375,2.44140625,-1.8920897245407104,-0.1831054538488388
797433,-0.0125732421875,0.5657958984375,-0.779052734375,4.0283203125,-1.4038084745407104,0.54931640625
797499,-0.0201416015625,0.51708984375,-0.7039794921875,6.958007335662842,-0.8544921278953552,0.6103515625
797562,-0.03125,0.5084228515625,-0.709228515625,7.446288585662842,-0.7324218153953552,0.4882812201976776
797578,-0.0321044921875,0.5052490234375,-0.6981201171875,7.202147960662842,-1.03759765625,0.0610351525247097
797610,-0.0361328125,0.5509033203125,-0.7471923828125,6.469726085662842,-1.8920897245407104,-0.4272460639476776
797626,-0.03515625,0.55810546875,-0.7701416015625,6.408690929412842,-2.01416015625,-0.4272460639476776
797646,-0.0284423828125,0.5396728515625,-0.7633056640625,6.713866710662842,-2.0751953125,-0.6103515625
797667,-0.0281982421875,0.53759765625,-0.76123046875,7.080077648162842,-2.807616949081421,-1.220703125
797683,-0.0338134765625,0.573974609375,-0.8060302734375,7.507323741912842,-3.479003667831421,-1.8310545682907104
797699,-0.0350341796875,0.59619140625,-0.834228515625,7.995604991912842,-3.417968511581421,-1.8920897245407104
797735,-0.020751953125,0.5987548828125,-0.8543701171875,10.437010765075684,-2.929687261581421,-1.7700194120407104
797751,-0.0084228515625,0.5838623046875,-0.8212890625,10.864256858825684,-3.051757574081421,-1.9531248807907104
797767,-0.0054931640625,0.5858154296875,-0.82275390625,11.108397483825684,-3.295898199081421,-2.197265625
797783,0.0003662109375,0.5933837890625,-0.8193359375,11.230467796325684,-3.112792730331421,-2.25830078125
797803,-0.0006103515625,0.6014404296875,-0.8270263671875,11.291502952575684,-3.051757574081421,-2.38037109375
797825,-0.0015869140625,0.6192626953125,-0.8409423828125,11.352538108825684,-2.990722417831421,-2.38037109375
797841,-0.001220703125,0.6597900390625,-0.88623046875,11.718749046325684,-2.01416015625,-1.5869139432907104
797858,0.006591796875,0.6341552734375,-0.856201171875,11.596678733825684,-1.15966796875,-0.9155272841453552
797875,0.0118408203125,0.6026611328125,-0.81591796875,11.291502952575684,-0.9765624403953552,-0.7934569716453552
797908,0.0120849609375,0.6385498046875,-0.8507080078125,9.1552734375,-1.2817381620407104,-1.3427733182907104
797925,0.010009765625,0.7060546875,-0.9256591796875,8.544921875,-0.7934569716453552,-0.9155272841453552
797941,0.0115966796875,0.7249755859375,-0.9383544921875,8.4228515625,-0.1220703050494194,-0.4272460639476776
797973,0.01806640625,0.66064453125,-0.85595703125,7.324218273162842,0.9155272841453552,0.4272460639476776
797989,0.02001953125,0.6693115234375,-0.84912109375,6.713866710662842,0.6713866591453552,0.30517578125
798005,0.0167236328125,0.69189453125,-0.8687744140625,5.554198741912842,0.7934569716453552,0.4882812201976776
798041,-0.0013427734375,0.683349609375,-0.8421630859375,4.150390625,1.15966796875,1.2817381620407104
798057,-0.0067138671875,0.65478515625,-0.7904052734375,2.929687261581421,0.7324218153953552,1.15966796875
798073,-0.0084228515625,0.64697265625,-0.7852783203125,1.2817381620407104,-0.1831054538488388,0.6103515625
798089,-0.010009765625,0.6771240234375,-0.8114013671875,0.6103515625,-0.54931640625,0.4882812201976776
798111,-0.015380859375,0.6995849609375,-0.8646240234375,-0.0610351525247097,-0.1220703050494194,0.9765624403953552
798127,-0.0146484375,0.664306640625,-0.8280029296875,-0.30517578125,0.0,1.03759765625
798144,-0.0081787109375,0.617919921875,-0.7755126953125,-0.9765624403953552,-0.30517578125,0.7324218153953552
798161,-0.005615234375,0.620361328125,-0.7724609375,-2.01416015625,-1.4648436307907104,-0.2441406100988388
798177,-0.00830078125,0.6636962890625,-0.813720703125,-2.563476324081421,-1.7700194120407104,-0.54931640625
798211,-0.0062255859375,0.6754150390625,-0.81640625,-3.540038824081421,-1.5869139432907104,-0.30517578125
798227,0.0003662109375,0.658447265625,-0.7822265625,-4.0283203125,-1.7700194120407104,-0.2441406100988388
798243,0.0072021484375,0.6588134765625,-0.791748046875,-4.39453125,-2.0751953125,-0.4882812201976776
798275,0.0015869140625,0.6978759765625,-0.8470458984375,-5.0048828125,-2.01416015625,-0.30517578125
798291,-0.0006103515625,0.6917724609375,-0.8494873046875,-4.82177734375,-1.7700194120407104,-0.0610351525247097
798307,-0.0032958984375,0.6641845703125,-0.8228759765625,-4.57763671875,-1.7700194120407104,-0.2441406100988388
798323,-0.004150390625,0.6719970703125,-0.828125,-4.5166015625,-1.8920897245407104,-0.4272460639476776
798343,-0.0001220703125,0.69482421875,-0.85302734375,-4.5166015625,-1.9531248807907104,-0.54931640625
798365,0.002197265625,0.7021484375,-0.86083984375,-4.08935546875,-1.6479490995407104,-0.3662109076976776
798381,0.0057373046875,0.700439453125,-0.8587646484375,-3.540038824081421,-1.2817381620407104,-0.1220703050494194
798398,0.00732421875,0.68505859375,-0.8399658203125,-3.173827886581421,-1.0986328125,-0.0610351525247097
798415,0.0074462890625,0.6663818359375,-0.811279296875,-2.685546636581421,-1.03759765625,0.0
798448,0.0064697265625,0.6619873046875,-0.8057861328125,-2.746581792831421,-1.15966796875,-0.1220703050494194
798465,0.0078125,0.6470947265625,-0.7879638671875,-2.746581792831421,-1.0986328125,-0.0610351525247097
798481,0.007568359375,0.6416015625,-0.78564453125,-2.685546636581421,-0.9765624403953552,-0.0610351525247097
798512,0.007080078125,0.620361328125,-0.7611083984375,-2.807616949081421,-0.9765624403953552,0.0
798533,0.007080078125,0.6304931640625,-0.768310546875,-2.929687261581421,-0.7934569716453552,0.1220703050494194
798549,0.0009765625,0.9893798828125,-1.158203125,0.30517578125,1.8310545682907104,2.50244140625
798566,0.01318359375,0.68505859375,-0.8367919921875,1.220703125,3.784179449081421,4.0283203125
798583,0.00390625,0.5391845703125,-0.6427001953125,0.0,3.723144292831421,4.39453125
798649,-0.0166015625,0.6021728515625,-0.7489013671875,0.4882812201976776,3.723144292831421,4.5166015625
798701,-0.02587890625,0.5587158203125,-0.7015380859375,1.4648436307907104,2.807616949081421,3.601073980331421
798751,0.0347900390625,0.53759765625,-0.7008056640625,-4.45556640625,-0.54931640625,-0.2441406100988388
798768,-0.0037841796875,0.6641845703125,-0.7852783203125,-3.479003667831421,-1.3427733182907104,-1.15966796875
798784,-0.0115966796875,0.6336669921875,-0.776123046875,-3.540038824081421,-0.54931640625,-0.0610351525247097
798821,-0.0208740234375,0.6033935546875,-0.8077392578125,-4.21142578125,1.4648436307907104,1.7700194120407104
798837,-0.0186767578125,0.564208984375,-0.715576171875,-3.662109136581421,0.4882812201976776,0.7934569716453552
798853,-0.0179443359375,0.58203125,-0.7403564453125,-3.295898199081421,-0.2441406100988388,0.30517578125
798869,-0.0089111328125,0.6387939453125,-0.8251953125,-3.173827886581421,0.4882812201976776,0.6713866591453552
798917,-0.024658203125,0.6229248046875,-0.7991943359375,-4.21142578125,0.1220703050494194,0.6103515625
798948,-0.0045166015625,0.5897216796875,-0.76123046875,-4.638671875,0.1831054538488388,0.6713866591453552
798965,-0.0064697265625,0.59716796875,-0.781005859375,-4.8828125,0.1220703050494194,0.7324218153953552
798981,-0.0155029296875,0.59912109375,-0.787841796875,-4.69970703125,0.30517578125,0.7934569716453552
799002,-0.0174560546875,0.5804443359375,-0.7784423828125,-4.45556640625,0.1831054538488388,0.6713866591453552
799018,-0.01513671875,0.591064453125,-0.79150390625,-4.2724609375,0.1831054538488388,0.54931640625
799034,-0.012939453125,0.5899658203125,-0.7857666015625,-4.21142578125,0.1220703050494194,0.54931640625
799051,-0.009521484375,0.5858154296875,-0.7672119140625,-4.33349609375,-0.2441406100988388,0.4272460639476776
799067,-0.0159912109375,0.59033203125,-0.794921875,-4.33349609375,0.0610351525247097,0.6103515625
799083,-0.013671875,0.5831298828125,-0.781982421875,-4.33349609375,0.0,0.54931640625
799119,-0.0145263671875,0.5809326171875,-0.788818359375,-3.601073980331421,0.0610351525247097,0.4882812201976776
799135,-0.01513671875,0.577392578125,-0.7840576171875,-3.173827886581421,0.0610351525247097,0.4272460639476776
799152,-0.0164794921875,0.58837890625,-0.7886962890625,-3.112792730331421,0.0,0.4272460639476776
799168,-0.0146484375,0.5799560546875,-0.7896728515625,-3.173827886581421,-0.0610351525247097,0.4882812201976776
799185,-0.013916015625,0.5814208984375,-0.792236328125,-3.295898199081421,0.0,0.4882812201976776
799202,-0.013671875,0.5723876953125,-0.781494140625,-3.234863042831421,-0.1220703050494194,0.4272460639476776
799233,-0.015625,0.574951171875,-0.794921875,-2.990722417831421,0.0610351525247097,0.4882812201976776
799255,-0.014404296875,0.5892333984375,-0.7918701171875,-2.929687261581421,-0.0610351525247097,0.4272460639476776
799271,-0.0152587890625,0.5723876953125,-0.7982177734375,-2.929687261581421,-0.1831054538488388,0.3662109076976776
799288,-0.0174560546875,0.5711669921875,-0.79296875,-2.746581792831421,-0.1831054538488388,0.3662109076976776
799305,-0.0189208984375,0.5701904296875,-0.801025390625,-2.50244140625,-0.2441406100988388,0.2441406100988388
799321,-0.0142822265625,0.5758056640625,-0.7911376953125,-2.3193359375,-0.1220703050494194,0.30517578125
799352,-0.0145263671875,0.57568359375,-0.797119140625,-2.01416015625,0.0610351525247097,0.4882812201976776
799368,-0.017822265625,0.5670166015625,-0.799560546875,-1.6479490995407104,0.0,0.4272460639476776
799384,-0.0172119140625,0.5699462890625,-0.8001708984375,-1.4648436307907104,0.0,0.4272460639476776
799416,-0.013916015625,0.568115234375,-0.7947998046875,-0.8544921278953552,-0.0610351525247097,0.3662109076976776
799432,-0.0155029296875,0.5650634765625,-0.7969970703125,-0.4882812201976776,-0.1831054538488388,0.30517578125
799448,-0.0179443359375,0.5689697265625,-0.8021240234375,0.1220703050494194,-0.2441406100988388,0.1831054538488388
799464,-0.018310546875,0.564208984375,-0.802490234375,0.3662109076976776,-0.2441406100988388,0.1831054538488388
799485,-0.0166015625,0.567626953125,-0.8031005859375,1.03759765625,-0.2441406100988388,0.1831054538488388
799506,-0.015380859375,0.56640625,-0.8011474609375,1.5869139432907104,-0.2441406100988388,0.1831054538488388
799522,-0.0145263671875,0.568359375,-0.799072265625,1.7700194120407104,-0.2441406100988388,0.1831054538488388
799539,-0.0177001953125,0.568115234375,-0.80078125,2.13623046875,-0.1831054538488388,0.2441406100988388
799556,-0.01806640625,0.5694580078125,-0.7999267578125,2.624511480331421,-0.2441406100988388,0.2441406100988388
799588,-0.0150146484375,0.569091796875,-0.798095703125,3.479003667831421,-0.2441406100988388,0.1831054538488388
799648,-0.01513671875,0.575439453125,-0.793701171875,4.08935546875,-0.30517578125,0.0610351525247097
799670,-0.015869140625,0.5762939453125,-0.792236328125,4.150390625,-0.30517578125,0.0610351525247097
799687,-0.0159912109375,0.5771484375,-0.7928466796875,4.150390625,-0.30517578125,0.1220703050494194
799704,-0.0146484375,0.57666015625,-0.793212890625,4.33349609375,-0.2441406100988388,0.1220703050494194
799720,-0.015869140625,0.578857421875,-0.7919921875,4.39453125,-0.2441406100988388,0.1220703050494194
799737,-0.0166015625,0.5792236328125,-0.7911376953125,4.45556640625,-0.2441406100988388,0.1220703050494194
799770,-0.0145263671875,0.5841064453125,-0.78955078125,4.39453125,-0.2441406100988388,0.0610351525247097
799792,-0.014892578125,0.58544921875,-0.7882080078125,4.2724609375,-0.2441406100988388,0.1220703050494194
799808,-0.015380859375,0.5859375,-0.7845458984375,3.906249761581421,-0.30517578125,0.1831054538488388
799825,-0.0146484375,0.5869140625,-0.78564453125,3.479003667831421,-0.30517578125,0.1220703050494194
799842,-0.0137939453125,0.5869140625,-0.782470703125,3.295898199081421,-0.30517578125,0.1220703050494194
799858,-0.0137939453125,0.589111328125,-0.7845458984375,2.868652105331421,-0.30517578125,0.1220703050494194
799891,-0.0164794921875,0.589111328125,-0.78515625,2.197265625,-0.30517578125,0.1831054538488388
799913,-0.0159912109375,0.5863037109375,-0.7825927734375,2.0751953125,-0.30517578125,0.2441406100988388
799929,-0.0142822265625,0.588623046875,-0.7872314453125,1.8920897245407104,-0.2441406100988388,0.1831054538488388
799946,-0.0140380859375,0.588623046875,-0.7879638671875,1.7700194120407104,-0.30517578125,0.1220703050494194
799963,-0.014892578125,0.5875244140625,-0.78466796875,1.7089842557907104,-0.3662109076976776,0.1220703050494194
799979,-0.0159912109375,0.5887451171875,-0.7816162109375,1.6479490995407104,-0.2441406100988388,0.2441406100988388
800011,-0.013671875,0.59033203125,-0.7833251953125,1.15966796875,-0.1831054538488388,0.30517578125
800027,-0.0133056640625,0.5911865234375,-0.7833251953125,1.03759765625,-0.1831054538488388,0.2441406100988388
800047,-0.01513671875,0.5899658203125,-0.782958984375,0.6713866591453552,-0.1831054538488388,0.1831054538488388
800067,-0.014892578125,0.5906982421875,-0.782958984375,0.30517578125,-0.1831054538488388,0.1831054538488388
800084,-0.0135498046875,0.591064453125,-0.78125,0.0,-0.2441406100988388,0.2441406100988388
800109,-0.0142822265625,0.589111328125,-0.7830810546875,-0.3662109076976776,-0.2441406100988388,0.2441406100988388
800125,-0.014404296875,0.5882568359375,-0.7821044921875,-0.6103515625,-0.1831054538488388,0.2441406100988388
800142,-0.0155029296875,0.5875244140625,-0.7808837890625,-0.7324218153953552,-0.1831054538488388,0.2441406100988388
800159,-0.014404296875,0.5870361328125,-0.7786865234375,-0.9765624403953552,-0.4882812201976776,0.1220703050494194
800191,-0.013671875,0.575927734375,-0.7862548828125,-1.2817381620407104,-1.7089842557907104,-0.7934569716453552
800207,-0.01513671875,0.573974609375,-0.78662109375,-1.0986328125,-2.38037109375,-1.0986328125
800223,-0.021728515625,0.5811767578125,-0.8343505859375,0.0,-2.685546636581421,-1.3427733182907104
800253,-0.011962890625,0.62451171875,-0.8988037109375,3.234863042831421,-2.44140625,-1.5869139432907104
800274,-0.020263671875,0.728515625,-1.0465087890625,4.7607421875,-1.8310545682907104,-1.2817381620407104
800290,-0.0189208984375,0.7838134765625,-1.09228515625,9.1552734375,-1.15966796875,-1.03759765625
800307,-0.0205078125,0.8370361328125,-1.138671875,13.183592796325684,-1.4648436307907104,-1.4038084745407104
800324,-0.0181884765625,0.91259765625,-1.1856689453125,15.686034202575684,-1.03759765625,-0.9155272841453552
800340,-0.015869140625,0.8511962890625,-1.119384765625,20.01953125,-0.1831054538488388,0.4882812201976776
800372,-0.0142822265625,0.798828125,-1.116943359375,24.780271530151367,-1.15966796875,-0.2441406100988388
800394,-0.0118408203125,0.807373046875,-1.113037109375,25.268552780151367,-0.9155272841453552,-0.30517578125
800410,-0.0120849609375,0.8148193359375,-1.0809326171875,26.367185592651367,-0.9155272841453552,-0.6713866591453552
800427,-0.01171875,0.8548583984375,-1.0625,26.794431686401367,-1.8310545682907104,-1.4038084745407104
800444,-0.010498046875,0.92578125,-1.1171875,27.221677780151367,-1.8920897245407104,-1.3427733182907104
800460,0.00048828125,0.96044921875,-1.1446533203125,28.564451217651367,-1.5258787870407104,-0.7934569716453552
800494,0.0113525390625,0.9630126953125,-1.1043701171875,29.479978561401367,-0.0610351525247097,0.4272460639476776
800510,0.0037841796875,0.9654541015625,-1.0823974609375,29.052732467651367,0.30517578125,0.6103515625
800526,0.0020751953125,0.9727783203125,-1.058837890625,27.832029342651367,1.0986328125,1.3427733182907104
800567,-0.016845703125,0.9276123046875,-0.982421875,24.169919967651367,2.3193359375,2.868652105331421
800583,-0.0218505859375,0.874267578125,-0.9310302734375,23.132322311401367,2.50244140625,2.990722417831421
800600,-0.0235595703125,0.8583984375,-0.9063720703125,20.324705123901367,2.868652105331421,2.990722417831421
800621,-0.02197265625,0.8199462890625,-0.8353271484375,17.15087890625,2.990722417831421,3.051757574081421
800637,-0.0194091796875,0.7685546875,-0.7818603515625,13.427733421325684,2.868652105331421,3.051757574081421
800654,-0.01513671875,0.7242431640625,-0.7462158203125,9.6435546875,2.868652105331421,2.868652105331421
800671,-0.0107421875,0.696533203125,-0.705322265625,7.873534679412842,3.112792730331421,2.929687261581421
800687,-0.01123046875,0.6729736328125,-0.67333984375,3.906249761581421,3.662109136581421,3.356933355331421
800703,-0.010498046875,0.594970703125,-0.587890625,0.30517578125,3.906249761581421,3.662109136581421
800733,-0.013671875,0.5140380859375,-0.5201416015625,-5.310058116912842,3.784179449081421,3.662109136581421
800754,-0.012939453125,0.478271484375,-0.4874267578125,-6.774901866912842,3.784179449081421,3.601073980331421
800771,-0.01171875,0.46533203125,-0.484619140625,-9.521484375,3.723144292831421,3.662109136581421
800788,-0.0111083984375,0.452392578125,-0.484130859375,-11.718749046325684,4.21142578125,4.0283203125
800805,-0.0130615234375,0.396728515625,-0.4361572265625,-12.573241233825684,4.45556640625,4.150390625
800821,-0.0152587890625,0.3636474609375,-0.390625,-14.404295921325684,4.5166015625,4.0283203125
800853,-0.0185546875,0.3343505859375,-0.3724365234375,-17.333984375,4.45556640625,3.845214605331421
800874,-0.0172119140625,0.3115234375,-0.3447265625,-17.9443359375,4.39453125,3.662109136581421
800890,-0.0196533203125,0.2913818359375,-0.3262939453125,-18.85986328125,3.784179449081421,3.173827886581421
800907,-0.0220947265625,0.2879638671875,-0.318603515625,-19.22607421875,3.601073980331421,2.868652105331421
800924,-0.0255126953125,0.2960205078125,-0.335205078125,-19.8974609375,2.929687261581421,2.38037109375
800940,-0.0272216796875,0.302001953125,-0.347412109375,-20.01953125,2.25830078125,1.7700194120407104
800973,-0.029052734375,0.331787109375,-0.401123046875,-19.83642578125,1.4648436307907104,0.7934569716453552
800990,-0.0274658203125,0.3275146484375,-0.3992919921875,-19.83642578125,0.9765624403953552,0.3662109076976776
801006,-0.029541015625,0.3651123046875,-0.45166015625,-19.8974609375,-0.1220703050494194,-0.6713866591453552
801042,-0.035888671875,0.5325927734375,-0.6337890625,-18.9208984375,-0.4882812201976776,-1.03759765625
801058,-0.0301513671875,0.5367431640625,-0.653076171875,-17.39501953125,-0.4882812201976776,-0.54931640625
801074,-0.0228271484375,0.5447998046875,-0.70947265625,-15.319823265075684,-0.2441406100988388,-0.6103515625
801090,-0.0223388671875,0.5460205078125,-0.7127685546875,-14.404295921325684,0.0610351525247097,-0.6713866591453552
801107,-0.027099609375,0.5472412109375,-0.67919921875,-12.695311546325684,-0.1831054538488388,-1.0986328125
801132,-0.0335693359375,0.5748291015625,-0.675048828125,-11.413573265075684,-0.7934569716453552,-1.15966796875
801148,-0.0347900390625,0.606689453125,-0.72216796875,-10.009765625,-1.03759765625,-0.9155272841453552
801165,-0.03515625,0.602783203125,-0.7640380859375,-8.97216796875,-0.9155272841453552,-0.6713866591453552
801186,-0.0350341796875,0.589111328125,-0.7559814453125,-6.896972179412842,-0.2441406100988388,-0.4882812201976776
801206,-0.03857421875,0.5716552734375,-0.7003173828125,-5.187987804412842,-0.6103515625,-0.9155272841453552
801272,-0.043212890625,0.5999755859375,-0.75732421875,-0.3662109076976776,-1.2817381620407104,-0.9155272841453552
801288,-0.038330078125,0.613525390625,-0.7464599609375,0.9765624403953552,-1.2817381620407104,-1.03759765625
801304,-0.0421142578125,0.6259765625,-0.758544921875,1.8310545682907104,-1.2817381620407104,-0.9765624403953552
801335,-0.0452880859375,0.6220703125,-0.7415771484375,2.990722417831421,-1.7700194120407104,-0.8544921278953552
801357,-0.0450439453125,0.6229248046875,-0.7442626953125,3.295898199081421,-1.7700194120407104,-0.8544921278953552
801373,-0.043212890625,0.625732421875,-0.745361328125,4.08935546875,-2.13623046875,-1.03759765625
801389,-0.0428466796875,0.640625,-0.7525634765625,4.7607421875,-2.197265625,-0.8544921278953552
801405,-0.0418701171875,0.63427734375,-0.743408203125,5.126952648162842,-2.25830078125,-0.9155272841453552
801422,-0.040283203125,0.6419677734375,-0.7445068359375,5.737304210662842,-2.563476324081421,-0.9765624403953552
801453,-0.031005859375,0.63525390625,-0.7413330078125,6.103515148162842,-2.685546636581421,-0.7934569716453552
801474,-0.0296630859375,0.6324462890625,-0.7454833984375,6.164550304412842,-2.746581792831421,-0.7324218153953552
801491,-0.02880859375,0.6358642578125,-0.749755859375,6.408690929412842,-2.929687261581421,-0.7324218153953552
801508,-0.0289306640625,0.6512451171875,-0.79248046875,6.591796398162842,-2.868652105331421,-0.6713866591453552
801525,-0.0250244140625,0.655029296875,-0.7940673828125,6.958007335662842,-2.197265625,-0.30517578125
801541,-0.0240478515625,0.646484375,-0.7821044921875,7.446288585662842,-1.7089842557907104,-0.0610351525247097
801573,-0.022705078125,0.6273193359375,-0.7579345703125,7.690429210662842,-1.5258787870407104,0.2441406100988388
801594,-0.022216796875,0.63232421875,-0.7625732421875,7.812499523162842,-1.4648436307907104,0.4272460639476776
801610,-0.02197265625,0.638916015625,-0.7745361328125,8.056640625,-1.15966796875,0.6103515625
801627,-0.0213623046875,0.638427734375,-0.7733154296875,8.1787109375,-0.9765624403953552,0.7324218153953552
801691,-0.0218505859375,0.641845703125,-0.773193359375,8.4228515625,-0.6103515625,1.3427733182907104
801708,-0.023193359375,0.63330078125,-0.7591552734375,8.4228515625,-0.4882812201976776,1.5258787870407104
801724,-0.0240478515625,0.623046875,-0.746337890625,8.30078125,-0.4882812201976776,1.6479490995407104
801756,-0.0260009765625,0.6180419921875,-0.74609375,7.446288585662842,-0.9765624403953552,1.5258787870407104
801772,-0.027587890625,0.6204833984375,-0.7515869140625,7.202147960662842,-0.9765624403953552,1.4648436307907104
801788,-0.0264892578125,0.6268310546875,-0.748046875,6.652831554412842,-0.9765624403953552,1.4648436307907104
801804,-0.025146484375,0.6212158203125,-0.7408447265625,6.286620616912842,-1.03759765625,1.4648436307907104
801824,-0.02294921875,0.61328125,-0.7274169921875,5.371093273162842,-1.4648436307907104,1.220703125
801840,-0.0252685546875,0.6143798828125,-0.7333984375,4.33349609375,-1.8310545682907104,0.9155272841453552
801856,-0.027099609375,0.6168212890625,-0.7354736328125,3.356933355331421,-1.9531248807907104,0.7324218153953552
801872,-0.0263671875,0.616455078125,-0.7349853515625,2.929687261581421,-2.0751953125,0.6103515625
801893,-0.0269775390625,0.6221923828125,-0.7431640625,1.8920897245407104,-2.0751953125,0.3662109076976776
801909,-0.0277099609375,0.626220703125,-0.7364501953125,1.4038084745407104,-2.0751953125,0.2441406100988388
801926,-0.0260009765625,0.632080078125,-0.7398681640625,0.4882812201976776,-2.197265625,0.1220703050494194
801943,-0.0235595703125,0.6343994140625,-0.7396240234375,-0.4882812201976776,-2.01416015625,0.0610351525247097
801960,-0.0213623046875,0.6307373046875,-0.733154296875,-1.4648436307907104,-1.8920897245407104,0.0610351525247097
801993,-0.0216064453125,0.6298828125,-0.7298583984375,-2.868652105331421,-1.8920897245407104,-0.1831054538488388
802009,-0.0223388671875,0.640380859375,-0.7396240234375,-3.662109136581421,-1.5869139432907104,-0.1831054538488388
802025,-0.02099609375,0.63916015625,-0.743408203125,-4.0283203125,-1.4648436307907104,-0.1220703050494194
802058,-0.0194091796875,0.6441650390625,-0.7598876953125,-4.57763671875,-1.0986328125,-0.0610351525247097
802079,-0.0191650390625,0.648193359375,-0.76611328125,-4.5166015625,-0.8544921278953552,0.0610351525247097
802095,-0.0196533203125,0.6387939453125,-0.757080078125,-4.21142578125,-0.6103515625,0.0610351525247097
802109,-0.021728515625,0.6395263671875,-0.7532958984375,-3.967284917831421,-0.3662109076976776,0.0610351525247097
802126,-0.0216064453125,0.63818359375,-0.7510986328125,-3.845214605331421,-0.3662109076976776,0.1220703050494194
802146,-0.02197265625,0.636474609375,-0.751708984375,-3.601073980331421,-0.2441406100988388,0.1831054538488388
802167,-0.0234375,0.635009765625,-0.757568359375,-2.868652105331421,0.1220703050494194,0.2441406100988388
802184,-0.0234375,0.63427734375,-0.751708984375,-2.563476324081421,0.1831054538488388,0.1831054538488388
802204,-0.02685546875,0.631103515625,-0.750244140625,-2.01416015625,0.1831054538488388,0.1220703050494194
802236,-0.027587890625,0.6192626953125,-0.740478515625,-1.3427733182907104,0.1831054538488388,0.1831054538488388
802252,-0.0277099609375,0.61962890625,-0.7454833984375,-0.9155272841453552,0.0610351525247097,0.0
802272,-0.0257568359375,0.6212158203125,-0.7498779296875,-0.1831054538488388,0.30517578125,-0.1220703050494194
802288,-0.0224609375,0.615966796875,-0.738525390625,0.4882812201976776,0.3662109076976776,-0.1220703050494194
802305,-0.0223388671875,0.6151123046875,-0.736083984375,0.7934569716453552,0.4272460639476776,-0.1220703050494194
802326,-0.018310546875,0.6103515625,-0.7265625,1.4038084745407104,0.4882812201976776,-0.30517578125
802342,-0.0140380859375,0.617431640625,-0.723876953125,1.9531248807907104,0.54931640625,-0.3662109076976776
802359,-0.010986328125,0.61669921875,-0.7213134765625,2.197265625,0.6713866591453552,-0.30517578125
802376,-0.0089111328125,0.611083984375,-0.7109375,2.685546636581421,0.9765624403953552,-0.1831054538488388
802409,-0.00634765625,0.579345703125,-0.6522216796875,2.624511480331421,0.7934569716453552,-0.4272460639476776
802426,-0.0078125,0.58447265625,-0.6575927734375,2.50244140625,0.6713866591453552,-0.4272460639476776
802442,-0.009765625,0.596923828125,-0.6761474609375,2.38037109375,0.7934569716453552,-0.4882812201976776
802474,-0.012939453125,0.605224609375,-0.700927734375,2.868652105331421,0.9155272841453552,-0.54931640625
802490,-0.01416015625,0.6097412109375,-0.7044677734375,3.479003667831421,1.0986328125,-0.54931640625
802506,-0.0155029296875,0.6090087890625,-0.70263671875,3.723144292831421,1.0986328125,-0.54931640625
802547,-0.0177001953125,0.5789794921875,-0.6473388671875,3.295898199081421,1.220703125,-0.6103515625
802563,-0.0155029296875,0.5750732421875,-0.6273193359375,2.197265625,0.6713866591453552,-0.9765624403953552
802580,-0.021240234375,0.584716796875,-0.639892578125,1.7089842557907104,0.54931640625,-0.9765624403953552
802630,-0.0167236328125,0.52490234375,-0.5625,-1.5258787870407104,-0.1220703050494194,-1.5258787870407104
802663,-0.0205078125,0.5928955078125,-0.6309814453125,-3.662109136581421,-1.7700194120407104,-2.563476324081421
802680,-0.0244140625,0.6541748046875,-0.7349853515625,-3.723144292831421,-1.8310545682907104,-2.44140625
802713,-0.018798828125,0.6229248046875,-0.7264404296875,-2.624511480331421,-0.3662109076976776,-1.3427733182907104
802730,-0.00830078125,0.5322265625,-0.60302734375,-2.929687261581421,0.0,-1.4038084745407104
802747,-0.0064697265625,0.5072021484375,-0.5755615234375,-3.479003667831421,-0.54931640625,-1.8310545682907104
802763,-0.007568359375,0.52001953125,-0.5836181640625,-4.638671875,-1.2817381620407104,-2.38037109375
802817,-0.0125732421875,0.594970703125,-0.7266845703125,-4.21142578125,0.30517578125,-1.3427733182907104
802843,-0.008544921875,0.5623779296875,-0.6851806640625,-3.723144292831421,0.7934569716453552,-1.4038084745407104
802891,-0.0096435546875,0.611328125,-0.762451171875,-2.01416015625,1.7089842557907104,-0.9765624403953552
802907,-0.008544921875,0.59619140625,-0.7486572265625,-0.54931640625,2.44140625,-0.6713866591453552
802924,-0.0126953125,0.5679931640625,-0.727294921875,0.8544921278953552,2.624511480331421,-0.7324218153953552
802956,-0.0208740234375,0.579833984375,-0.7252197265625,2.13623046875,2.44140625,-0.9765624403953552
802972,-0.0213623046875,0.602294921875,-0.7379150390625,3.051757574081421,2.746581792831421,-0.7324218153953552
802988,-0.02001953125,0.603515625,-0.7376708984375,3.479003667831421,2.929687261581421,-0.6103515625
803004,-0.0191650390625,0.5841064453125,-0.7152099609375,4.150390625,3.356933355331421,-0.1220703050494194
803024,-0.017822265625,0.5186767578125,-0.64208984375,4.2724609375,2.929687261581421,-0.30517578125
803046,-0.02001953125,0.50439453125,-0.63818359375,4.0283203125,1.7089842557907104,-1.220703125
803062,-0.024169921875,0.5447998046875,-0.712646484375,4.08935546875,1.3427733182907104,-1.5258787870407104
803079,-0.0250244140625,0.5498046875,-0.7276611328125,4.69970703125,1.3427733182907104,-1.4648436307907104
803096,-0.0281982421875,0.5419921875,-0.7198486328125,5.432128429412842,1.15966796875,-1.8920897245407104
803129,-0.0264892578125,0.556396484375,-0.680419921875,6.164550304412842,0.30517578125,-2.50244140625
803146,-0.0230712890625,0.5621337890625,-0.6744384765625,6.042479991912842,-0.6713866591453552,-2.929687261581421
803162,-0.0223388671875,0.5853271484375,-0.7242431640625,6.347655773162842,-1.7089842557907104,-3.173827886581421
803194,-0.0203857421875,0.637451171875,-0.80908203125,7.690429210662842,-1.9531248807907104,-3.479003667831421
803210,-0.013427734375,0.663818359375,-0.8236083984375,8.23974609375,-1.8310545682907104,-3.417968511581421
803226,-0.0108642578125,0.6566162109375,-0.8050537109375,9.21630859375,-1.6479490995407104,-3.112792730331421
803262,-0.0177001953125,0.6083984375,-0.720947265625,9.82666015625,-2.990722417831421,-3.662109136581421
803278,-0.0201416015625,0.6251220703125,-0.7376708984375,9.70458984375,-3.540038824081421,-3.967284917831421
803294,-0.0203857421875,0.6668701171875,-0.7872314453125,9.94873046875,-3.845214605331421,-3.967284917831421
803310,-0.016357421875,0.6878662109375,-0.819580078125,10.070799827575684,-3.845214605331421,-3.906249761581421
803328,-0.0123291015625,0.690185546875,-0.8154296875,10.375975608825684,-3.662109136581421,-3.662109136581421
803349,-0.00341796875,0.6859130859375,-0.790283203125,10.314940452575684,-3.723144292831421,-3.662109136581421
803365,-0.0032958984375,0.7117919921875,-0.80517578125,10.131834983825684,-3.967284917831421,-3.723144292831421
803382,-0.004638671875,0.7264404296875,-0.8179931640625,9.82666015625,-3.845214605331421,-3.356933355331421
803399,-0.0048828125,0.7320556640625,-0.8182373046875,9.46044921875,-3.479003667831421,-2.807616949081421
803432,0.0108642578125,0.707275390625,-0.7999267578125,8.4228515625,-2.929687261581421,-1.8920897245407104
803448,0.017822265625,0.710693359375,-0.8028564453125,7.995604991912842,-2.990722417831421,-1.8920897245407104
803468,0.0157470703125,0.77001953125,-0.8800048828125,7.629394054412842,-2.50244140625,-1.4038084745407104
803520,0.013427734375,0.7279052734375,-0.795166015625,6.591796398162842,-0.7324218153953552,0.4272460639476776
803562,0.011962890625,0.7867431640625,-0.86865234375,3.662109136581421,-1.0986328125,0.8544921278953552
803579,0.0087890625,0.797607421875,-0.9031982421875,3.051757574081421,-0.4272460639476776,1.5869139432907104
803612,0.0062255859375,0.7115478515625,-0.784423828125,1.7700194120407104,0.6713866591453552,2.38037109375
803629,0.0040283203125,0.7047119140625,-0.7593994140625,-0.0610351525247097,0.1220703050494194,2.01416015625
803646,-0.0054931640625,0.7188720703125,-0.7713623046875,-1.8310545682907104,-0.54931640625,1.5869139432907104
803682,-0.0181884765625,0.740478515625,-0.8095703125,-3.051757574081421,0.0,2.01416015625
803698,-0.017822265625,0.716552734375,-0.7803955078125,-3.356933355331421,0.0,2.0751953125
803714,-0.0147705078125,0.6639404296875,-0.7220458984375,-4.21142578125,-0.54931640625,1.3427733182907104
803729,-0.013671875,0.6654052734375,-0.71240234375,-4.7607421875,-1.03759765625,0.8544921278953552
803783,-0.015380859375,0.6644287109375,-0.694580078125,-6.958007335662842,-1.7700194120407104,0.30517578125
803799,-0.0135498046875,0.6748046875,-0.70556640625,-8.23974609375,-2.38037109375,-0.1831054538488388
803816,-0.009033203125,0.683837890625,-0.73583984375,-8.6669921875,-2.50244140625,-0.30517578125
803849,-0.0052490234375,0.7275390625,-0.8109130859375,-9.6435546875,-2.44140625,-0.4272460639476776
803866,-0.0030517578125,0.719482421875,-0.7930908203125,-9.58251953125,-1.8920897245407104,0.0610351525247097
803883,-0.00244140625,0.682373046875,-0.752197265625,-9.765625,-1.8310545682907104,0.0
803915,0.0064697265625,0.68310546875,-0.7645263671875,-9.8876953125,-2.685546636581421,-0.4272460639476776
803931,0.007080078125,0.69775390625,-0.7916259765625,-9.521484375,-2.50244140625,-0.3662109076976776
803947,0.0072021484375,0.697021484375,-0.7999267578125,-8.36181640625,-1.9531248807907104,0.0
803963,0.0137939453125,0.790283203125,-0.895751953125,-7.507323741912842,-1.3427733182907104,0.4272460639476776
803988,0.0716552734375,1.3311767578125,-1.54931640625,-4.08935546875,4.69970703125,5.859374523162842
804004,0.023681640625,0.5101318359375,-0.57568359375,-4.39453125,7.080077648162842,7.934569835662842
804021,-0.000732421875,0.4354248046875,-0.50146484375,-5.126952648162842,4.08935546875,5.432128429412842
804042,0.0,0.6270751953125,-0.7110595703125,-5.310058116912842,4.5166015625,5.859374523162842
804058,-0.0191650390625,0.645263671875,-0.7816162109375,-4.150390625,4.8828125,6.408690929412842
804091,-0.0230712890625,0.600830078125,-0.7542724609375,-1.5869139432907104,4.08935546875,5.432128429412842
804113,-0.0242919921875,0.6170654296875,-0.75244140625,1.220703125,4.69970703125,5.554198741912842
804129,-0.024169921875,0.541015625,-0.6600341796875,2.197265625,4.45556640625,4.94384765625
804146,-0.017333984375,0.435302734375,-0.5145263671875,2.0751953125,3.540038824081421,4.21142578125
804163,0.002197265625,0.348388671875,-0.405517578125,4.08935546875,-2.3193359375,-0.8544921278953552
804179,-0.00244140625,0.439453125,-0.50634765625,3.295898199081421,-7.568358898162842,-5.187987804412842
804211,0.0367431640625,0.730224609375,-0.94970703125,0.0610351525247097,2.807616949081421,3.417968511581421
804233,0.0347900390625,0.2855224609375,-0.3790283203125,1.5258787870407104,3.173827886581421,2.990722417831421
804249,-0.0068359375,0.434326171875,-0.5289306640625,3.295898199081421,-2.624511480331421,-2.685546636581421
804266,-0.0255126953125,0.9439697265625,-1.1136474609375,3.723144292831421,-1.6479490995407104,-1.8920897245407104
804284,0.005615234375,0.760009765625,-0.8985595703125,2.807616949081421,2.197265625,1.8920897245407104
804301,0.02001953125,0.452880859375,-0.48486328125,1.7089842557907104,-0.30517578125,0.2441406100988388
804334,-0.0086669921875,0.593994140625,-0.6986083984375,1.6479490995407104,0.54931640625,0.9765624403953552
804350,0.003173828125,0.54736328125,-0.6510009765625,1.3427733182907104,0.0610351525247097,0.30517578125
804366,-0.0115966796875,0.69970703125,-0.8111572265625,0.6713866591453552,0.1220703050494194,0.30517578125
804402,-0.010498046875,0.6300048828125,-0.6973876953125,-1.2817381620407104,-0.0610351525247097,0.4882812201976776
804419,-0.017578125,0.661865234375,-0.756591796875,-2.3193359375,-0.1831054538488388,0.6713866591453552
804440,-0.007568359375,0.6209716796875,-0.736328125,-2.868652105331421,0.0610351525247097,0.54931640625
804460,-0.011474609375,0.6422119140625,-0.766845703125,-3.051757574081421,0.0610351525247097,0.4882812201976776
804476,-0.0142822265625,0.6302490234375,-0.742431640625,-3.234863042831421,0.1220703050494194,0.4272460639476776
804508,-0.01220703125,0.6419677734375,-0.75048828125,-4.0283203125,-0.0610351525247097,0.54931640625
804525,-0.0068359375,0.62255859375,-0.7410888671875,-4.21142578125,-0.0610351525247097,0.6713866591453552
804546,-0.01708984375,0.62109375,-0.7672119140625,-4.2724609375,-0.1831054538488388,0.6713866591453552
804582,-0.014404296875,0.623779296875,-0.74658203125,-4.150390625,0.0610351525247097,0.54931640625
804634,-0.0140380859375,0.6212158203125,-0.753173828125,-4.5166015625,0.0,0.4882812201976776
804654,-0.01513671875,0.618408203125,-0.7657470703125,-4.5166015625,0.0,0.6103515625
804670,-0.013427734375,0.6173095703125,-0.761962890625,-4.39453125,0.1220703050494194,0.54931640625
804689,-0.0123291015625,0.6171875,-0.760986328125,-4.33349609375,0.0,0.54931640625
804743,-0.0147705078125,0.6131591796875,-0.7685546875,-3.784179449081421,-0.0610351525247097,0.4882812201976776
804769,-0.0140380859375,0.6094970703125,-0.769287109375,-3.295898199081421,0.0,0.4272460639476776
804786,-0.0133056640625,0.613037109375,-0.765869140625,-2.807616949081421,-0.0610351525247097,0.3662109076976776
804802,-0.01416015625,0.6083984375,-0.764404296875,-2.50244140625,-0.1220703050494194,0.3662109076976776
804823,-0.0142822265625,0.6131591796875,-0.7718505859375,-2.25830078125,-0.0610351525247097,0.4882812201976776
804839,-0.0155029296875,0.6065673828125,-0.7689208984375,-1.8920897245407104,-0.1220703050494194,0.3662109076976776
804856,-0.0146484375,0.607177734375,-0.7716064453125,-1.5869139432907104,-0.0610351525247097,0.30517578125
804872,-0.0135498046875,0.6119384765625,-0.7734375,-1.5258787870407104,0.0,0.30517578125
804888,-0.013916015625,0.60888671875,-0.761962890625,-1.5869139432907104,-0.1220703050494194,0.30517578125
804904,-0.0152587890625,0.6092529296875,-0.761962890625,-1.6479490995407104,-0.1831054538488388,0.2441406100988388
804933,-0.0126953125,0.604248046875,-0.76806640625,-1.6479490995407104,-0.1220703050494194,0.4272460639476776
804954,-0.0152587890625,0.60498046875,-0.771728515625,-1.4648436307907104,-0.1831054538488388,0.4272460639476776
804971,-0.0169677734375,0.6065673828125,-0.77490234375,-1.0986328125,-0.1831054538488388,0.30517578125
804988,-0.013916015625,0.603759765625,-0.77099609375,-0.9155272841453552,-0.1831054538488388,0.30517578125
805054,-0.0169677734375,0.60400390625,-0.777099609375,0.6103515625,-0.1831054538488388,0.3662109076976776
805070,-0.014892578125,0.6002197265625,-0.7734375,1.15966796875,-0.1220703050494194,0.2441406100988388
805086,-0.012939453125,0.603759765625,-0.769775390625,1.3427733182907104,-0.1220703050494194,0.2441406100988388
805122,-0.0145263671875,0.6065673828125,-0.771728515625,1.7700194120407104,-0.3662109076976776,0.2441406100988388
805138,-0.0146484375,0.6046142578125,-0.771728515625,2.01416015625,-0.2441406100988388,0.1831054538488388
805154,-0.014404296875,0.603759765625,-0.7708740234375,2.197265625,-0.2441406100988388,0.1220703050494194
805170,-0.0146484375,0.605224609375,-0.7716064453125,2.44140625,-0.2441406100988388,0.1220703050494194
805188,-0.0140380859375,0.6083984375,-0.771728515625,2.685546636581421,-0.30517578125,0.1220703050494194
805209,-0.0140380859375,0.6075439453125,-0.771484375,2.807616949081421,-0.2441406100988388,0.0610351525247097
805225,-0.0133056640625,0.6064453125,-0.7669677734375,2.990722417831421,-0.2441406100988388,0.1220703050494194
805292,-0.0146484375,0.6143798828125,-0.7662353515625,3.112792730331421,-0.2441406100988388,0.1220703050494194
805308,-0.0142822265625,0.6126708984375,-0.762451171875,2.868652105331421,-0.30517578125,0.1220703050494194
805325,-0.0150146484375,0.61376953125,-0.765380859375,2.746581792831421,-0.2441406100988388,0.1831054538488388
805357,-0.0142822265625,0.61181640625,-0.764892578125,2.563476324081421,-0.1831054538488388,0.1831054538488388
805373,-0.0140380859375,0.613525390625,-0.76513671875,2.563476324081421,-0.1220703050494194,0.1831054538488388
805389,-0.0142822265625,0.6148681640625,-0.7620849609375,2.50244140625,-0.2441406100988388,0.1831054538488388
805405,-0.0137939453125,0.6143798828125,-0.7608642578125,2.38037109375,-0.1831054538488388,0.1831054538488388
805479,-0.0133056640625,0.615966796875,-0.762939453125,2.3193359375,-0.2441406100988388,0.1831054538488388
805495,-0.0135498046875,0.615478515625,-0.76025390625,2.3193359375,-0.2441406100988388,0.1831054538488388
805512,-0.0142822265625,0.616455078125,-0.7628173828125,2.25830078125,-0.1831054538488388,0.1831054538488388
805529,-0.0130615234375,0.615478515625,-0.7613525390625,2.25830078125,-0.2441406100988388,0.1831054538488388
805579,-0.013916015625,0.616943359375,-0.760498046875,2.38037109375,-0.2441406100988388,0.1831054538488388
805602,-0.013427734375,0.6187744140625,-0.7596435546875,2.3193359375,-0.2441406100988388,0.1831054538488388
805619,-0.0126953125,0.6192626953125,-0.7606201171875,2.3193359375,-0.2441406100988388,0.1831054538488388
805652,-0.0155029296875,0.618408203125,-0.75830078125,2.3193359375,-0.2441406100988388,0.1831054538488388
805669,-0.0145263671875,0.620361328125,-0.7596435546875,2.25830078125,-0.1831054538488388,0.2441406100988388
805685,-0.0133056640625,0.62109375,-0.75927734375,2.197265625,-0.1831054538488388,0.2441406100988388
805722,-0.0140380859375,0.6217041015625,-0.7557373046875,1.9531248807907104,-0.2441406100988388,0.2441406100988388
805770,-0.01220703125,0.6217041015625,-0.7568359375,1.4648436307907104,-0.2441406100988388,0.2441406100988388
805792,-0.012939453125,0.62060546875,-0.7567138671875,1.3427733182907104,-0.1831054538488388,0.2441406100988388
805808,-0.0145263671875,0.624267578125,-0.7554931640625,1.2817381620407104,-0.1831054538488388,0.2441406100988388
805825,-0.013916015625,0.6241455078125,-0.7568359375,1.0986328125,-0.1831054538488388,0.2441406100988388
805842,-0.0145263671875,0.6229248046875,-0.7564697265625,0.9765624403953552,-0.1831054538488388,0.2441406100988388
805858,-0.0155029296875,0.623779296875,-0.7567138671875,0.7324218153953552,-0.1831054538488388,0.2441406100988388
805892,-0.0140380859375,0.6224365234375,-0.7568359375,0.6713866591453552,-0.1831054538488388,0.30517578125
805908,-0.0145263671875,0.6212158203125,-0.75732421875,0.6103515625,-0.1220703050494194,0.30517578125
805924,-0.0142822265625,0.623046875,-0.7587890625,0.6103515625,-0.1831054538488388,0.2441406100988388
805962,-0.0140380859375,0.6226806640625,-0.756591796875,0.4882812201976776,-0.1831054538488388,0.2441406100988388
805982,-0.013916015625,0.62255859375,-0.7564697265625,0.3662109076976776,-0.1831054538488388,0.1220703050494194
805998,-0.0137939453125,0.622802734375,-0.755859375,0.30517578125,-0.30517578125,0.1831054538488388
806019,-0.013427734375,0.6240234375,-0.757568359375,0.2441406100988388,-0.2441406100988388,0.2441406100988388
806035,-0.0140380859375,0.6214599609375,-0.75732421875,0.1831054538488388,-0.1831054538488388,0.30517578125
806052,-0.014404296875,0.621337890625,-0.7593994140625,0.1220703050494194,-0.1831054538488388,0.2441406100988388
806068,-0.0140380859375,0.6221923828125,-0.7579345703125,0.1220703050494194,-0.1831054538488388,0.2441406100988388
806085,-0.01416015625,0.6204833984375,-0.758544921875,0.2441406100988388,-0.1831054538488388,0.30517578125
806101,-0.012939453125,0.6212158203125,-0.7579345703125,0.1831054538488388,-0.2441406100988388,0.2441406100988388
806133,-0.01416015625,0.6209716796875,-0.7568359375,0.1220703050494194,-0.2441406100988388,0.1831054538488388
806154,-0.013671875,0.61962890625,-0.760009765625,0.1831054538488388,-0.30517578125,0.2441406100988388
806170,-0.0137939453125,0.6207275390625,-0.760498046875,0.2441406100988388,-0.2441406100988388,0.2441406100988388
806187,-0.01318359375,0.6202392578125,-0.7607421875,0.3662109076976776,-0.1831054538488388,0.2441406100988388
806253,-0.0145263671875,0.619384765625,-0.75732421875,0.9765624403953552,-0.2441406100988388,0.2441406100988388
806270,-0.0142822265625,0.620849609375,-0.7598876953125,1.03759765625,-0.2441406100988388,0.1831054538488388
806286,-0.0128173828125,0.6195068359375,-0.759765625,1.0986328125,-0.1831054538488388,0.1831054538488388
806322,-0.01513671875,0.6214599609375,-0.7537841796875,0.9155272841453552,-0.0610351525247097,0.2441406100988388
806354,-0.0130615234375,0.6224365234375,-0.7552490234375,0.4272460639476776,-0.1220703050494194,0.30517578125
806384,-0.0150146484375,0.6214599609375,-0.7576904296875,0.1831054538488388,-0.1220703050494194,0.3662109076976776
806433,-0.0130615234375,0.6212158203125,-0.7576904296875,0.0,-0.2441406100988388,0.2441406100988388
806450,-0.0128173828125,0.621337890625,-0.7581787109375,0.0,-0.2441406100988388,0.2441406100988388
806466,-0.0142822265625,0.6212158203125,-0.7611083984375,0.0,-0.2441406100988388,0.1831054538488388
806502,-0.013916015625,0.61962890625,-0.760986328125,0.30517578125,-0.2441406100988388,0.2441406100988388
806518,-0.0130615234375,0.619384765625,-0.7591552734375,0.3662109076976776,-0.1831054538488388,0.2441406100988388
806534,-0.01318359375,0.61962890625,-0.7581787109375,0.4272460639476776,-0.2441406100988388,0.2441406100988388
806566,-0.0162353515625,0.6229248046875,-0.7613525390625,0.4272460639476776,-0.2441406100988388,0.2441406100988388
806628,-0.013427734375,0.6207275390625,-0.7593994140625,0.54931640625,-0.2441406100988388,0.2441406100988388
806645,-0.0152587890625,0.620361328125,-0.7572021484375,0.54931640625,-0.1831054538488388,0.30517578125
806661,-0.0142822265625,0.6192626953125,-0.7596435546875,0.54931640625,-0.1831054538488388,0.2441406100988388
806682,-0.0128173828125,0.618896484375,-0.759521484375,0.6713866591453552,-0.1831054538488388,0.30517578125
806698,-0.012939453125,0.6199951171875,-0.761474609375,0.7324218153953552,-0.2441406100988388,0.30517578125
806715,-0.0137939453125,0.619873046875,-0.7578125,0.6713866591453552,-0.1831054538488388,0.2441406100988388
806731,-0.0155029296875,0.621337890625,-0.7591552734375,0.6713866591453552,-0.1831054538488388,0.2441406100988388
806779,-0.0128173828125,0.61962890625,-0.759033203125,0.6103515625,-0.1831054538488388,0.1831054538488388
806811,-0.0147705078125,0.61865234375,-0.7578125,0.6103515625,-0.30517578125,0.1831054538488388
806828,-0.014892578125,0.61669921875,-0.7589111328125,0.6713866591453552,-0.4272460639476776,0.1831054538488388
806845,-0.0111083984375,0.6114501953125,-0.75341796875,0.7324218153953552,-0.54931640625,0.0610351525247097
806862,-0.01220703125,0.6019287109375,-0.7740478515625,1.15966796875,-1.3427733182907104,-0.6103515625
806879,-0.0135498046875,0.607421875,-0.780029296875,2.0751953125,-1.9531248807907104,-1.7089842557907104
806912,-0.0286865234375,0.630126953125,-0.78369140625,3.356933355331421,-2.807616949081421,-1.8310545682907104
806934,-0.030517578125,0.6424560546875,-0.7916259765625,4.82177734375,-3.051757574081421,-1.8310545682907104
806950,-0.0396728515625,0.7144775390625,-0.97802734375,7.568358898162842,-1.7089842557907104,-0.9765624403953552
806967,-0.0252685546875,0.7900390625,-1.0316162109375,9.33837890625,-0.6713866591453552,-0.7324218153953552
806984,-0.015625,0.8372802734375,-1.00927734375,11.657713890075684,0.1220703050494194,-0.4882812201976776
807000,-0.0177001953125,0.8597412109375,-1.0120849609375,13.122557640075684,-0.1220703050494194,-0.0610351525247097
807034,-0.02880859375,0.8677978515625,-1.0137939453125,14.038084983825684,-0.1220703050494194,0.3662109076976776
807050,-0.0272216796875,0.8743896484375,-1.020751953125,14.038084983825684,-0.1220703050494194,0.30517578125
807066,-0.0184326171875,0.91015625,-1.0172119140625,13.732909202575684,-0.1831054538488388,0.54931640625
807102,-0.0164794921875,0.974853515625,-1.0506591796875,15.075682640075684,-0.4272460639476776,0.7324218153953552
807124,-0.00927734375,1.03125,-1.111572265625,16.41845703125,0.0610351525247097,1.4648436307907104
807140,-0.002685546875,1.0152587890625,-1.0841064453125,17.27294921875,0.9765624403953552,2.624511480331421
807160,-0.0052490234375,0.957763671875,-1.0157470703125,17.08984375,1.8920897245407104,3.540038824081421
807176,-0.0084228515625,0.889892578125,-0.939208984375,16.845703125,1.8920897245407104,3.723144292831421
807193,-0.0146484375,0.8798828125,-0.916259765625,15.686034202575684,1.7089842557907104,3.784179449081421
807210,-0.016845703125,0.879150390625,-0.9161376953125,14.526366233825684,1.7089842557907104,4.21142578125
807227,-0.01953125,0.8785400390625,-0.906005859375,13.732909202575684,1.5869139432907104,4.45556640625
807252,-0.0206298828125,0.8648681640625,-0.917236328125,13.366698265075684,1.03759765625,4.150390625
807268,-0.0235595703125,0.88232421875,-0.9527587890625,13.610838890075684,0.9765624403953552,4.150390625
807285,-0.0274658203125,0.8447265625,-0.8870849609375,14.160155296325684,1.220703125,4.08935546875
807302,-0.029541015625,0.821533203125,-0.8544921875,14.709471702575684,0.1831054538488388,3.295898199081421
807335,-0.034423828125,0.787109375,-0.8072509765625,15.686034202575684,-1.7700194120407104,1.9531248807907104
807352,-0.029052734375,0.77001953125,-0.7821044921875,15.808104515075684,-2.197265625,1.6479490995407104
807368,-0.0166015625,0.7398681640625,-0.76025390625,15.563963890075684,-2.990722417831421,1.0986328125
807384,-0.0050048828125,0.7362060546875,-0.747802734375,15.380858421325684,-2.990722417831421,1.0986328125
807409,0.001953125,0.695068359375,-0.718994140625,14.770506858825684,-2.868652105331421,1.5258787870407104
807425,0.0020751953125,0.6773681640625,-0.6905517578125,13.488768577575684,-2.746581792831421,1.8310545682907104
807442,-0.0018310546875,0.67529296875,-0.688720703125,11.901854515075684,-2.01416015625,2.50244140625
807459,-0.005615234375,0.6485595703125,-0.6319580078125,10.803221702575684,-1.5258787870407104,3.051757574081421
807476,-0.0091552734375,0.601806640625,-0.57421875,7.080077648162842,-0.9765624403953552,4.2724609375
807508,-0.01220703125,0.5506591796875,-0.5469970703125,3.112792730331421,-0.1220703050494194,5.554198741912842
807525,-0.013916015625,0.4984130859375,-0.503173828125,0.9765624403953552,0.7324218153953552,6.286620616912842
807541,-0.0137939453125,0.455322265625,-0.460693359375,-0.2441406100988388,0.9765624403953552,6.530761241912842
807573,-0.017578125,0.348876953125,-0.3631591796875,-3.417968511581421,0.8544921278953552,6.591796398162842
807589,-0.0174560546875,0.296142578125,-0.29833984375,-5.493163585662842,0.6713866591453552,5.981444835662842
807605,-0.022216796875,0.2835693359375,-0.287109375,-7.263183116912842,0.2441406100988388,5.371093273162842
807637,-0.025390625,0.3253173828125,-0.32275390625,-9.33837890625,0.0,5.0048828125
807653,-0.0247802734375,0.326416015625,-0.3177490234375,-9.70458984375,0.1220703050494194,4.94384765625
807669,-0.0247802734375,0.30615234375,-0.2977294921875,-10.620116233825684,-0.30517578125,4.45556640625
807685,-0.026611328125,0.3265380859375,-0.30810546875,-11.108397483825684,-0.7934569716453552,3.845214605331421
807705,-0.026611328125,0.3785400390625,-0.3729248046875,-11.962889671325684,-1.5869139432907104,3.173827886581421
807721,-0.025390625,0.40380859375,-0.3927001953125,-12.634276390075684,-1.7700194120407104,2.746581792831421
807737,-0.0238037109375,0.441650390625,-0.4278564453125,-12.634276390075684,-2.25830078125,2.25830078125
807753,-0.0223388671875,0.46728515625,-0.45849609375,-12.634276390075684,-2.563476324081421,2.0751953125
807817,-0.0272216796875,0.6051025390625,-0.6484375,-10.314940452575684,-2.929687261581421,1.2817381620407104
807833,-0.025146484375,0.6226806640625,-0.6490478515625,-9.6435546875,-2.746581792831421,1.3427733182907104
807849,-0.018310546875,0.6234130859375,-0.6427001953125,-8.544921875,-3.173827886581421,1.3427733182907104
807865,-0.0177001953125,0.6197509765625,-0.657958984375,-7.812499523162842,-3.356933355331421,1.220703125
807919,-0.0394287109375,0.634765625,-0.674072265625,-3.967284917831421,-4.21142578125,-0.1220703050494194
807950,-0.03173828125,0.62939453125,-0.67919921875,-2.44140625,-4.21142578125,-0.6103515625
807967,-0.0216064453125,0.63818359375,-0.66650390625,-1.6479490995407104,-4.21142578125,-1.0986328125
807984,-0.01904296875,0.64306640625,-0.6656494140625,-1.4038084745407104,-4.33349609375,-1.3427733182907104
808000,-0.0133056640625,0.6468505859375,-0.651611328125,-1.4648436307907104,-4.2724609375,-1.3427733182907104
808017,-0.0067138671875,0.641357421875,-0.6455078125,-1.8920897245407104,-4.69970703125,-1.5258787870407104
808050,0.001708984375,0.6746826171875,-0.7264404296875,-1.03759765625,-4.5166015625,-1.7089842557907104
808072,-0.00146484375,0.7099609375,-0.76953125,0.1220703050494194,-4.0283203125,-1.5869139432907104
808088,-0.0028076171875,0.7076416015625,-0.7608642578125,0.9765624403953552,-3.662109136581421,-1.3427733182907104
808105,-0.0035400390625,0.6993408203125,-0.7540283203125,2.624511480331421,-3.479003667831421,-1.220703125
808122,-0.0054931640625,0.698974609375,-0.7664794921875,4.21142578125,-3.112792730331421,-1.15966796875
808138,-0.0013427734375,0.68798828125,-0.74658203125,5.065917491912842,-2.929687261581421,-1.220703125
808172,0.00244140625,0.6888427734375,-0.718994140625,8.1787109375,-2.807616949081421,-1.2817381620407104
808188,-0.001708984375,0.6982421875,-0.734130859375,9.33837890625,-2.746581792831421,-1.2817381620407104
808204,-0.003173828125,0.6988525390625,-0.73681640625,9.82666015625,-2.563476324081421,-1.15966796875
808236,-0.0064697265625,0.696533203125,-0.73681640625,10.742186546325684,-1.8920897245407104,-0.8544921278953552
808252,-0.0062255859375,0.6898193359375,-0.7294921875,10.742186546325684,-1.15966796875,-0.4882812201976776
808268,-0.003173828125,0.6705322265625,-0.701416015625,10.192870140075684,-0.7934569716453552,-0.54931640625
808284,-0.00341796875,0.6754150390625,-0.70166015625,9.70458984375,-0.6103515625,-0.54931640625
808302,-0.0054931640625,0.6826171875,-0.697265625,8.60595703125,-0.0610351525247097,-0.1831054538488388
808323,-0.0069580078125,0.661376953125,-0.6844482421875,7.507323741912842,0.1220703050494194,-0.1220703050494194
808339,-0.010009765625,0.6751708984375,-0.7032470703125,7.019042491912842,0.1220703050494194,-0.2441406100988388
808360,-0.0103759765625,0.685791015625,-0.712158203125,6.347655773162842,0.6103515625,-0.1831054538488388
808377,-0.013427734375,0.682861328125,-0.709228515625,5.920409679412842,0.9765624403953552,-0.1831054538488388
808393,-0.0159912109375,0.6849365234375,-0.7064208984375,5.493163585662842,1.03759765625,-0.30517578125
808410,-0.0186767578125,0.6907958984375,-0.71240234375,5.187987804412842,1.15966796875,-0.2441406100988388
808426,-0.019775390625,0.68798828125,-0.7088623046875,5.0048828125,1.15966796875,-0.2441406100988388
808443,-0.021484375,0.6776123046875,-0.7041015625,4.5166015625,1.2817381620407104,-0.54931640625
808475,-0.0185546875,0.6923828125,-0.706787109375,4.0283203125,1.4648436307907104,-0.54931640625
808491,-0.01806640625,0.6788330078125,-0.67724609375,3.479003667831421,1.5258787870407104,-0.4882812201976776
808507,-0.018310546875,0.6666259765625,-0.66845703125,3.173827886581421,1.3427733182907104,-0.6103515625
808523,-0.0191650390625,0.6778564453125,-0.6767578125,2.44140625,1.03759765625,-0.8544921278953552
808543,-0.0216064453125,0.69189453125,-0.6934814453125,1.9531248807907104,1.220703125,-0.8544921278953552
808565,-0.022216796875,0.6875,-0.68017578125,1.5258787870407104,1.220703125,-0.7324218153953552
808581,-0.02392578125,0.6787109375,-0.6744384765625,1.2817381620407104,1.15966796875,-0.8544921278953552
808598,-0.02392578125,0.683349609375,-0.677734375,0.7934569716453552,0.7934569716453552,-0.9765624403953552
808615,-0.026123046875,0.7005615234375,-0.702392578125,0.6103515625,0.7934569716453552,-1.03759765625
808648,-0.02294921875,0.68798828125,-0.6812744140625,0.2441406100988388,0.8544921278953552,-0.9155272841453552
808665,-0.0228271484375,0.689697265625,-0.684814453125,-0.30517578125,0.54931640625,-1.03759765625
808681,-0.0196533203125,0.6900634765625,-0.6824951171875,-0.7934569716453552,0.6103515625,-1.0986328125
808713,-0.0166015625,0.682373046875,-0.669677734375,-1.7700194120407104,0.6103515625,-0.9765624403953552
808729,-0.0130615234375,0.681396484375,-0.6685791015625,-2.44140625,0.54931640625,-0.9155272841453552
808745,-0.0125732421875,0.685546875,-0.6751708984375,-2.807616949081421,0.6713866591453552,-0.8544921278953552
808777,-0.008056640625,0.680908203125,-0.664306640625,-3.662109136581421,1.03759765625,-0.6103515625
808825,0.0037841796875,0.7767333984375,-0.7537841796875,-4.45556640625,2.01416015625,0.6103515625
808846,0.009765625,0.74560546875,-0.722412109375,-4.2724609375,2.868652105331421,1.4648436307907104
808863,0.0079345703125,0.72998046875,-0.7042236328125,-4.2724609375,2.868652105331421,1.5869139432907104
808883,-0.002197265625,0.7249755859375,-0.7052001953125,-4.21142578125,2.807616949081421,1.9531248807907104
808904,-0.0128173828125,0.7081298828125,-0.685791015625,-4.150390625,2.990722417831421,2.38037109375
808925,-0.022705078125,0.6865234375,-0.6649169921875,-4.5166015625,2.685546636581421,2.25830078125
808945,-0.0267333984375,0.6778564453125,-0.6563720703125,-4.8828125,2.197265625,2.13623046875
808962,-0.028564453125,0.668212890625,-0.65771484375,-4.8828125,1.7700194120407104,1.9531248807907104
808983,-0.028564453125,0.66357421875,-0.6578369140625,-4.638671875,1.5869139432907104,1.8310545682907104
808999,-0.0260009765625,0.6549072265625,-0.6644287109375,-3.723144292831421,1.220703125,1.4648436307907104
809066,-0.0186767578125,0.636962890625,-0.6424560546875,-0.6713866591453552,0.2441406100988388,0.6103515625
809088,-0.0128173828125,0.6253662109375,-0.6112060546875,-0.30517578125,-0.1831054538488388,0.1831054538488388
809105,-0.0113525390625,0.643798828125,-0.628173828125,-0.1220703050494194,-0.30517578125,0.0610351525247097
809121,-0.009521484375,0.6412353515625,-0.615478515625,0.1220703050494194,-0.30517578125,0.1220703050494194
809142,-0.01025390625,0.6300048828125,-0.60009765625,0.4272460639476776,-0.2441406100988388,0.1831054538488388
809158,-0.009765625,0.623779296875,-0.5882568359375,0.54931640625,-0.4272460639476776,0.0610351525247097
809175,-0.01220703125,0.6368408203125,-0.60107421875,0.6103515625,-0.4272460639476776,-0.1831054538488388
809191,-0.0159912109375,0.6429443359375,-0.6019287109375,0.7324218153953552,-0.54931640625,-0.0610351525247097
809208,-0.018798828125,0.640625,-0.6033935546875,0.8544921278953552,-0.6103515625,-0.0610351525247097
809229,-0.0203857421875,0.642333984375,-0.6025390625,1.15966796875,-0.7324218153953552,-0.1220703050494194
809245,-0.0196533203125,0.645263671875,-0.609619140625,1.2817381620407104,-0.6713866591453552,-0.1220703050494194
809312,-0.018310546875,0.6336669921875,-0.5960693359375,0.1220703050494194,-1.4648436307907104,-0.7934569716453552
809385,-0.0233154296875,0.5740966796875,-0.5281982421875,0.2441406100988388,-1.8310545682907104,-1.4038084745407104
809402,-0.0255126953125,0.6346435546875,-0.6065673828125,0.0,-2.746581792831421,-1.9531248807907104
809435,-0.021728515625,0.6298828125,-0.6365966796875,1.2817381620407104,-2.197265625,-1.3427733182907104
809452,-0.0133056640625,0.5570068359375,-0.5672607421875,2.3193359375,-1.8310545682907104,-1.5869139432907104
809468,-0.0098876953125,0.5413818359375,-0.5499267578125,2.25830078125,-2.38037109375,-2.25830078125
809485,-0.0076904296875,0.61572265625,-0.60205078125,2.197265625,-2.990722417831421,-2.929687261581421
809505,-0.0084228515625,0.6756591796875,-0.6668701171875,2.929687261581421,-2.563476324081421,-2.44140625
809521,-0.0150146484375,0.6939697265625,-0.7056884765625,3.601073980331421,-2.197265625,-2.13623046875
809537,-0.0166015625,0.6639404296875,-0.681884765625,5.187987804412842,-1.0986328125,-1.4038084745407104
809553,-0.013916015625,0.588134765625,-0.588623046875,5.615233898162842,-0.9765624403953552,-1.7089842557907104
809569,-0.012939453125,0.564697265625,-0.5601806640625,5.432128429412842,-1.3427733182907104,-2.13623046875
809585,-0.01171875,0.5858154296875,-0.5726318359375,4.94384765625,-2.13623046875,-2.746581792831421
809633,-0.0120849609375,0.65771484375,-0.7177734375,6.347655773162842,0.0,-1.4038084745407104
809685,-0.0089111328125,0.6226806640625,-0.65576171875,6.652831554412842,0.0,-2.01416015625
809702,-0.009765625,0.6473388671875,-0.6815185546875,7.080077648162842,-0.54931640625,-2.25830078125
809735,-0.0264892578125,0.720703125,-0.8175048828125,10.986327171325684,1.0986328125,-1.4648436307907104
809752,-0.0179443359375,0.667724609375,-0.7509765625,11.962889671325684,1.5258787870407104,-1.15966796875
809768,-0.014892578125,0.6622314453125,-0.7371826171875,12.939452171325684,1.7700194120407104,-1.3427733182907104
809784,-0.0098876953125,0.65625,-0.70361328125,13.366698265075684,2.0751953125,-1.15966796875
809805,-0.0006103515625,0.6558837890625,-0.67041015625,13.549803733825684,1.5258787870407104,-1.4038084745407104
809826,-0.0013427734375,0.729248046875,-0.7542724609375,13.671874046325684,1.0986328125,-1.6479490995407104
809843,-0.0111083984375,0.7635498046875,-0.8189697265625,14.892577171325684,1.5869139432907104,-1.03759765625
809860,-0.0157470703125,0.75146484375,-0.81884765625,16.66259765625,2.563476324081421,-0.3662109076976776
809876,-0.01611328125,0.7220458984375,-0.76904296875,17.39501953125,2.807616949081421,-0.2441406100988388
809909,-0.0074462890625,0.6953125,-0.7191162109375,17.76123046875,2.990722417831421,-0.1831054538488388
809926,-0.0010986328125,0.6937255859375,-0.6959228515625,16.845703125,2.38037109375,-0.7324218153953552
809942,-0.00146484375,0.75732421875,-0.7255859375,16.17431640625,2.13623046875,-0.9155272841453552
809973,-0.0106201171875,0.7801513671875,-0.720703125,14.770506858825684,2.563476324081421,-0.30517578125
809994,-0.0107421875,0.77734375,-0.72314453125,13.427733421325684,2.25830078125,-0.54931640625
810010,-0.0074462890625,0.799072265625,-0.7020263671875,11.962889671325684,1.8920897245407104,-0.9155272841453552
810027,-0.0107421875,0.786865234375,-0.6949462890625,11.108397483825684,1.7700194120407104,-0.7324218153953552
810044,-0.005615234375,0.764404296875,-0.655029296875,8.97216796875,1.5258787870407104,-0.9155272841453552
810060,-0.006103515625,0.761474609375,-0.6722412109375,6.713866710662842,0.4272460639476776,-1.6479490995407104
810094,-0.0064697265625,0.796142578125,-0.6773681640625,2.197265625,0.54931640625,-1.7089842557907104
810158,0.003662109375,0.8238525390625,-0.7137451171875,-3.967284917831421,-0.6713866591453552,-1.9531248807907104
810179,0.007568359375,0.7958984375,-0.6907958984375,-5.187987804412842,-0.7324218153953552,-1.8920897245407104
810200,0.0107421875,0.777099609375,-0.6630859375,-6.347655773162842,-1.2817381620407104,-2.38037109375
810233,0.015869140625,0.850830078125,-0.7354736328125,-7.080077648162842,-1.7700194120407104,-2.0751953125
810287,0.01220703125,0.81591796875,-0.7159423828125,-6.042479991912842,-1.8920897245407104,-1.5869139432907104
810304,0.00927734375,0.8297119140625,-0.7322998046875,-5.493163585662842,-2.13623046875,-1.5258787870407104
810321,0.0023193359375,0.8380126953125,-0.751708984375,-4.8828125,-1.8310545682907104,-1.0986328125
810374,-0.004150390625,0.7752685546875,-0.6904296875,-3.295898199081421,-1.8920897245407104,-1.4648436307907104
810406,-0.0010986328125,0.8128662109375,-0.7303466796875,-2.3193359375,-2.25830078125,-1.6479490995407104
810423,-0.0001220703125,0.8037109375,-0.7314453125,-1.3427733182907104,-1.8920897245407104,-1.220703125
810460,-0.0009765625,0.7613525390625,-0.6759033203125,0.30517578125,-2.50244140625,-2.0751953125
810477,0.0032958984375,0.7864990234375,-0.6944580078125,0.8544921278953552,-2.929687261581421,-2.38037109375
810493,0.0032958984375,0.80078125,-0.711669921875,1.2817381620407104,-2.868652105331421,-2.25830078125
810510,0.00390625,0.7921142578125,-0.7120361328125,2.13623046875,-2.685546636581421,-2.01416015625
810527,0.005126953125,0.765869140625,-0.68505859375,2.807616949081421,-2.685546636581421,-2.25830078125
810548,0.0054931640625,0.758544921875,-0.6715087890625,2.868652105331421,-2.746581792831421,-2.38037109375
810564,0.010009765625,0.7469482421875,-0.6474609375,2.929687261581421,-3.051757574081421,-2.44140625
810581,0.015625,0.758056640625,-0.665283203125,2.807616949081421,-3.234863042831421,-2.746581792831421
810598,0.01904296875,0.769287109375,-0.6820068359375,2.990722417831421,-2.990722417831421,-2.685546636581421
810631,0.0213623046875,0.7601318359375,-0.66455078125,3.540038824081421,-2.50244140625,-2.25830078125
810648,0.036865234375,1.0419921875,-0.979736328125,1.220703125,-1.4038084745407104,-1.220703125
810664,0.064453125,1.3902587890625,-1.343017578125,-0.7934569716453552,1.7089842557907104,1.9531248807907104
810696,0.0087890625,0.580810546875,-0.5032958984375,-3.173827886581421,4.08935546875,3.967284917831421
810744,0.00732421875,0.7470703125,-0.664306640625,-1.7700194120407104,4.5166015625,4.7607421875
810766,0.000244140625,0.712890625,-0.6676025390625,-1.5258787870407104,4.69970703125,4.7607421875
810783,-0.001953125,0.7003173828125,-0.6527099609375,0.8544921278953552,4.69970703125,4.57763671875
810816,-0.0078125,0.6553955078125,-0.5863037109375,2.50244140625,3.601073980331421,3.234863042831421
810849,-0.01220703125,0.6505126953125,-0.5841064453125,2.868652105331421,2.44140625,2.44140625
810891,-0.0059814453125,0.6568603515625,-0.610107421875,4.7607421875,1.220703125,0.7934569716453552
810908,-0.00390625,0.666259765625,-0.6107177734375,5.493163585662842,0.9765624403953552,0.54931640625
810925,-0.0037841796875,0.6607666015625,-0.6099853515625,6.652831554412842,0.6713866591453552,0.0610351525247097
810941,-0.00341796875,0.980224609375,-0.8680419921875,6.713866710662842,1.2817381620407104,0.6713866591453552
810958,0.048828125,1.021728515625,-0.904541015625,7.751464366912842,3.417968511581421,3.112792730331421
810991,-0.021484375,0.5816650390625,-0.464111328125,2.868652105331421,-3.051757574081421,-2.50244140625
811039,0.0189208984375,0.6126708984375,-0.558837890625,7.446288585662842,0.2441406100988388,0.8544921278953552
811063,0.0,0.697998046875,-0.630615234375,5.859374523162842,-0.6103515625,-0.4882812201976776
811079,-0.01611328125,0.8424072265625,-0.7132568359375,6.164550304412842,-0.1831054538488388,-0.30517578125
811111,-0.000732421875,0.69970703125,-0.5643310546875,4.7607421875,-0.2441406100988388,0.2441406100988388
811127,-0.006103515625,0.7933349609375,-0.6611328125,3.601073980331421,-0.3662109076976776,0.1831054538488388
811144,-0.0009765625,0.77587890625,-0.6524658203125,3.234863042831421,-0.1831054538488388,0.4882812201976776
811176,-0.0050048828125,0.75830078125,-0.6405029296875,2.197265625,0.0,0.3662109076976776
811192,-0.01025390625,0.759765625,-0.6365966796875,1.6479490995407104,0.0,0.3662109076976776
811208,-0.007568359375,0.751708984375,-0.6204833984375,0.9765624403953552,0.0,0.4882812201976776
811224,-0.003662109375,0.7452392578125,-0.617431640625,0.4882812201976776,-0.0610351525247097,0.54931640625
811244,0.0003662109375,0.7564697265625,-0.6334228515625,-0.2441406100988388,0.0,0.54931640625
811266,-0.0003662109375,0.7437744140625,-0.63330078125,-0.6713866591453552,0.0610351525247097,0.6103515625
811282,-0.0054931640625,0.754150390625,-0.6376953125,-0.9155272841453552,0.0610351525247097,0.6103515625
811299,-0.0064697265625,0.7467041015625,-0.632568359375,-1.3427733182907104,0.0610351525247097,0.6103515625
811316,-0.0047607421875,0.7442626953125,-0.6265869140625,-1.5869139432907104,0.0610351525247097,0.54931640625
811353,-0.002197265625,0.7418212890625,-0.634765625,-2.0751953125,-0.1220703050494194,0.6103515625
811369,-0.0048828125,0.7427978515625,-0.63916015625,-2.3193359375,-0.0610351525247097,0.6713866591453552
811390,-0.005615234375,0.744384765625,-0.637939453125,-2.50244140625,-0.0610351525247097,0.6103515625
811410,-0.00341796875,0.744873046875,-0.6407470703125,-2.50244140625,-0.1831054538488388,0.54931640625
811427,-0.003173828125,0.7451171875,-0.6419677734375,-2.50244140625,-0.2441406100988388,0.4882812201976776
811448,-0.00537109375,0.7359619140625,-0.6446533203125,-2.3193359375,-0.1220703050494194,0.54931640625
811464,-0.005615234375,0.7364501953125,-0.6500244140625,-1.8310545682907104,-0.1220703050494194,0.3662109076976776
811481,-0.005126953125,0.73583984375,-0.647705078125,-1.5869139432907104,-0.1220703050494194,0.30517578125
811498,-0.0062255859375,0.73681640625,-0.6453857421875,-1.15966796875,-0.1220703050494194,0.30517578125
811526,-0.003662109375,0.7366943359375,-0.6441650390625,-0.6713866591453552,-0.1220703050494194,0.4272460639476776
811543,-0.00390625,0.735595703125,-0.647216796875,-0.4272460639476776,-0.1831054538488388,0.3662109076976776
811559,-0.0045166015625,0.7357177734375,-0.648193359375,0.0,-0.1831054538488388,0.30517578125
811587,-0.0062255859375,0.738037109375,-0.6490478515625,0.4272460639476776,-0.1220703050494194,0.2441406100988388
811609,-0.005615234375,0.736328125,-0.646728515625,0.9155272841453552,-0.1831054538488388,0.1831054538488388
811625,-0.0047607421875,0.7369384765625,-0.6461181640625,1.15966796875,-0.1831054538488388,0.1831054538488388
811642,-0.0072021484375,0.73828125,-0.64501953125,1.3427733182907104,-0.1831054538488388,0.1831054538488388
811661,-0.0079345703125,0.7381591796875,-0.643310546875,1.5258787870407104,-0.1831054538488388,0.1831054538488388
811678,-0.00439453125,0.74267578125,-0.6485595703125,1.5258787870407104,-0.1831054538488388,0.2441406100988388
811694,-0.00244140625,0.7376708984375,-0.6436767578125,1.5869139432907104,-0.1220703050494194,0.30517578125
811711,-0.005615234375,0.73974609375,-0.6463623046875,1.7089842557907104,-0.2441406100988388,0.30517578125
811727,-0.0072021484375,0.7379150390625,-0.6451416015625,1.8310545682907104,-0.1831054538488388,0.2441406100988388
811743,-0.00634765625,0.7369384765625,-0.64404296875,2.0751953125,-0.30517578125,0.1831054538488388
811772,-0.0040283203125,0.74169921875,-0.645751953125,2.38037109375,-0.2441406100988388,0.1831054538488388
811794,-0.006591796875,0.7403564453125,-0.641845703125,2.38037109375,-0.1831054538488388,0.1831054538488388
811810,-0.0057373046875,0.7403564453125,-0.6417236328125,2.44140625,-0.30517578125,0.1831054538488388
811826,-0.0050048828125,0.7415771484375,-0.6422119140625,2.563476324081421,-0.3662109076976776,0.1220703050494194
811892,-0.0068359375,0.7452392578125,-0.637451171875,2.929687261581421,-0.2441406100988388,0.1220703050494194
811965,-0.006591796875,0.744384765625,-0.63623046875,3.112792730331421,-0.2441406100988388,0.0610351525247097
811982,-0.005126953125,0.7464599609375,-0.6392822265625,3.112792730331421,-0.30517578125,0.0610351525247097
812015,-0.003662109375,0.7484130859375,-0.6326904296875,2.868652105331421,-0.2441406100988388,0.1220703050494194
812048,-0.00634765625,0.7501220703125,-0.6337890625,2.563476324081421,-0.30517578125,0.1831054538488388
812089,-0.0030517578125,0.7484130859375,-0.6363525390625,2.685546636581421,-0.1831054538488388,0.1220703050494194
812106,-0.005126953125,0.7506103515625,-0.63134765625,2.44140625,-0.1220703050494194,0.1831054538488388
812123,-0.0047607421875,0.7509765625,-0.6302490234375,2.38037109375,-0.1831054538488388,0.1831054538488388
812142,-0.00341796875,0.747802734375,-0.632080078125,2.25830078125,-0.2441406100988388,0.1831054538488388
812159,-0.0035400390625,0.7503662109375,-0.6339111328125,2.01416015625,-0.1831054538488388,0.1220703050494194
812192,-0.005615234375,0.7523193359375,-0.62841796875,1.6479490995407104,-0.30517578125,0.1220703050494194
812208,-0.0045166015625,0.7525634765625,-0.6285400390625,1.4648436307907104,-0.30517578125,0.1220703050494194
812224,-0.001953125,0.75390625,-0.6280517578125,1.15966796875,-0.1831054538488388,0.2441406100988388
812256,-0.0050048828125,0.7503662109375,-0.6295166015625,0.7934569716453552,-0.2441406100988388,0.3662109076976776
812272,-0.00537109375,0.75,-0.6275634765625,0.54931640625,-0.2441406100988388,0.2441406100988388
812288,-0.0045166015625,0.7530517578125,-0.628173828125,0.3662109076976776,-0.2441406100988388,0.1831054538488388
812304,-0.0018310546875,0.7509765625,-0.6280517578125,0.0610351525247097,-0.30517578125,0.1220703050494194
812324,0.000732421875,0.7353515625,-0.6160888671875,-0.1831054538488388,-0.9765624403953552,-0.4272460639476776
812340,-0.003173828125,0.7296142578125,-0.6444091796875,-0.1831054538488388,-1.5258787870407104,-1.03759765625
812356,-0.0042724609375,0.7401123046875,-0.6573486328125,0.7324218153953552,-2.3193359375,-2.13623046875
