tMillis,ax,ay,az,gx,gy,gz
71187,0.0330810546875,-0.0350341796875,1.0238037109375,0.6103515625,-0.1831054538488388,0.30517578125
71203,0.0335693359375,-0.03515625,1.02392578125,0.6103515625,-0.2441406100988388,0.30517578125
71220,0.0345458984375,-0.0338134765625,1.0250244140625,0.6713866591453552,-0.2441406100988388,0.2441406100988388
71237,0.03466796875,-0.03369140625,1.023681640625,0.6713866591453552,-0.1831054538488388,0.2441406100988388
71253,0.0328369140625,-0.033935546875,1.0238037109375,0.6713866591453552,-0.1831054538488388,0.2441406100988388
71270,0.0325927734375,-0.0338134765625,1.0279541015625,0.6103515625,-0.1831054538488388,0.2441406100988388
71291,0.03369140625,-0.0335693359375,1.02294921875,0.6103515625,-0.1831054538488388,0.2441406100988388
71307,0.034423828125,-0.03466796875,1.0245361328125,0.6103515625,-0.1831054538488388,0.1831054538488388
71323,0.033447265625,-0.0350341796875,1.0260009765625,0.6103515625,-0.1220703050494194,0.2441406100988388
71339,0.0341796875,-0.0347900390625,1.0252685546875,0.6103515625,-0.1831054538488388,0.2441406100988388
71404,0.0333251953125,-0.0340576171875,1.0247802734375,0.6713866591453552,-0.1831054538488388,0.30517578125
71425,0.033447265625,-0.0343017578125,1.0247802734375,0.6713866591453552,-0.1220703050494194,0.2441406100988388
71441,0.0335693359375,-0.0350341796875,1.0240478515625,0.6713866591453552,-0.1220703050494194,0.1831054538488388
71475,0.0340576171875,-0.033447265625,1.025146484375,0.6103515625,-0.2441406100988388,0.2441406100988388
71529,0.034912109375,-0.0345458984375,1.023681640625,0.6713866591453552,-0.1831054538488388,0.30517578125
71546,0.0325927734375,-0.0343017578125,1.02392578125,0.7324218153953552,-0.1220703050494194,0.30517578125
71579,0.033935546875,-0.033447265625,1.024658203125,0.6103515625,-0.1220703050494194,0.2441406100988388
71596,0.033935546875,-0.034423828125,1.0245361328125,0.6713866591453552,-0.1220703050494194,0.30517578125
71629,0.03466796875,-0.03466796875,1.024658203125,0.6713866591453552,-0.1831054538488388,0.1831054538488388
71651,0.033203125,-0.0341796875,1.026611328125,0.6713866591453552,-0.1831054538488388,0.30517578125
71668,0.0325927734375,-0.0345458984375,1.0244140625,0.6103515625,-0.1831054538488388,0.30517578125
71697,0.032958984375,-0.03466796875,1.0238037109375,0.6713866591453552,-0.1831054538488388,0.1831054538488388
71714,0.033203125,-0.03466796875,1.0240478515625,0.6713866591453552,-0.1220703050494194,0.2441406100988388
71730,0.03369140625,-0.033935546875,1.0240478515625,0.6713866591453552,-0.1831054538488388,0.30517578125
71758,0.0325927734375,-0.035888671875,1.02490234375,0.6713866591453552,-0.1831054538488388,0.2441406100988388
71780,0.032958984375,-0.035400390625,1.024169921875,0.6103515625,-0.1831054538488388,0.2441406100988388
71796,0.033447265625,-0.03369140625,1.023193359375,0.6103515625,-0.1220703050494194,0.2441406100988388
71813,0.033935546875,-0.033447265625,1.0245361328125,0.6103515625,-0.1831054538488388,0.2441406100988388
71863,0.034423828125,-0.034423828125,1.02490234375,0.6713866591453552,-0.1831054538488388,0.1831054538488388
71896,0.033447265625,-0.0328369140625,1.0247802734375,0.6103515625,-0.1220703050494194,0.2441406100988388
71913,0.033203125,-0.0341796875,1.0242919921875,0.6713866591453552,-0.1831054538488388,0.2441406100988388
71929,0.033447265625,-0.034912109375,1.023193359375,0.6713866591453552,-0.1220703050494194,0.1831054538488388
71950,0.03369140625,-0.0347900390625,1.026123046875,0.6103515625,-0.1220703050494194,0.2441406100988388
71966,0.0338134765625,-0.03466796875,1.0244140625,0.6713866591453552,-0.1220703050494194,0.30517578125
71982,0.0325927734375,-0.034912109375,1.0242919921875,0.6103515625,-0.1220703050494194,0.2441406100988388
71999,0.0325927734375,-0.0343017578125,1.0260009765625,0.7324218153953552,-0.1831054538488388,0.2441406100988388
72015,0.0338134765625,-0.0340576171875,1.0252685546875,0.6713866591453552,-0.1831054538488388,0.2441406100988388
72032,0.034423828125,-0.0343017578125,1.0247802734375,0.6713866591453552,-0.1831054538488388,0.30517578125
72053,0.033935546875,-0.0345458984375,1.024169921875,0.6713866591453552,-0.1831054538488388,0.2441406100988388
72119,0.0338134765625,-0.0345458984375,1.0247802734375,0.6713866591453552,-0.1220703050494194,0.30517578125
72136,0.0340576171875,-0.0345458984375,1.02490234375,0.6713866591453552,-0.1831054538488388,0.2441406100988388
72153,0.03271484375,-0.03466796875,1.02392578125,0.6713866591453552,-0.1831054538488388,0.1831054538488388
72169,0.033203125,-0.0343017578125,1.0244140625,0.6103515625,-0.2441406100988388,0.1831054538488388
72225,0.0341796875,-0.0343017578125,1.0252685546875,0.6713866591453552,-0.1831054538488388,0.2441406100988388
72251,0.033203125,-0.033935546875,1.0250244140625,0.6103515625,-0.2441406100988388,0.2441406100988388
72268,0.0333251953125,-0.03564453125,1.0260009765625,0.6103515625,-0.2441406100988388,0.2441406100988388
72301,0.03369140625,-0.0352783203125,1.0245361328125,0.6103515625,-0.1831054538488388,0.2441406100988388
72318,0.033935546875,-0.0347900390625,1.0230712890625,0.6103515625,-0.1831054538488388,0.2441406100988388
72334,0.03369140625,-0.0345458984375,1.0260009765625,0.6713866591453552,-0.1220703050494194,0.2441406100988388
72351,0.03369140625,-0.0343017578125,1.0269775390625,0.6713866591453552,-0.1220703050494194,0.2441406100988388
72370,0.03369140625,-0.035400390625,1.0252685546875,0.6713866591453552,-0.1831054538488388,0.2441406100988388
72391,0.0333251953125,-0.0340576171875,1.0252685546875,0.6713866591453552,-0.2441406100988388,0.2441406100988388
72408,0.03369140625,-0.0330810546875,1.024169921875,0.6713866591453552,-0.2441406100988388,0.30517578125
72425,0.0338134765625,-0.0347900390625,1.025390625,0.6103515625,-0.1831054538488388,0.2441406100988388
72441,0.0341796875,-0.0341796875,1.0255126953125,0.54931640625,-0.1831054538488388,0.1831054538488388
72475,0.033203125,-0.035400390625,1.02392578125,0.6103515625,-0.1831054538488388,0.2441406100988388
72492,0.0328369140625,-0.0347900390625,1.0250244140625,0.6713866591453552,-0.1831054538488388,0.2441406100988388
72513,0.033203125,-0.0340576171875,1.0234375,0.7324218153953552,-0.2441406100988388,0.2441406100988388
72529,0.03466796875,-0.034423828125,1.0247802734375,0.6713866591453552,-0.2441406100988388,0.2441406100988388
72596,0.033447265625,-0.033935546875,1.0235595703125,0.6713866591453552,-0.1831054538488388,0.2441406100988388
72613,0.0338134765625,-0.033935546875,1.0235595703125,0.6103515625,-0.1831054538488388,0.2441406100988388
72629,0.0335693359375,-0.03466796875,1.0255126953125,0.6103515625,-0.2441406100988388,0.2441406100988388
72659,0.0340576171875,-0.03466796875,1.0245361328125,0.6103515625,-0.2441406100988388,0.2441406100988388
72680,0.0341796875,-0.0343017578125,1.0245361328125,0.6103515625,-0.1831054538488388,0.2441406100988388
72696,0.032958984375,-0.0347900390625,1.0257568359375,0.6713866591453552,-0.1831054538488388,0.30517578125
72713,0.0322265625,-0.03466796875,1.025146484375,0.7324218153953552,-0.1831054538488388,0.30517578125
72730,0.0330810546875,-0.0352783203125,1.02490234375,0.6713866591453552,-0.1831054538488388,0.2441406100988388
72750,0.0340576171875,-0.0345458984375,1.0242919921875,0.6103515625,-0.1831054538488388,0.30517578125
72771,0.03466796875,-0.034423828125,1.0242919921875,0.6103515625,-0.1831054538488388,0.30517578125
72790,0.0335693359375,-0.0347900390625,1.0245361328125,0.6103515625,-0.2441406100988388,0.2441406100988388
72810,0.032470703125,-0.0350341796875,1.025390625,0.6713866591453552,-0.2441406100988388,0.2441406100988388
72842,0.0335693359375,-0.03466796875,1.024658203125,0.6713866591453552,-0.1831054538488388,0.2441406100988388
72858,0.032470703125,-0.0343017578125,1.0228271484375,0.6713866591453552,-0.1831054538488388,0.2441406100988388
72874,0.0325927734375,-0.033203125,1.023193359375,0.6103515625,-0.1831054538488388,0.2441406100988388
72890,0.03271484375,-0.033203125,1.023193359375,0.6103515625,-0.2441406100988388,0.2441406100988388
72910,0.0340576171875,-0.0340576171875,1.025634765625,0.6103515625,-0.1831054538488388,0.2441406100988388
72926,0.0325927734375,-0.0345458984375,1.0247802734375,0.6713866591453552,-0.2441406100988388,0.2441406100988388
72958,0.0338134765625,-0.0341796875,1.0234375,0.6713866591453552,-0.2441406100988388,0.2441406100988388
72978,0.033935546875,-0.0338134765625,1.0263671875,0.6103515625,-0.1831054538488388,0.2441406100988388
72994,0.0335693359375,-0.0335693359375,1.0267333984375,0.6103515625,-0.1831054538488388,0.30517578125
73010,0.0325927734375,-0.03466796875,1.0260009765625,0.6103515625,-0.2441406100988388,0.30517578125
73030,0.0333251953125,-0.0341796875,1.0252685546875,0.6713866591453552,-0.1831054538488388,0.2441406100988388
73046,0.0340576171875,-0.03466796875,1.0234375,0.6713866591453552,-0.2441406100988388,0.2441406100988388
73062,0.0347900390625,-0.034423828125,1.0228271484375,0.6103515625,-0.1831054538488388,0.2441406100988388
73078,0.0335693359375,-0.03466796875,1.024658203125,0.6103515625,-0.2441406100988388,0.2441406100988388
73094,0.0328369140625,-0.033935546875,1.0240478515625,0.6103515625,-0.1831054538488388,0.2441406100988388
73110,0.032470703125,-0.0341796875,1.0238037109375,0.6103515625,-0.1831054538488388,0.1831054538488388
73138,0.034423828125,-0.034912109375,1.0260009765625,0.6103515625,-0.2441406100988388,0.30517578125
73160,0.0345458984375,-0.034423828125,1.0245361328125,0.6103515625,-0.1831054538488388,0.30517578125
73176,0.032958984375,-0.0355224609375,1.0230712890625,0.6713866591453552,-0.1831054538488388,0.2441406100988388
73193,0.0335693359375,-0.0350341796875,1.0189208984375,0.7324218153953552,-0.1220703050494194,0.2441406100988388
73210,0.034423828125,-0.0341796875,1.0306396484375,0.6713866591453552,-0.1831054538488388,0.2441406100988388
73226,0.03271484375,-0.035400390625,1.02587890625,0.6103515625,-0.2441406100988388,0.2441406100988388
73258,0.0340576171875,-0.0352783203125,1.0250244140625,0.6713866591453552,-0.2441406100988388,0.30517578125
73280,0.0350341796875,-0.0352783203125,1.0250244140625,0.6713866591453552,-0.2441406100988388,0.2441406100988388
73296,0.0350341796875,-0.03466796875,1.0242919921875,0.6713866591453552,-0.1831054538488388,0.2441406100988388
73313,0.033447265625,-0.03466796875,1.0233154296875,0.6713866591453552,-0.2441406100988388,0.30517578125
73330,0.033203125,-0.0343017578125,1.024658203125,0.6103515625,-0.2441406100988388,0.2441406100988388
73346,0.033447265625,-0.0350341796875,1.02490234375,0.6713866591453552,-0.2441406100988388,0.2441406100988388
73377,0.0333251953125,-0.0338134765625,1.022705078125,0.6713866591453552,-0.1831054538488388,0.2441406100988388
73394,0.0341796875,-0.033447265625,1.0247802734375,0.6713866591453552,-0.1831054538488388,0.2441406100988388
73410,0.0338134765625,-0.0352783203125,1.0281982421875,0.6713866591453552,-0.1831054538488388,0.30517578125
73438,0.033447265625,-0.0350341796875,1.0247802734375,0.6713866591453552,-0.1831054538488388,0.2441406100988388
73460,0.0335693359375,-0.03466796875,1.0252685546875,0.6713866591453552,-0.2441406100988388,0.2441406100988388
73476,0.0340576171875,-0.0335693359375,1.025390625,0.6713866591453552,-0.2441406100988388,0.2441406100988388
73526,0.0335693359375,-0.0352783203125,1.0257568359375,0.6713866591453552,-0.1831054538488388,0.1831054538488388
73570,0.0338134765625,-0.0345458984375,1.02490234375,0.6103515625,-0.1220703050494194,0.2441406100988388
73587,0.033447265625,-0.0341796875,1.0247802734375,0.6103515625,-0.1220703050494194,0.1831054538488388
73617,0.0335693359375,-0.0345458984375,1.0233154296875,0.6713866591453552,-0.1220703050494194,0.2441406100988388
73633,0.034423828125,-0.0340576171875,1.0242919921875,0.6103515625,-0.2441406100988388,0.2441406100988388
73650,0.034423828125,-0.0335693359375,1.0264892578125,0.6103515625,-0.1831054538488388,0.2441406100988388
73682,0.0333251953125,-0.0350341796875,1.0235595703125,0.6713866591453552,-0.1831054538488388,0.1831054538488388
73698,0.0341796875,-0.0343017578125,1.0244140625,0.6713866591453552,-0.1220703050494194,0.30517578125
73714,0.0335693359375,-0.034423828125,1.0240478515625,0.6713866591453552,-0.1831054538488388,0.30517578125
73730,0.0333251953125,-0.0343017578125,1.0250244140625,0.6713866591453552,-0.2441406100988388,0.30517578125
73750,0.0325927734375,-0.0343017578125,1.0264892578125,0.6103515625,-0.30517578125,0.30517578125
73772,0.0328369140625,-0.0345458984375,1.0255126953125,0.6713866591453552,-0.2441406100988388,0.2441406100988388
73788,0.0338134765625,-0.03369140625,1.024658203125,0.6103515625,-0.1831054538488388,0.1831054538488388
73805,0.0338134765625,-0.0338134765625,1.024658203125,0.6713866591453552,-0.2441406100988388,0.2441406100988388
73822,0.03369140625,-0.03515625,1.0238037109375,0.6713866591453552,-0.2441406100988388,0.2441406100988388
73855,0.0328369140625,-0.0347900390625,1.02392578125,0.6103515625,-0.1831054538488388,0.2441406100988388
73872,0.0335693359375,-0.034423828125,1.0247802734375,0.6713866591453552,-0.1831054538488388,0.2441406100988388
73888,0.0333251953125,-0.033447265625,1.0252685546875,0.7324218153953552,-0.1831054538488388,0.30517578125
73920,0.03271484375,-0.0343017578125,1.024658203125,0.6713866591453552,-0.1831054538488388,0.30517578125
73936,0.033203125,-0.03515625,1.025634765625,0.6103515625,-0.2441406100988388,0.2441406100988388
73952,0.0338134765625,-0.0352783203125,1.02587890625,0.6103515625,-0.1831054538488388,0.30517578125
73988,0.033203125,-0.0338134765625,1.0255126953125,0.6103515625,-0.1831054538488388,0.2441406100988388
74004,0.033447265625,-0.033935546875,1.0250244140625,0.6713866591453552,-0.1831054538488388,0.2441406100988388
74020,0.0340576171875,-0.034423828125,1.0244140625,0.6713866591453552,-0.1831054538488388,0.2441406100988388
74036,0.0341796875,-0.03515625,1.0250244140625,0.6713866591453552,-0.1831054538488388,0.2441406100988388
74053,0.033447265625,-0.034423828125,1.025146484375,0.6103515625,-0.2441406100988388,0.2441406100988388
74074,0.0338134765625,-0.03515625,1.0242919921875,0.6103515625,-0.1220703050494194,0.2441406100988388
74090,0.0338134765625,-0.0343017578125,1.024169921875,0.6103515625,-0.1220703050494194,0.2441406100988388
74157,0.03466796875,-0.033935546875,1.0252685546875,0.6103515625,-0.1831054538488388,0.30517578125
74173,0.034423828125,-0.0341796875,1.025390625,0.6103515625,-0.2441406100988388,0.30517578125
74189,0.03369140625,-0.035400390625,1.025146484375,0.6103515625,-0.1831054538488388,0.30517578125
74238,0.03271484375,-0.0341796875,1.0242919921875,0.6713866591453552,-0.1831054538488388,0.2441406100988388
74290,0.034423828125,-0.0338134765625,1.0242919921875,0.7324218153953552,-0.1220703050494194,0.1831054538488388
74307,0.0345458984375,-0.03515625,1.0262451171875,0.6713866591453552,-0.1831054538488388,0.30517578125
74340,0.03369140625,-0.033935546875,1.024169921875,0.6103515625,-0.1831054538488388,0.2441406100988388
74373,0.034423828125,-0.0340576171875,1.024169921875,0.6713866591453552,-0.1220703050494194,0.2441406100988388
74416,0.0318603515625,-0.03466796875,1.0244140625,0.7324218153953552,-0.1831054538488388,0.30517578125
74433,0.0338134765625,-0.034423828125,1.024169921875,0.6713866591453552,-0.2441406100988388,0.30517578125
74449,0.0340576171875,-0.034423828125,1.0250244140625,0.6103515625,-0.1831054538488388,0.2441406100988388
74469,0.03271484375,-0.0352783203125,1.025390625,0.6103515625,-0.1831054538488388,0.2441406100988388
74490,0.033935546875,-0.034912109375,1.0260009765625,0.6713866591453552,-0.2441406100988388,0.2441406100988388
74510,0.0341796875,-0.033447265625,1.0233154296875,0.6713866591453552,-0.1831054538488388,0.2441406100988388
74527,0.0335693359375,-0.0343017578125,1.0245361328125,0.6103515625,-0.1831054538488388,0.2441406100988388
74568,0.03466796875,-0.0352783203125,1.02392578125,0.6713866591453552,-0.1220703050494194,0.30517578125
74588,0.033203125,-0.0347900390625,1.0250244140625,0.6713866591453552,-0.1831054538488388,0.30517578125
74608,0.0330810546875,-0.0340576171875,1.0247802734375,0.6713866591453552,-0.2441406100988388,0.30517578125
74628,0.0340576171875,-0.0350341796875,1.0240478515625,0.6713866591453552,-0.1831054538488388,0.2441406100988388
74645,0.033447265625,-0.03369140625,1.024658203125,0.6713866591453552,-0.1831054538488388,0.1831054538488388
74694,0.0347900390625,-0.0355224609375,1.0242919921875,0.6103515625,-0.1831054538488388,0.2441406100988388
74711,0.033935546875,-0.0335693359375,1.026123046875,0.6713866591453552,-0.2441406100988388,0.2441406100988388
74728,0.033935546875,-0.03369140625,1.02734375,0.6713866591453552,-0.1831054538488388,0.30517578125
74759,0.0341796875,-0.0345458984375,1.023193359375,0.6103515625,-0.2441406100988388,0.2441406100988388
74780,0.0341796875,-0.0343017578125,1.025146484375,0.6103515625,-0.2441406100988388,0.2441406100988388
74796,0.033935546875,-0.033935546875,1.0240478515625,0.6713866591453552,-0.1831054538488388,0.2441406100988388
74813,0.0340576171875,-0.0352783203125,1.0244140625,0.6713866591453552,-0.1220703050494194,0.1831054538488388
74830,0.0341796875,-0.03515625,1.0250244140625,0.6103515625,-0.1831054538488388,0.2441406100988388
74846,0.0330810546875,-0.0347900390625,1.0242919921875,0.6713866591453552,-0.1831054538488388,0.30517578125
74879,0.03271484375,-0.0345458984375,1.025634765625,0.6713866591453552,-0.2441406100988388,0.1831054538488388
74895,0.033447265625,-0.0357666015625,1.025146484375,0.6103515625,-0.1831054538488388,0.2441406100988388
74911,0.0330810546875,-0.0345458984375,1.0244140625,0.6103515625,-0.1831054538488388,0.2441406100988388
74943,0.034423828125,-0.03466796875,1.02490234375,0.6103515625,-0.1831054538488388,0.2441406100988388
74991,0.0340576171875,-0.0352783203125,1.024658203125,0.6713866591453552,-0.1831054538488388,0.1831054538488388
75012,0.0341796875,-0.0352783203125,1.024169921875,0.6103515625,-0.1831054538488388,0.2441406100988388
75029,0.033203125,-0.0352783203125,1.0250244140625,0.6713866591453552,-0.1831054538488388,0.30517578125
75062,0.0340576171875,-0.0357666015625,1.0257568359375,0.54931640625,-0.1831054538488388,0.2441406100988388
75079,0.033935546875,-0.0355224609375,1.025634765625,0.6103515625,-0.1831054538488388,0.1831054538488388
75095,0.0345458984375,-0.03515625,1.02490234375,0.6103515625,-0.1831054538488388,0.2441406100988388
75111,0.0347900390625,-0.0343017578125,1.024658203125,0.6103515625,-0.1831054538488388,0.2441406100988388
75135,0.0335693359375,-0.033935546875,1.024658203125,0.6103515625,-0.1831054538488388,0.2441406100988388
75151,0.033203125,-0.03515625,1.0245361328125,0.6103515625,-0.1831054538488388,0.2441406100988388
75168,0.0330810546875,-0.0343017578125,1.023193359375,0.6103515625,-0.1831054538488388,0.1831054538488388
75185,0.0328369140625,-0.0341796875,1.025146484375,0.6103515625,-0.2441406100988388,0.1831054538488388
75201,0.033447265625,-0.03466796875,1.0257568359375,0.6103515625,-0.1831054538488388,0.2441406100988388
75235,0.0340576171875,-0.0340576171875,1.02587890625,0.6713866591453552,-0.1831054538488388,0.2441406100988388
75252,0.033935546875,-0.033935546875,1.025390625,0.6713866591453552,-0.2441406100988388,0.1831054538488388
75273,0.03369140625,-0.034912109375,1.0244140625,0.6713866591453552,-0.2441406100988388,0.1831054538488388
75289,0.0330810546875,-0.034912109375,1.02392578125,0.6713866591453552,-0.2441406100988388,0.2441406100988388
75306,0.034423828125,-0.03466796875,1.0252685546875,0.6713866591453552,-0.2441406100988388,0.2441406100988388
75323,0.0345458984375,-0.0341796875,1.025146484375,0.6713866591453552,-0.1831054538488388,0.2441406100988388
75356,0.033935546875,-0.0341796875,1.025634765625,0.6103515625,-0.2441406100988388,0.30517578125
75421,0.0328369140625,-0.0330810546875,1.024169921875,0.6103515625,-0.1220703050494194,0.1831054538488388
75437,0.0328369140625,-0.03466796875,1.0238037109375,0.6103515625,-0.1831054538488388,0.2441406100988388
75453,0.033203125,-0.0345458984375,1.0260009765625,0.6103515625,-0.1831054538488388,0.30517578125
75469,0.0330810546875,-0.0345458984375,1.0260009765625,0.6713866591453552,-0.2441406100988388,0.2441406100988388
75489,0.0330810546875,-0.03466796875,1.025634765625,0.6713866591453552,-0.2441406100988388,0.2441406100988388
75511,0.033203125,-0.0347900390625,1.0262451171875,0.6103515625,-0.1831054538488388,0.2441406100988388
75527,0.033203125,-0.0338134765625,1.0238037109375,0.6713866591453552,-0.2441406100988388,0.30517578125
75544,0.0333251953125,-0.0340576171875,1.0242919921875,0.6103515625,-0.2441406100988388,0.2441406100988388
75561,0.0340576171875,-0.03466796875,1.02490234375,0.7324218153953552,-0.1831054538488388,0.30517578125
75594,0.033447265625,-0.0345458984375,1.02587890625,0.6103515625,-0.2441406100988388,0.2441406100988388
75643,0.0335693359375,-0.033935546875,1.025146484375,0.6713866591453552,-0.2441406100988388,0.1831054538488388
75673,0.0333251953125,-0.0341796875,1.022705078125,0.6713866591453552,-0.1831054538488388,0.2441406100988388
75690,0.033203125,-0.0341796875,1.02783203125,0.6713866591453552,-0.1831054538488388,0.1831054538488388
75725,0.03271484375,-0.03515625,1.0220947265625,0.6103515625,-0.1831054538488388,0.30517578125
75758,0.0333251953125,-0.034423828125,1.0244140625,0.6713866591453552,-0.2441406100988388,0.2441406100988388
75790,0.0333251953125,-0.0352783203125,1.0244140625,0.6713866591453552,-0.1831054538488388,0.1831054538488388
75807,0.0333251953125,-0.0357666015625,1.024169921875,0.6713866591453552,-0.1220703050494194,0.2441406100988388
75837,0.0340576171875,-0.0338134765625,1.0247802734375,0.6713866591453552,-0.30517578125,0.2441406100988388
75853,0.0338134765625,-0.0341796875,1.02294921875,0.6713866591453552,-0.2441406100988388,0.30517578125
75870,0.033203125,-0.035400390625,1.024658203125,0.6103515625,-0.2441406100988388,0.30517578125
75903,0.0347900390625,-0.0345458984375,1.0235595703125,0.6713866591453552,-0.1220703050494194,0.1831054538488388
75924,0.0345458984375,-0.034423828125,1.0238037109375,0.6103515625,-0.2441406100988388,0.2441406100988388
75940,0.0338134765625,-0.034423828125,1.02490234375,0.6103515625,-0.2441406100988388,0.2441406100988388
75955,0.0335693359375,-0.0347900390625,1.023193359375,0.6713866591453552,-0.1831054538488388,0.1831054538488388
75972,0.0333251953125,-0.034912109375,1.02392578125,0.6713866591453552,-0.1831054538488388,0.2441406100988388
75993,0.03369140625,-0.033935546875,1.0269775390625,0.7324218153953552,-0.2441406100988388,0.2441406100988388
76013,0.032958984375,-0.0341796875,1.023681640625,0.6713866591453552,-0.2441406100988388,0.2441406100988388
76030,0.0325927734375,-0.03564453125,1.0238037109375,0.6103515625,-0.1831054538488388,0.1831054538488388
76046,0.0338134765625,-0.033935546875,1.02490234375,0.6713866591453552,-0.1831054538488388,0.2441406100988388
76078,0.0340576171875,-0.0347900390625,1.0264892578125,0.6103515625,-0.2441406100988388,0.2441406100988388
76098,0.0338134765625,-0.03466796875,1.02392578125,0.6103515625,-0.1831054538488388,0.2441406100988388
76114,0.03369140625,-0.03466796875,1.0233154296875,0.6103515625,-0.1831054538488388,0.2441406100988388
76130,0.033447265625,-0.034912109375,1.02490234375,0.6713866591453552,-0.1831054538488388,0.30517578125
76150,0.0333251953125,-0.0340576171875,1.024169921875,0.6713866591453552,-0.1831054538488388,0.2441406100988388
76166,0.0335693359375,-0.0350341796875,1.02734375,0.6103515625,-0.1831054538488388,0.30517578125
76182,0.0340576171875,-0.034912109375,1.026123046875,0.6103515625,-0.1831054538488388,0.30517578125
76198,0.03369140625,-0.0340576171875,1.0230712890625,0.6103515625,-0.1831054538488388,0.2441406100988388
76214,0.0335693359375,-0.0343017578125,1.02294921875,0.6103515625,-0.1831054538488388,0.2441406100988388
76230,0.0347900390625,-0.0350341796875,1.024658203125,0.6713866591453552,-0.2441406100988388,0.1831054538488388
76263,0.0318603515625,-0.034423828125,1.0225830078125,0.6713866591453552,-0.1831054538488388,0.2441406100988388
76284,0.0335693359375,-0.0340576171875,1.0242919921875,0.7324218153953552,-0.2441406100988388,0.30517578125
76300,0.03466796875,-0.0335693359375,1.0244140625,0.6713866591453552,-0.1831054538488388,0.30517578125
76317,0.03369140625,-0.033935546875,1.0242919921875,0.6103515625,-0.1831054538488388,0.2441406100988388
76334,0.0323486328125,-0.0343017578125,1.024169921875,0.6713866591453552,-0.1831054538488388,0.2441406100988388
76350,0.0333251953125,-0.034912109375,1.0255126953125,0.6713866591453552,-0.1831054538488388,0.2441406100988388
76387,0.0343017578125,-0.0343017578125,1.02392578125,0.6103515625,-0.1831054538488388,0.30517578125
76404,0.0345458984375,-0.0340576171875,1.0244140625,0.6103515625,-0.1831054538488388,0.30517578125
76420,0.0330810546875,-0.0330810546875,1.023681640625,0.6103515625,-0.1220703050494194,0.30517578125
76436,0.0333251953125,-0.03466796875,1.024169921875,0.6103515625,-0.1220703050494194,0.2441406100988388
76453,0.034423828125,-0.0350341796875,1.025146484375,0.6713866591453552,-0.1220703050494194,0.2441406100988388
76474,0.0343017578125,-0.0345458984375,1.0255126953125,0.6713866591453552,-0.1831054538488388,0.2441406100988388
76490,0.0333251953125,-0.034423828125,1.0247802734375,0.7324218153953552,-0.1831054538488388,0.2441406100988388
76507,0.0335693359375,-0.03515625,1.024658203125,0.6713866591453552,-0.1831054538488388,0.2441406100988388
76524,0.0338134765625,-0.0347900390625,1.0233154296875,0.6713866591453552,-0.2441406100988388,0.2441406100988388
76557,0.0330810546875,-0.0347900390625,1.026123046875,0.6103515625,-0.1220703050494194,0.2441406100988388
76574,0.0333251953125,-0.034423828125,1.02587890625,0.6713866591453552,-0.1831054538488388,0.2441406100988388
76590,0.0341796875,-0.0355224609375,1.0247802734375,0.6103515625,-0.1831054538488388,0.1831054538488388
76622,0.0335693359375,-0.034423828125,1.0240478515625,0.6713866591453552,-0.1831054538488388,0.30517578125
76638,0.0333251953125,-0.0347900390625,1.02490234375,0.6713866591453552,-0.1831054538488388,0.30517578125
76654,0.033447265625,-0.0345458984375,1.0245361328125,0.6713866591453552,-0.1831054538488388,0.30517578125
76670,0.033935546875,-0.0352783203125,1.0245361328125,0.7324218153953552,-0.1831054538488388,0.2441406100988388
76690,0.034912109375,-0.034423828125,1.0242919921875,0.6103515625,-0.1831054538488388,0.30517578125
76706,0.0343017578125,-0.034423828125,1.024169921875,0.6103515625,-0.1220703050494194,0.2441406100988388
76722,0.032958984375,-0.034423828125,1.0245361328125,0.6713866591453552,-0.1220703050494194,0.2441406100988388
76738,0.0335693359375,-0.0350341796875,1.0235595703125,0.6713866591453552,-0.1831054538488388,0.2441406100988388
76754,0.033935546875,-0.0345458984375,1.024658203125,0.6713866591453552,-0.2441406100988388,0.2441406100988388
76770,0.034423828125,-0.034912109375,1.0250244140625,0.6713866591453552,-0.2441406100988388,0.30517578125
76803,0.03369140625,-0.033935546875,1.024658203125,0.6713866591453552,-0.1831054538488388,0.30517578125
76824,0.033447265625,-0.0352783203125,1.0245361328125,0.6103515625,-0.2441406100988388,0.2441406100988388
76840,0.033447265625,-0.0360107421875,1.0245361328125,0.6713866591453552,-0.2441406100988388,0.1831054538488388
76855,0.032958984375,-0.03515625,1.0242919921875,0.6713866591453552,-0.1220703050494194,0.2441406100988388
76872,0.033447265625,-0.0341796875,1.024658203125,0.6713866591453552,-0.1220703050494194,0.2441406100988388
76889,0.03369140625,-0.0338134765625,1.0263671875,0.6103515625,-0.2441406100988388,0.2441406100988388
76922,0.03369140625,-0.03564453125,1.0240478515625,0.6713866591453552,-0.1220703050494194,0.2441406100988388
76938,0.033203125,-0.034423828125,1.0250244140625,0.6713866591453552,-0.1220703050494194,0.2441406100988388
76954,0.0333251953125,-0.0343017578125,1.02587890625,0.6713866591453552,-0.1831054538488388,0.2441406100988388
76970,0.0330810546875,-0.0352783203125,1.024169921875,0.6103515625,-0.2441406100988388,0.2441406100988388
76990,0.033447265625,-0.0357666015625,1.024658203125,0.6103515625,-0.1831054538488388,0.1831054538488388
77012,0.03369140625,-0.03564453125,1.0252685546875,0.6103515625,-0.1831054538488388,0.1831054538488388
77028,0.034423828125,-0.0352783203125,1.024169921875,0.6713866591453552,-0.1220703050494194,0.2441406100988388
77045,0.033203125,-0.034423828125,1.0240478515625,0.6713866591453552,-0.1831054538488388,0.2441406100988388
77062,0.03369140625,-0.033935546875,1.0252685546875,0.7324218153953552,-0.2441406100988388,0.2441406100988388
77095,0.03369140625,-0.0345458984375,1.0245361328125,0.6713866591453552,-0.1831054538488388,0.2441406100988388
77112,0.03466796875,-0.0345458984375,1.024169921875,0.6713866591453552,-0.1831054538488388,0.1831054538488388
77128,0.033935546875,-0.034912109375,1.0238037109375,0.6713866591453552,-0.1831054538488388,0.2441406100988388
77160,0.0330810546875,-0.03564453125,1.025390625,0.6103515625,-0.1831054538488388,0.1831054538488388
77176,0.03369140625,-0.03515625,1.0245361328125,0.6713866591453552,-0.2441406100988388,0.1831054538488388
77192,0.03466796875,-0.0343017578125,1.028076171875,0.7324218153953552,-0.2441406100988388,0.2441406100988388
77228,0.0335693359375,-0.03564453125,1.021484375,0.6713866591453552,-0.1831054538488388,0.30517578125
77244,0.03369140625,-0.0352783203125,1.0257568359375,0.6713866591453552,-0.1220703050494194,0.30517578125
77260,0.034423828125,-0.034423828125,1.0262451171875,0.6713866591453552,-0.1831054538488388,0.2441406100988388
77276,0.033447265625,-0.0341796875,1.0234375,0.6713866591453552,-0.2441406100988388,0.2441406100988388
77293,0.0335693359375,-0.0345458984375,1.0240478515625,0.7324218153953552,-0.1831054538488388,0.30517578125
77318,0.0341796875,-0.03466796875,1.0244140625,0.6713866591453552,-0.1220703050494194,0.2441406100988388
77334,0.0350341796875,-0.0350341796875,1.024658203125,0.6713866591453552,-0.1831054538488388,0.2441406100988388
77355,0.033935546875,-0.0345458984375,1.0250244140625,0.6103515625,-0.2441406100988388,0.2441406100988388
77372,0.034423828125,-0.0345458984375,1.025146484375,0.6713866591453552,-0.2441406100988388,0.30517578125
77388,0.0338134765625,-0.0340576171875,1.0245361328125,0.6713866591453552,-0.2441406100988388,0.2441406100988388
77409,0.03369140625,-0.035400390625,1.023681640625,0.6103515625,-0.2441406100988388,0.1831054538488388
77426,0.0340576171875,-0.0341796875,1.0245361328125,0.6713866591453552,-0.2441406100988388,0.2441406100988388
77442,0.033935546875,-0.034912109375,1.025390625,0.6713866591453552,-0.2441406100988388,0.30517578125
77458,0.033935546875,-0.0350341796875,1.0255126953125,0.6713866591453552,-0.2441406100988388,0.30517578125
77474,0.033935546875,-0.03466796875,1.02490234375,0.7324218153953552,-0.1831054538488388,0.30517578125
77490,0.03515625,-0.0347900390625,1.0263671875,0.6713866591453552,-0.1831054538488388,0.30517578125
77523,0.0340576171875,-0.03515625,1.0250244140625,0.6713866591453552,-0.1831054538488388,0.30517578125
77544,0.033935546875,-0.03515625,1.0255126953125,0.6713866591453552,-0.1831054538488388,0.30517578125
77560,0.0341796875,-0.03466796875,1.025634765625,0.6103515625,-0.2441406100988388,0.2441406100988388
77577,0.0335693359375,-0.0352783203125,1.0230712890625,0.54931640625,-0.2441406100988388,0.2441406100988388
77594,0.0338134765625,-0.03515625,1.0247802734375,0.6103515625,-0.2441406100988388,0.2441406100988388
77610,0.03369140625,-0.033447265625,1.0252685546875,0.6713866591453552,-0.30517578125,0.30517578125
77648,0.0341796875,-0.03515625,1.0234375,0.6103515625,-0.1831054538488388,0.2441406100988388
77664,0.0330810546875,-0.03466796875,1.025390625,0.6103515625,-0.1831054538488388,0.2441406100988388
77680,0.0322265625,-0.034912109375,1.0245361328125,0.6103515625,-0.1831054538488388,0.2441406100988388
77696,0.0333251953125,-0.0347900390625,1.02392578125,0.6713866591453552,-0.1831054538488388,0.2441406100988388
77713,0.03369140625,-0.0343017578125,1.025146484375,0.6713866591453552,-0.1831054538488388,0.2441406100988388
77734,0.03369140625,-0.0341796875,1.0225830078125,0.6103515625,-0.2441406100988388,0.2441406100988388
77750,0.03515625,-0.0347900390625,1.02490234375,0.54931640625,-0.2441406100988388,0.1831054538488388
77767,0.0338134765625,-0.035888671875,1.02392578125,0.6103515625,-0.1831054538488388,0.2441406100988388
77784,0.033203125,-0.0343017578125,1.025146484375,0.6103515625,-0.1831054538488388,0.2441406100988388
77817,0.03369140625,-0.03369140625,1.0245361328125,0.6713866591453552,-0.2441406100988388,0.2441406100988388
77834,0.033935546875,-0.033935546875,1.0252685546875,0.6713866591453552,-0.1831054538488388,0.2441406100988388
77850,0.0335693359375,-0.0340576171875,1.024658203125,0.6713866591453552,-0.1831054538488388,0.2441406100988388
77882,0.0333251953125,-0.0343017578125,1.024658203125,0.6713866591453552,-0.1831054538488388,0.1831054538488388
77898,0.0341796875,-0.0345458984375,1.0247802734375,0.6713866591453552,-0.1831054538488388,0.2441406100988388
77914,0.03515625,-0.0338134765625,1.02392578125,0.6713866591453552,-0.2441406100988388,0.30517578125
77930,0.0341796875,-0.033935546875,1.0242919921875,0.6713866591453552,-0.2441406100988388,0.2441406100988388
77949,0.03271484375,-0.0340576171875,1.0269775390625,0.6713866591453552,-0.1831054538488388,0.2441406100988388
77974,0.033447265625,-0.03369140625,1.025634765625,0.6713866591453552,-0.1220703050494194,0.2441406100988388
77990,0.0338134765625,-0.0330810546875,1.0247802734375,0.6103515625,-0.1831054538488388,0.2441406100988388
78007,0.033935546875,-0.0341796875,1.0247802734375,0.6713866591453552,-0.1831054538488388,0.2441406100988388
78024,0.0340576171875,-0.0345458984375,1.024169921875,0.6713866591453552,-0.1831054538488388,0.2441406100988388
78056,0.033203125,-0.0345458984375,1.0250244140625,0.6713866591453552,-0.1831054538488388,0.2441406100988388
78073,0.0328369140625,-0.034423828125,1.0250244140625,0.6713866591453552,-0.1831054538488388,0.30517578125
78120,0.0338134765625,-0.03466796875,1.0234375,0.6713866591453552,-0.1831054538488388,0.30517578125
78141,0.0338134765625,-0.0343017578125,1.0263671875,0.6713866591453552,-0.2441406100988388,0.30517578125
78157,0.032958984375,-0.0347900390625,1.0247802734375,0.6713866591453552,-0.2441406100988388,0.30517578125
78174,0.0340576171875,-0.0345458984375,1.023193359375,0.6713866591453552,-0.1831054538488388,0.2441406100988388
78191,0.034912109375,-0.0341796875,1.0244140625,0.6713866591453552,-0.1831054538488388,0.1831054538488388
78207,0.0338134765625,-0.03466796875,1.0250244140625,0.6713866591453552,-0.1831054538488388,0.1831054538488388
78239,0.033203125,-0.033935546875,1.0240478515625,0.7324218153953552,-0.1831054538488388,0.30517578125
78261,0.033447265625,-0.0350341796875,1.024169921875,0.6103515625,-0.1831054538488388,0.30517578125
78277,0.03369140625,-0.033935546875,1.025390625,0.54931640625,-0.1831054538488388,0.30517578125
78294,0.033447265625,-0.0343017578125,1.022705078125,0.6713866591453552,-0.1220703050494194,0.2441406100988388
78315,0.03369140625,-0.0343017578125,1.0240478515625,0.6713866591453552,-0.1831054538488388,0.2441406100988388
78335,0.03466796875,-0.03466796875,1.025146484375,0.6713866591453552,-0.1220703050494194,0.30517578125
78356,0.033935546875,-0.0345458984375,1.02490234375,0.7324218153953552,-0.1220703050494194,0.2441406100988388
78376,0.0343017578125,-0.035888671875,1.024658203125,0.6103515625,-0.1220703050494194,0.2441406100988388
78392,0.033935546875,-0.034912109375,1.0252685546875,0.6103515625,-0.1220703050494194,0.2441406100988388
78409,0.0340576171875,-0.033935546875,1.026123046875,0.6713866591453552,-0.1220703050494194,0.1831054538488388
78429,0.034423828125,-0.03369140625,1.0252685546875,0.6103515625,-0.2441406100988388,0.2441406100988388
78445,0.0340576171875,-0.0347900390625,1.025634765625,0.6103515625,-0.2441406100988388,0.30517578125
78461,0.0340576171875,-0.0345458984375,1.02490234375,0.6103515625,-0.1831054538488388,0.2441406100988388
78477,0.0340576171875,-0.03466796875,1.0262451171875,0.6713866591453552,-0.1831054538488388,0.2441406100988388
78499,0.033935546875,-0.0345458984375,1.02099609375,0.6713866591453552,-0.1831054538488388,0.2441406100988388
78515,0.033203125,-0.0340576171875,1.024658203125,0.6103515625,-0.2441406100988388,0.2441406100988388
78532,0.033447265625,-0.0345458984375,1.023681640625,0.6103515625,-0.1831054538488388,0.2441406100988388
78549,0.0328369140625,-0.0360107421875,1.0211181640625,0.6713866591453552,-0.1831054538488388,0.2441406100988388
78565,0.0335693359375,-0.0350341796875,1.0284423828125,0.7324218153953552,-0.2441406100988388,0.30517578125
78598,0.0333251953125,-0.0350341796875,1.0234375,0.6103515625,-0.1831054538488388,0.1831054538488388
78615,0.0343017578125,-0.0347900390625,1.0264892578125,0.6103515625,-0.1831054538488388,0.2441406100988388
78631,0.0343017578125,-0.0341796875,1.024658203125,0.6103515625,-0.1831054538488388,0.30517578125
78663,0.0347900390625,-0.0347900390625,1.0218505859375,0.6103515625,-0.2441406100988388,0.30517578125
78711,0.0325927734375,-0.035400390625,1.023681640625,0.6103515625,-0.2441406100988388,0.30517578125
78732,0.0338134765625,-0.0362548828125,1.0224609375,0.6713866591453552,-0.2441406100988388,0.2441406100988388
78749,0.03564453125,-0.034423828125,1.0172119140625,0.6103515625,-0.2441406100988388,0.2441406100988388
78782,0.033447265625,-0.034423828125,1.028564453125,0.54931640625,-0.2441406100988388,0.2441406100988388
78799,0.032958984375,-0.0357666015625,1.0328369140625,0.6103515625,-0.1831054538488388,0.30517578125
78815,0.0330810546875,-0.035400390625,1.0242919921875,0.6103515625,-0.1831054538488388,0.30517578125
78831,0.0335693359375,-0.03466796875,1.0220947265625,0.6103515625,-0.1831054538488388,0.2441406100988388
78851,0.03466796875,-0.0333251953125,1.0224609375,0.6713866591453552,-0.2441406100988388,0.2441406100988388
78867,0.0341796875,-0.033203125,1.0189208984375,0.6713866591453552,-0.2441406100988388,0.30517578125
78883,0.033447265625,-0.0341796875,1.0267333984375,0.6713866591453552,-0.1831054538488388,0.3662109076976776
78899,0.033203125,-0.03369140625,1.0311279296875,0.6713866591453552,-0.1831054538488388,0.30517578125
78920,0.033447265625,-0.0357666015625,1.0194091796875,0.6713866591453552,-0.1831054538488388,0.2441406100988388
78936,0.035400390625,-0.0355224609375,1.03125,0.54931640625,-0.1831054538488388,0.2441406100988388
78953,0.034912109375,-0.033447265625,1.0272216796875,0.7324218153953552,-0.30517578125,0.30517578125
78970,0.0321044921875,-0.0340576171875,1.01904296875,0.7324218153953552,-0.2441406100988388,0.30517578125
78986,0.033447265625,-0.0352783203125,1.0283203125,0.6713866591453552,-0.1831054538488388,0.2441406100988388
79020,0.033447265625,-0.03564453125,1.0252685546875,0.6103515625,-0.1831054538488388,0.2441406100988388
79036,0.03369140625,-0.0338134765625,1.0279541015625,0.6713866591453552,-0.1831054538488388,0.2441406100988388
79052,0.0328369140625,-0.0343017578125,1.0233154296875,0.6713866591453552,-0.1831054538488388,0.30517578125
79088,0.03515625,-0.03369140625,1.0245361328125,0.6103515625,-0.2441406100988388,0.2441406100988388
79104,0.03466796875,-0.0333251953125,1.02294921875,0.6103515625,-0.2441406100988388,0.2441406100988388
79120,0.0340576171875,-0.0350341796875,1.0274658203125,0.6713866591453552,-0.2441406100988388,0.2441406100988388
79136,0.032470703125,-0.0345458984375,1.024658203125,0.6713866591453552,-0.1831054538488388,0.2441406100988388
79154,0.0333251953125,-0.03466796875,1.024169921875,0.6713866591453552,-0.1831054538488388,0.30517578125
79175,0.035400390625,-0.033935546875,1.024658203125,0.6103515625,-0.1831054538488388,0.2441406100988388
79191,0.0338134765625,-0.0343017578125,1.024169921875,0.6713866591453552,-0.1831054538488388,0.2441406100988388
79208,0.032470703125,-0.033447265625,1.025146484375,0.6713866591453552,-0.1831054538488388,0.2441406100988388
79225,0.0333251953125,-0.0330810546875,1.02734375,0.6103515625,-0.2441406100988388,0.2441406100988388
79258,0.033935546875,-0.0350341796875,1.0238037109375,0.6713866591453552,-0.1831054538488388,0.2441406100988388
79279,0.033203125,-0.0343017578125,1.02294921875,0.6713866591453552,-0.2441406100988388,0.3662109076976776
79299,0.033935546875,-0.035400390625,1.024169921875,0.6713866591453552,-0.30517578125,0.2441406100988388
79315,0.033447265625,-0.0345458984375,1.025634765625,0.6103515625,-0.2441406100988388,0.30517578125
79332,0.0335693359375,-0.0330810546875,1.0255126953125,0.6713866591453552,-0.2441406100988388,0.2441406100988388
79353,0.0347900390625,-0.0341796875,1.024169921875,0.6103515625,-0.1831054538488388,0.2441406100988388
79419,0.0330810546875,-0.0347900390625,1.0255126953125,0.6713866591453552,-0.1831054538488388,0.30517578125
79451,0.034423828125,-0.0340576171875,1.0238037109375,0.6713866591453552,-0.2441406100988388,0.2441406100988388
79468,0.0333251953125,-0.0338134765625,1.0264892578125,0.6103515625,-0.1831054538488388,0.2441406100988388
79498,0.0338134765625,-0.033935546875,1.02294921875,0.6713866591453552,-0.1831054538488388,0.2441406100988388
79515,0.0341796875,-0.033935546875,1.025146484375,0.7324218153953552,-0.1831054538488388,0.1831054538488388
79531,0.0345458984375,-0.034423828125,1.0250244140625,0.6713866591453552,-0.1831054538488388,0.2441406100988388
79563,0.0338134765625,-0.0357666015625,1.023193359375,0.54931640625,-0.1831054538488388,0.1831054538488388
79579,0.033935546875,-0.0361328125,1.023681640625,0.54931640625,-0.1831054538488388,0.2441406100988388
79595,0.0338134765625,-0.0345458984375,1.023681640625,0.54931640625,-0.2441406100988388,0.2441406100988388
79627,0.0338134765625,-0.0296630859375,1.0264892578125,0.4272460639476776,-0.2441406100988388,0.30517578125
79689,0.0335693359375,-0.0333251953125,1.0245361328125,0.9765624403953552,-0.2441406100988388,0.2441406100988388
79706,0.03369140625,-0.03369140625,1.0242919921875,0.9765624403953552,-0.2441406100988388,0.1831054538488388
79737,0.0350341796875,-0.0340576171875,1.0264892578125,1.15966796875,-0.30517578125,0.2441406100988388
79753,0.0350341796875,-0.0318603515625,1.0255126953125,1.2817381620407104,-0.2441406100988388,0.1220703050494194
79770,0.0340576171875,-0.028076171875,1.024169921875,1.7089842557907104,-0.2441406100988388,0.1831054538488388
79802,0.0322265625,-0.0272216796875,1.0234375,2.563476324081421,-0.30517578125,0.1831054538488388
79850,0.03466796875,-0.0294189453125,1.023681640625,3.906249761581421,-0.1220703050494194,0.0610351525247097
79872,0.0340576171875,-0.03173828125,1.02294921875,4.2724609375,-0.1831054538488388,0.1220703050494194
79889,0.03369140625,-0.03564453125,1.0230712890625,4.82177734375,-0.1831054538488388,0.0610351525247097
79922,0.0364990234375,-0.0379638671875,1.025146484375,5.187987804412842,-0.2441406100988388,0.0610351525247097
79939,0.034912109375,-0.0450439453125,1.02392578125,5.371093273162842,-0.2441406100988388,0.1220703050494194
79955,0.03466796875,-0.044921875,1.0252685546875,5.554198741912842,-0.30517578125,0.0
79971,0.033935546875,-0.0404052734375,1.025390625,5.859374523162842,-0.3662109076976776,0.0610351525247097
80025,0.0328369140625,-0.0538330078125,1.0220947265625,6.164550304412842,-0.30517578125,0.0
80051,0.03466796875,-0.056396484375,1.029296875,6.103515148162842,-0.1831054538488388,0.0610351525247097
80068,0.03564453125,-0.0570068359375,1.0250244140625,5.920409679412842,-0.2441406100988388,0.0
80101,0.030029296875,-0.065185546875,1.0220947265625,5.615233898162842,-0.3662109076976776,0.0610351525247097
80118,0.031005859375,-0.0657958984375,1.0218505859375,5.310058116912842,-0.4272460639476776,0.1220703050494194
80135,0.0322265625,-0.068359375,1.0228271484375,4.94384765625,-0.3662109076976776,0.0
80151,0.033447265625,-0.066162109375,1.024169921875,4.57763671875,-0.30517578125,0.0610351525247097
80171,0.0316162109375,-0.0679931640625,1.021240234375,4.2724609375,-0.30517578125,0.0610351525247097
80193,0.0313720703125,-0.0667724609375,1.0234375,4.08935546875,-0.2441406100988388,0.0610351525247097
80209,0.031494140625,-0.072509765625,1.0224609375,3.723144292831421,-0.30517578125,0.1220703050494194
80226,0.0333251953125,-0.0731201171875,1.0225830078125,3.234863042831421,-0.3662109076976776,0.1831054538488388
80243,0.03271484375,-0.076171875,1.0230712890625,2.990722417831421,-0.30517578125,0.1831054538488388
80276,0.031982421875,-0.07568359375,1.021728515625,2.0751953125,-0.3662109076976776,0.2441406100988388
80293,0.03173828125,-0.0728759765625,1.020751953125,1.5258787870407104,-0.30517578125,0.1831054538488388
80309,0.031982421875,-0.073974609375,1.0233154296875,1.2817381620407104,-0.2441406100988388,0.1220703050494194
80344,0.033203125,-0.07275390625,1.0240478515625,0.6713866591453552,-0.1220703050494194,0.1831054538488388
80360,0.0328369140625,-0.072998046875,1.0220947265625,0.4272460639476776,-0.1220703050494194,0.30517578125
80377,0.031982421875,-0.0726318359375,1.0223388671875,0.1220703050494194,-0.1831054538488388,0.30517578125
80394,0.032470703125,-0.073486328125,1.0228271484375,0.0,-0.1831054538488388,0.30517578125
80410,0.0322265625,-0.071044921875,1.0224609375,-0.3662109076976776,-0.0610351525247097,0.30517578125
80427,0.0322265625,-0.0733642578125,1.022705078125,-0.6713866591453552,-0.1220703050494194,0.30517578125
80460,0.0340576171875,-0.069091796875,1.0242919921875,-0.9765624403953552,-0.1220703050494194,0.3662109076976776
80480,0.03125,-0.06884765625,1.0211181640625,-1.15966796875,-0.1220703050494194,0.3662109076976776
80496,0.0301513671875,-0.070068359375,1.0205078125,-1.4648436307907104,-0.1220703050494194,0.4272460639476776
80512,0.03369140625,-0.07080078125,1.0244140625,-1.7700194120407104,-0.0610351525247097,0.4272460639476776
80533,0.033935546875,-0.0703125,1.022216796875,-2.0751953125,0.0,0.4272460639476776
80554,0.0330810546875,-0.0673828125,1.023193359375,-2.13623046875,-0.0610351525247097,0.3662109076976776
80570,0.0333251953125,-0.0628662109375,1.0247802734375,-2.197265625,0.0,0.4272460639476776
80587,0.0325927734375,-0.062744140625,1.0230712890625,-2.25830078125,-0.0610351525247097,0.3662109076976776
80608,0.0335693359375,-0.063720703125,1.0224609375,-2.3193359375,-0.1831054538488388,0.3662109076976776
80628,0.0323486328125,-0.0621337890625,1.023193359375,-2.44140625,-0.1831054538488388,0.30517578125
80649,0.0323486328125,-0.0556640625,1.02294921875,-2.3193359375,-0.0610351525247097,0.3662109076976776
80665,0.0345458984375,-0.05029296875,1.0257568359375,-2.01416015625,-0.0610351525247097,0.4272460639476776
80682,0.0328369140625,-0.0506591796875,1.02294921875,-1.7089842557907104,-0.1220703050494194,0.4272460639476776
80698,0.0322265625,-0.053466796875,1.0228271484375,-1.6479490995407104,-0.0610351525247097,0.4272460639476776
80714,0.0325927734375,-0.0577392578125,1.0242919921875,-1.5869139432907104,-0.0610351525247097,0.3662109076976776
80730,0.0322265625,-0.059326171875,1.0230712890625,-1.5869139432907104,-0.1220703050494194,0.3662109076976776
80759,0.0340576171875,-0.053466796875,1.022216796875,-1.7089842557907104,-0.1220703050494194,0.30517578125
80781,0.0333251953125,-0.0506591796875,1.0233154296875,-1.6479490995407104,0.0610351525247097,0.30517578125
80797,0.0338134765625,-0.048095703125,1.0228271484375,-1.4038084745407104,0.0610351525247097,0.3662109076976776
80814,0.0341796875,-0.0491943359375,1.0216064453125,-1.2817381620407104,0.1220703050494194,0.3662109076976776
80831,0.0335693359375,-0.0491943359375,1.023193359375,-0.9765624403953552,0.30517578125,0.3662109076976776
80847,0.03125,-0.0537109375,1.0150146484375,-0.7324218153953552,0.7934569716453552,0.2441406100988388
80878,0.0338134765625,-0.044189453125,1.0133056640625,-0.2441406100988388,2.44140625,-0.1220703050494194
80900,0.03515625,-0.039794921875,1.0311279296875,0.2441406100988388,3.417968511581421,-0.0610351525247097
80916,0.00732421875,-0.039794921875,1.0428466796875,0.6103515625,4.08935546875,-0.3662109076976776
80933,0.0205078125,-0.016357421875,1.189208984375,3.540038824081421,4.8828125,-0.54931640625
80950,0.029541015625,-0.0247802734375,1.2620849609375,3.540038824081421,2.990722417831421,-0.6103515625
80966,0.046142578125,-0.0302734375,1.3974609375,4.0283203125,2.25830078125,-0.2441406100988388
80999,0.0604248046875,-0.0614013671875,1.4708251953125,7.324218273162842,0.1220703050494194,-0.6103515625
81016,0.05029296875,-0.062255859375,1.3804931640625,8.11767578125,0.1220703050494194,-0.9155272841453552
81032,0.03759765625,-0.061279296875,1.32470703125,7.629394054412842,0.54931640625,-0.6713866591453552
81068,0.0421142578125,-0.0694580078125,1.3328857421875,5.737304210662842,1.7700194120407104,-0.30517578125
81084,0.060546875,-0.0689697265625,1.361328125,5.187987804412842,1.8310545682907104,-0.30517578125
81100,0.068115234375,-0.0694580078125,1.3638916015625,5.0048828125,1.5869139432907104,-0.1220703050494194
81116,0.0775146484375,-0.082763671875,1.349365234375,4.2724609375,1.4038084745407104,-0.1831054538488388
81138,0.086181640625,-0.0904541015625,1.3990478515625,4.39453125,1.4648436307907104,-0.2441406100988388
81154,0.0859375,-0.074951171875,1.4273681640625,4.21142578125,0.2441406100988388,-0.4882812201976776
81171,0.08447265625,-0.078369140625,1.41015625,4.638671875,-1.4648436307907104,-0.3662109076976776
81188,0.0826416015625,-0.08203125,1.365966796875,4.57763671875,-1.9531248807907104,-0.4272460639476776
81205,0.0845947265625,-0.0933837890625,1.36767578125,4.39453125,-3.540038824081421,-0.54931640625
81238,0.081787109375,-0.0950927734375,1.322265625,3.540038824081421,-4.94384765625,-0.54931640625
81254,0.0789794921875,-0.08984375,1.2908935546875,2.868652105331421,-5.859374523162842,-0.6713866591453552
81270,0.0755615234375,-0.0833740234375,1.2596435546875,2.3193359375,-6.225585460662842,-0.6103515625
81299,0.06982421875,-0.083251953125,1.1787109375,0.1831054538488388,-6.652831554412842,-0.1831054538488388
81321,0.0673828125,-0.0926513671875,1.16552734375,-1.5869139432907104,-6.530761241912842,-0.0610351525247097
81337,0.0609130859375,-0.094482421875,1.1458740234375,-2.44140625,-6.774901866912842,-0.0610351525247097
81354,0.0540771484375,-0.0831298828125,1.1104736328125,-3.845214605331421,-7.202147960662842,-0.0610351525247097
81371,0.0408935546875,-0.0650634765625,1.03564453125,-4.82177734375,-6.835937023162842,0.1220703050494194
81387,0.033935546875,-0.056884765625,0.979736328125,-5.432128429412842,-6.530761241912842,0.2441406100988388
81418,0.0211181640625,-0.06103515625,0.894287109375,-7.568358898162842,-4.82177734375,0.54931640625
81440,0.013427734375,-0.059814453125,0.875244140625,-8.4228515625,-4.08935546875,0.4882812201976776
81456,0.0064697265625,-0.054443359375,0.8221435546875,-8.85009765625,-3.723144292831421,0.54931640625
81473,0.005859375,-0.0513916015625,0.7960205078125,-9.6435546875,-2.685546636581421,0.6713866591453552
81490,0.00732421875,-0.0504150390625,0.7501220703125,-10.192870140075684,-1.7700194120407104,0.7934569716453552
81507,0.008056640625,-0.054443359375,0.7030029296875,-10.864256858825684,-0.54931640625,0.8544921278953552
81540,0.0050048828125,-0.0499267578125,0.6953125,-11.352538108825684,0.7324218153953552,0.7324218153953552
81556,0.0020751953125,-0.0404052734375,0.706787109375,-11.108397483825684,1.2817381620407104,0.54931640625
81572,0.0028076171875,-0.0347900390625,0.72119140625,-10.864256858825684,1.0986328125,0.54931640625
81608,0.0047607421875,-0.026611328125,0.64111328125,-9.6435546875,1.03759765625,0.30517578125
81624,0.0086669921875,-0.0218505859375,0.6461181640625,-9.46044921875,1.0986328125,0.1831054538488388
81640,0.0103759765625,-0.020751953125,0.653076171875,-9.033203125,0.7934569716453552,0.1220703050494194
81656,0.0091552734375,-0.0186767578125,0.6295166015625,-8.7890625,0.1220703050494194,0.0
81678,0.0062255859375,-0.0186767578125,0.605712890625,-8.72802734375,0.0,-0.0610351525247097
81694,0.0025634765625,-0.0205078125,0.591064453125,-8.85009765625,0.1831054538488388,-0.1220703050494194
81711,0.000244140625,-0.0194091796875,0.634521484375,-8.85009765625,0.8544921278953552,-0.3662109076976776
81728,0.009033203125,-0.0032958984375,0.7701416015625,-8.48388671875,0.8544921278953552,-0.4882812201976776
81744,0.012939453125,0.0205078125,0.8433837890625,-7.141112804412842,-0.2441406100988388,-0.6103515625
81778,0.007568359375,0.026123046875,0.871826171875,-2.868652105331421,-1.8920897245407104,-0.4882812201976776
81794,0.0042724609375,0.023681640625,0.8564453125,-1.8920897245407104,-1.9531248807907104,-0.4272460639476776
81810,0.0009765625,0.01220703125,0.860595703125,-0.2441406100988388,-1.2817381620407104,-0.4272460639476776
81830,0.0052490234375,0.0018310546875,0.90380859375,1.4038084745407104,-0.9765624403953552,-0.54931640625
81850,0.010009765625,0.0006103515625,0.9366455078125,3.051757574081421,-0.9765624403953552,-0.6103515625
81888,0.0076904296875,-0.0003662109375,0.9114990234375,5.126952648162842,-0.7324218153953552,-0.4882812201976776
81908,0.0067138671875,-0.0194091796875,0.9256591796875,5.737304210662842,-0.0610351525247097,-0.3662109076976776
81928,0.005859375,-0.0301513671875,0.9525146484375,5.920409679412842,0.0610351525247097,-0.3662109076976776
81944,0.0069580078125,-0.0313720703125,0.9747314453125,6.103515148162842,0.4882812201976776,-0.2441406100988388
81965,0.0159912109375,-0.0240478515625,1.0274658203125,6.652831554412842,0.54931640625,-0.0610351525247097
81986,0.018310546875,-0.0177001953125,1.050048828125,7.629394054412842,0.0610351525247097,0.1220703050494194
82006,0.0084228515625,-0.0230712890625,1.0196533203125,8.60595703125,0.0,0.4272460639476776
82026,0.0068359375,-0.0325927734375,1.0172119140625,9.1552734375,0.3662109076976776,0.6103515625
82043,0.0084228515625,-0.0374755859375,1.021728515625,9.1552734375,0.54931640625,0.7324218153953552
82059,0.0101318359375,-0.0391845703125,1.0103759765625,8.85009765625,0.6103515625,0.8544921278953552
82076,0.01025390625,-0.0350341796875,1.018798828125,8.7890625,0.7324218153953552,1.03759765625
82093,0.009521484375,-0.0335693359375,1.025146484375,8.60595703125,0.4272460639476776,1.2817381620407104
82114,0.0028076171875,-0.0421142578125,1.000732421875,8.1787109375,0.2441406100988388,1.5869139432907104
82130,0.0030517578125,-0.0477294921875,0.991455078125,7.873534679412842,0.4272460639476776,1.7089842557907104
82197,0.01220703125,-0.0423583984375,1.0440673828125,5.554198741912842,-0.3662109076976776,2.50244140625
82213,0.0107421875,-0.0479736328125,1.044677734375,5.371093273162842,-0.4272460639476776,2.624511480331421
82230,0.0126953125,-0.0556640625,1.0596923828125,4.94384765625,-0.6103515625,2.746581792831421
82260,0.0185546875,-0.055908203125,1.06591796875,4.2724609375,-1.2817381620407104,2.807616949081421
82282,0.0162353515625,-0.0555419921875,1.0552978515625,4.08935546875,-1.2817381620407104,2.868652105331421
82298,0.0142822265625,-0.0615234375,1.052001953125,3.540038824081421,-1.3427733182907104,3.112792730331421
82315,0.013916015625,-0.06396484375,1.047119140625,2.990722417831421,-1.5258787870407104,3.112792730331421
82332,0.01513671875,-0.0655517578125,1.044921875,2.685546636581421,-1.5869139432907104,3.112792730331421
82348,0.016845703125,-0.0675048828125,1.04345703125,1.8920897245407104,-1.6479490995407104,3.112792730331421
82379,0.0172119140625,-0.0665283203125,1.0213623046875,0.4272460639476776,-1.8310545682907104,3.112792730331421
82395,0.0155029296875,-0.0635986328125,1.008544921875,0.0610351525247097,-1.7700194120407104,3.112792730331421
82411,0.013916015625,-0.064208984375,0.994873046875,-0.9155272841453552,-1.4038084745407104,3.234863042831421
82443,0.016357421875,-0.064208984375,1.0125732421875,-2.25830078125,-0.9765624403953552,3.234863042831421
82459,0.0174560546875,-0.062744140625,0.9996337890625,-2.868652105331421,-0.9765624403953552,3.295898199081421
82475,0.017822265625,-0.0604248046875,0.9930419921875,-3.173827886581421,-0.7934569716453552,3.234863042831421
82491,0.017822265625,-0.0565185546875,0.9866943359375,-3.723144292831421,-0.4272460639476776,3.173827886581421
82511,0.0172119140625,-0.0576171875,0.9893798828125,-4.08935546875,-0.1831054538488388,3.173827886581421
82532,0.018310546875,-0.0592041015625,0.994873046875,-4.33349609375,-0.1220703050494194,3.173827886581421
82598,0.02490234375,-0.04736328125,1.005615234375,-3.601073980331421,0.0610351525247097,2.868652105331421
82632,0.02294921875,-0.04833984375,0.987548828125,-3.234863042831421,0.3662109076976776,2.685546636581421
82649,0.0250244140625,-0.0462646484375,0.990966796875,-3.112792730331421,0.4272460639476776,2.563476324081421
82686,0.024169921875,-0.0433349609375,0.967529296875,-2.746581792831421,0.4882812201976776,2.563476324081421
82703,0.0235595703125,-0.0400390625,0.9561767578125,-2.44140625,0.7934569716453552,2.563476324081421
82719,0.021728515625,-0.041748046875,0.9571533203125,-2.0751953125,0.9765624403953552,2.50244140625
82736,0.02197265625,-0.0435791015625,0.958251953125,-1.8310545682907104,1.0986328125,2.50244140625
82753,0.0240478515625,-0.041259765625,0.9599609375,-1.220703125,0.7934569716453552,2.3193359375
82774,0.024658203125,-0.037353515625,0.9345703125,-0.7324218153953552,0.7324218153953552,2.3193359375
82790,0.022216796875,-0.0408935546875,0.901611328125,-0.6103515625,0.6713866591453552,2.3193359375
82807,0.021484375,-0.046142578125,0.890380859375,-0.6103515625,1.0986328125,2.38037109375
82824,0.023193359375,-0.0538330078125,0.9005126953125,-0.7934569716453552,1.2817381620407104,2.3193359375
82857,0.02392578125,-0.0482177734375,0.9212646484375,-1.7089842557907104,1.0986328125,2.197265625
82874,0.020263671875,-0.0452880859375,0.8785400390625,-2.38037109375,0.9765624403953552,2.197265625
82890,0.0174560546875,-0.0533447265625,0.852294921875,-3.540038824081421,1.7700194120407104,2.38037109375
82919,0.0216064453125,-0.062255859375,0.922607421875,-5.493163585662842,2.25830078125,2.13623046875
82941,0.021484375,-0.05712890625,0.929931640625,-5.859374523162842,2.0751953125,2.01416015625
82957,0.0191650390625,-0.03759765625,0.9178466796875,-6.347655773162842,1.7089842557907104,2.13623046875
82974,0.0126953125,-0.0460205078125,0.8629150390625,-6.652831554412842,1.7089842557907104,2.25830078125
82995,0.015869140625,-0.0557861328125,0.8812255859375,-8.1787109375,3.112792730331421,2.13623046875
83015,0.02294921875,-0.051513671875,0.946533203125,-8.97216796875,3.234863042831421,1.8920897245407104
83035,0.0277099609375,-0.03173828125,0.9791259765625,-8.9111328125,2.807616949081421,1.8310545682907104
83100,0.0406494140625,-0.0391845703125,1.0386962890625,-8.30078125,3.173827886581421,1.8920897245407104
83121,0.0445556640625,-0.030517578125,1.083251953125,-7.629394054412842,2.50244140625,1.4038084745407104
83137,0.0516357421875,-0.0013427734375,1.142333984375,-5.859374523162842,1.15966796875,1.15966796875
83154,0.0467529296875,0.0142822265625,1.11474609375,-4.69970703125,0.3662109076976776,1.15966796875
83171,0.0380859375,0.0064697265625,1.0264892578125,-2.563476324081421,-0.6713866591453552,1.15966796875
83187,0.0361328125,-0.0037841796875,1.00439453125,-1.4038084745407104,-0.54931640625,1.0986328125
83221,0.0335693359375,-0.007568359375,0.977294921875,-0.6713866591453552,-1.03759765625,0.4882812201976776
83269,0.0355224609375,0.02294921875,0.9771728515625,0.4272460639476776,-1.8310545682907104,0.30517578125
83291,0.028564453125,0.0177001953125,0.9390869140625,0.7934569716453552,-1.8920897245407104,0.4882812201976776
83308,0.026123046875,0.0133056640625,0.947998046875,0.9765624403953552,-1.5869139432907104,0.4272460639476776
83341,0.0228271484375,0.02490234375,0.924560546875,1.15966796875,-2.38037109375,0.1831054538488388
83358,0.0216064453125,0.0240478515625,0.8895263671875,1.15966796875,-2.38037109375,0.2441406100988388
83374,0.021728515625,0.0245361328125,0.8741455078125,0.9765624403953552,-1.220703125,0.30517578125
83391,0.029052734375,0.0185546875,0.9747314453125,1.15966796875,-0.6713866591453552,0.1831054538488388
83411,0.027587890625,0.034912109375,1.0513916015625,2.38037109375,-1.0986328125,-0.0610351525247097
83427,0.027587890625,0.0421142578125,1.0794677734375,3.356933355331421,-1.5258787870407104,-0.1831054538488388
83443,0.0301513671875,0.051513671875,1.0811767578125,5.310058116912842,-2.38037109375,-0.2441406100988388
83459,0.0311279296875,0.046630859375,1.05615234375,6.103515148162842,-2.563476324081421,-0.1831054538488388
83475,0.0318603515625,0.0272216796875,0.9942626953125,7.019042491912842,-2.13623046875,-0.1831054538488388
83491,0.030517578125,0.006103515625,0.989013671875,7.324218273162842,-1.6479490995407104,-0.30517578125
83523,0.029052734375,0.023193359375,1.052001953125,8.72802734375,-0.8544921278953552,-0.9155272841453552
83539,0.025390625,0.0247802734375,1.058837890625,9.33837890625,-0.9155272841453552,-0.9765624403953552
83555,0.0186767578125,0.024658203125,1.03662109375,10.559081077575684,-0.7324218153953552,-1.03759765625
83571,0.0179443359375,0.0146484375,1.0069580078125,10.803221702575684,-0.6713866591453552,-1.0986328125
83595,0.0146484375,0.00341796875,0.978515625,10.681151390075684,-0.30517578125,-1.220703125
83611,0.0128173828125,-0.0115966796875,0.950439453125,9.70458984375,0.1831054538488388,-1.4038084745407104
83628,0.0106201171875,-0.0247802734375,0.929931640625,8.11767578125,0.7934569716453552,-1.5258787870407104
83649,0.0084228515625,-0.0247802734375,0.94384765625,6.591796398162842,1.6479490995407104,-1.5869139432907104
83665,0.0123291015625,-0.02001953125,1.020263671875,5.920409679412842,2.01416015625,-1.7089842557907104
83698,0.0142822265625,-0.0244140625,1.0863037109375,4.69970703125,1.7089842557907104,-1.7700194120407104
83715,0.0181884765625,-0.0186767578125,1.1220703125,4.5166015625,1.6479490995407104,-1.8920897245407104
83731,0.02587890625,-0.009765625,1.1646728515625,4.5166015625,1.6479490995407104,-2.01416015625
83763,0.0301513671875,-0.0050048828125,1.1385498046875,4.2724609375,0.4272460639476776,-1.8920897245407104
83779,0.0299072265625,-0.0048828125,1.1151123046875,3.845214605331421,0.3662109076976776,-1.8310545682907104
83795,0.029296875,-0.019775390625,1.0736083984375,2.685546636581421,0.6103515625,-1.6479490995407104
83811,0.030029296875,-0.0274658203125,1.0654296875,1.8310545682907104,0.9155272841453552,-1.6479490995407104
83831,0.0313720703125,-0.0355224609375,1.0880126953125,0.30517578125,1.6479490995407104,-1.5869139432907104
83847,0.034423828125,-0.015380859375,1.1593017578125,-0.6713866591453552,1.4038084745407104,-1.6479490995407104
83863,0.038330078125,-0.0047607421875,1.1976318359375,-0.9765624403953552,0.6713866591453552,-1.3427733182907104
83880,0.04296875,0.0006103515625,1.204833984375,-0.9765624403953552,0.0,-1.0986328125
83901,0.0418701171875,-0.0247802734375,1.1405029296875,-1.5258787870407104,-0.54931640625,-0.7934569716453552
83917,0.0357666015625,-0.0494384765625,1.1007080078125,-1.8920897245407104,-0.3662109076976776,-0.7324218153953552
83934,0.0328369140625,-0.0576171875,1.1258544921875,-3.112792730331421,-0.1220703050494194,-0.8544921278953552
83951,0.0296630859375,-0.0452880859375,1.130859375,-4.2724609375,-0.6103515625,-0.8544921278953552
83967,0.02685546875,-0.0289306640625,1.1365966796875,-4.638671875,-0.8544921278953552,-0.7934569716453552
83998,0.0225830078125,-0.021240234375,1.1163330078125,-4.8828125,-1.8310545682907104,-0.30517578125
84020,0.0162353515625,-0.0191650390625,1.1251220703125,-4.8828125,-2.0751953125,-0.30517578125
84036,0.0078125,0.000732421875,1.115478515625,-4.82177734375,-2.197265625,-0.30517578125
84053,0.0086669921875,0.0057373046875,1.1241455078125,-4.33349609375,-2.197265625,0.0
84071,0.0111083984375,0.0025634765625,1.1282958984375,-3.417968511581421,-2.624511480331421,0.1831054538488388
84088,0.0091552734375,-0.0013427734375,1.089111328125,-2.624511480331421,-2.38037109375,0.30517578125
84117,0.005859375,0.003662109375,1.0562744140625,-1.2817381620407104,-1.4038084745407104,0.2441406100988388
84134,0.0086669921875,0.0048828125,1.080322265625,-0.0610351525247097,-0.8544921278953552,0.2441406100988388
84150,0.0101318359375,0.0064697265625,1.0806884765625,0.6103515625,-0.7934569716453552,0.2441406100988388
84179,0.016845703125,0.00146484375,1.0128173828125,2.3193359375,0.0610351525247097,0.4882812201976776
84201,0.021240234375,-0.0025634765625,1.0076904296875,2.868652105331421,1.3427733182907104,0.4272460639476776
84217,0.02880859375,0.0067138671875,1.048095703125,3.234863042831421,1.6479490995407104,0.3662109076976776
84238,0.035400390625,0.0059814453125,1.031005859375,3.845214605331421,1.5258787870407104,0.6103515625
84255,0.03955078125,-0.005859375,1.001220703125,4.39453125,1.7089842557907104,0.8544921278953552
84271,0.041748046875,-0.0126953125,0.9981689453125,4.69970703125,2.3193359375,0.9765624403953552
84288,0.04736328125,-0.0167236328125,1.026611328125,5.065917491912842,2.563476324081421,0.9765624403953552
84308,0.0494384765625,-0.012451171875,1.051025390625,5.371093273162842,2.44140625,1.03759765625
84325,0.0545654296875,-0.0098876953125,1.070068359375,6.103515148162842,2.197265625,1.220703125
84341,0.056396484375,-0.0089111328125,1.066650390625,6.469726085662842,1.9531248807907104,1.3427733182907104
84357,0.0604248046875,-0.0093994140625,1.060546875,7.080077648162842,1.7089842557907104,1.4648436307907104
84373,0.0599365234375,-0.0120849609375,1.052490234375,7.324218273162842,1.6479490995407104,1.5258787870407104
84389,0.060546875,-0.0152587890625,1.064453125,7.690429210662842,1.5258787870407104,1.7089842557907104
84421,0.0628662109375,-0.0301513671875,1.088623046875,8.23974609375,0.7934569716453552,1.8310545682907104
84437,0.0623779296875,-0.033935546875,1.07861328125,8.48388671875,0.2441406100988388,1.8310545682907104
84453,0.05908203125,-0.03759765625,1.0589599609375,8.60595703125,0.1831054538488388,1.8310545682907104
84505,0.0540771484375,-0.0462646484375,1.071533203125,8.1787109375,-0.6103515625,1.7089842557907104
84557,0.048583984375,-0.0760498046875,1.0516357421875,7.629394054412842,-0.4272460639476776,1.7700194120407104
84574,0.0450439453125,-0.0758056640625,1.0389404296875,6.958007335662842,-0.6713866591453552,1.5258787870407104
84591,0.0382080078125,-0.0670166015625,1.01318359375,6.042479991912842,-0.4272460639476776,1.3427733182907104
84641,0.0408935546875,-0.0701904296875,1.021240234375,3.784179449081421,0.1831054538488388,1.4648436307907104
84672,0.0433349609375,-0.0699462890625,1.0252685546875,2.685546636581421,0.4882812201976776,1.2817381620407104
84689,0.0386962890625,-0.0679931640625,1.0159912109375,2.3193359375,0.4882812201976776,1.3427733182907104
84722,0.0341796875,-0.0767822265625,1.0186767578125,0.7934569716453552,0.9155272841453552,1.2817381620407104
84739,0.032958984375,-0.0738525390625,1.03369140625,0.2441406100988388,0.9155272841453552,1.03759765625
84755,0.03076171875,-0.06689453125,1.03515625,-0.0610351525247097,0.7324218153953552,0.9155272841453552
84771,0.030029296875,-0.0638427734375,1.02294921875,-0.54931640625,0.6103515625,0.7934569716453552
84791,0.03125,-0.0635986328125,1.0255126953125,-1.03759765625,0.6103515625,0.6713866591453552
84807,0.029541015625,-0.0721435546875,1.020751953125,-1.15966796875,0.6103515625,0.4882812201976776
84823,0.0321044921875,-0.0728759765625,1.0321044921875,-1.220703125,0.6713866591453552,0.3662109076976776
84839,0.0361328125,-0.07275390625,1.0477294921875,-1.15966796875,0.1831054538488388,-0.0610351525247097
84861,0.0362548828125,-0.0609130859375,1.02685546875,-0.8544921278953552,0.1220703050494194,-0.1831054538488388
84877,0.0316162109375,-0.0499267578125,1.0469970703125,-0.8544921278953552,0.2441406100988388,-0.2441406100988388
84894,0.00830078125,-0.040771484375,1.0460205078125,-0.30517578125,0.7934569716453552,-0.2441406100988388
84911,0.0003662109375,-0.0244140625,1.0469970703125,1.220703125,1.8920897245407104,0.1220703050494194
84927,0.065673828125,-0.058837890625,1.20849609375,1.03759765625,2.01416015625,0.1831054538488388
84958,0.0325927734375,-0.0626220703125,1.051513671875,-1.0986328125,-1.4648436307907104,0.0
84980,0.0260009765625,-0.0545654296875,0.9970703125,-0.9765624403953552,-1.5869139432907104,-0.0610351525247097
84996,0.0191650390625,-0.0318603515625,0.97607421875,0.9765624403953552,-2.13623046875,-0.0610351525247097
85013,0.01513671875,-0.0228271484375,0.9453125,3.356933355331421,-1.220703125,0.0610351525247097
85030,0.0198974609375,-0.033203125,0.914306640625,3.967284917831421,-0.4272460639476776,0.2441406100988388
85046,0.0400390625,-0.0440673828125,0.941650390625,2.868652105331421,0.7934569716453552,0.4272460639476776
85080,0.0745849609375,-0.0745849609375,1.2314453125,3.662109136581421,-0.4272460639476776,0.1831054538488388
85096,0.0477294921875,-0.06982421875,1.1236572265625,3.540038824081421,-1.8310545682907104,0.0610351525247097
85112,0.017822265625,-0.0582275390625,0.9244384765625,2.990722417831421,-1.7700194120407104,-0.0610351525247097
85148,0.044921875,-0.0592041015625,1.1529541015625,2.807616949081421,-0.9765624403953552,0.1220703050494194
85164,0.0545654296875,-0.06005859375,1.1158447265625,2.685546636581421,-1.5258787870407104,0.1220703050494194
85180,0.0428466796875,-0.059814453125,0.9361572265625,2.50244140625,-0.7934569716453552,0.3662109076976776
85196,0.0361328125,-0.0770263671875,1.05029296875,2.197265625,-0.30517578125,0.3662109076976776
85213,0.0316162109375,-0.0772705078125,1.0753173828125,1.5258787870407104,-0.7324218153953552,0.2441406100988388
85234,0.025146484375,-0.071533203125,0.9942626953125,0.8544921278953552,-0.7324218153953552,0.1831054538488388
85250,0.0347900390625,-0.0654296875,1.0224609375,0.6103515625,-0.4272460639476776,0.1831054538488388
85267,0.0406494140625,-0.0660400390625,1.0455322265625,0.30517578125,-0.3662109076976776,0.2441406100988388
85284,0.04052734375,-0.060546875,1.016845703125,0.0610351525247097,-0.4882812201976776,0.30517578125
85317,0.032958984375,-0.0643310546875,1.030517578125,-0.2441406100988388,-0.1831054538488388,0.30517578125
85334,0.0338134765625,-0.0628662109375,1.020751953125,-0.2441406100988388,-0.4272460639476776,0.30517578125
85350,0.0362548828125,-0.05419921875,1.021484375,-0.1220703050494194,-0.4882812201976776,0.30517578125
85379,0.0360107421875,-0.054931640625,1.0283203125,0.0,-0.30517578125,0.30517578125
85401,0.03466796875,-0.05712890625,1.0245361328125,0.0610351525247097,-0.3662109076976776,0.30517578125
85421,0.0333251953125,-0.060546875,1.0230712890625,0.1220703050494194,-0.30517578125,0.30517578125
85439,0.034912109375,-0.0643310546875,1.02490234375,0.0,-0.2441406100988388,0.30517578125
85456,0.036865234375,-0.059326171875,1.025634765625,-0.1831054538488388,-0.2441406100988388,0.2441406100988388
85473,0.0355224609375,-0.05615234375,1.020263671875,-0.1831054538488388,-0.30517578125,0.2441406100988388
85489,0.0340576171875,-0.056884765625,1.0224609375,-0.1831054538488388,-0.30517578125,0.30517578125
85510,0.03466796875,-0.0592041015625,1.0244140625,-0.0610351525247097,-0.1831054538488388,0.30517578125
85526,0.034912109375,-0.0587158203125,1.0224609375,-0.1220703050494194,-0.2441406100988388,0.30517578125
85558,0.035888671875,-0.0565185546875,1.0245361328125,-0.1220703050494194,-0.2441406100988388,0.2441406100988388
85580,0.0362548828125,-0.0570068359375,1.02490234375,-0.1220703050494194,-0.2441406100988388,0.30517578125
85596,0.033447265625,-0.0570068359375,1.0235595703125,-0.2441406100988388,-0.2441406100988388,0.4272460639476776
85613,0.0340576171875,-0.059326171875,1.0233154296875,-0.30517578125,-0.2441406100988388,0.3662109076976776
85630,0.0352783203125,-0.0601806640625,1.0235595703125,-0.3662109076976776,-0.2441406100988388,0.30517578125
85680,0.034912109375,-0.055908203125,1.0220947265625,-0.6713866591453552,-0.1831054538488388,0.2441406100988388
85696,0.0345458984375,-0.0555419921875,1.0233154296875,-0.6713866591453552,-0.1831054538488388,0.30517578125
85712,0.034912109375,-0.0533447265625,1.0245361328125,-0.6713866591453552,-0.1831054538488388,0.30517578125
85748,0.0357666015625,-0.0538330078125,1.0218505859375,-0.6713866591453552,-0.2441406100988388,0.30517578125
85764,0.0362548828125,-0.0533447265625,1.02392578125,-0.7324218153953552,-0.1220703050494194,0.2441406100988388
85780,0.03369140625,-0.0537109375,1.0220947265625,-0.8544921278953552,-0.1831054538488388,0.30517578125
85796,0.03369140625,-0.0543212890625,1.0208740234375,-0.7934569716453552,-0.1831054538488388,0.3662109076976776
85818,0.0361328125,-0.0545654296875,1.0247802734375,-0.8544921278953552,-0.1831054538488388,0.30517578125
85834,0.0355224609375,-0.0513916015625,1.0242919921875,-0.9155272841453552,-0.1220703050494194,0.2441406100988388
85851,0.0347900390625,-0.0474853515625,1.0250244140625,-0.8544921278953552,-0.1220703050494194,0.2441406100988388
85868,0.0350341796875,-0.047607421875,1.0257568359375,-0.6713866591453552,-0.1831054538488388,0.3662109076976776
85884,0.0352783203125,-0.046630859375,1.023681640625,-0.4272460639476776,-0.1831054538488388,0.30517578125
85917,0.0355224609375,-0.0465087890625,1.0245361328125,0.0,-0.1831054538488388,0.30517578125
85934,0.0345458984375,-0.047119140625,1.0247802734375,0.1831054538488388,-0.1831054538488388,0.2441406100988388
85950,0.0338134765625,-0.0482177734375,1.0242919921875,0.4882812201976776,-0.1831054538488388,0.2441406100988388
85979,0.0361328125,-0.0487060546875,1.023193359375,0.6103515625,-0.1831054538488388,0.1831054538488388
86001,0.0362548828125,-0.048583984375,1.02392578125,0.7324218153953552,-0.1831054538488388,0.2441406100988388
86017,0.03564453125,-0.0491943359375,1.025390625,0.8544921278953552,-0.2441406100988388,0.2441406100988388
86034,0.0338134765625,-0.048095703125,1.023193359375,0.9155272841453552,-0.2441406100988388,0.1831054538488388
86051,0.034423828125,-0.0478515625,1.0238037109375,1.03759765625,-0.1220703050494194,0.2441406100988388
86067,0.034912109375,-0.0482177734375,1.0234375,1.2817381620407104,-0.0610351525247097,0.1831054538488388
86101,0.0355224609375,-0.050537109375,1.022705078125,1.4038084745407104,-0.1831054538488388,0.30517578125
86117,0.03564453125,-0.051025390625,1.0230712890625,1.4038084745407104,-0.1220703050494194,0.2441406100988388
86133,0.0362548828125,-0.0523681640625,1.023193359375,1.4038084745407104,0.0610351525247097,0.2441406100988388
86169,0.0341796875,-0.0538330078125,1.0252685546875,1.2817381620407104,0.0610351525247097,0.1831054538488388
86185,0.03369140625,-0.0537109375,1.0225830078125,1.0986328125,0.1220703050494194,0.2441406100988388
86201,0.035888671875,-0.051513671875,1.0220947265625,0.9155272841453552,0.1831054538488388,0.2441406100988388
86217,0.036376953125,-0.0489501953125,1.02392578125,0.9155272841453552,0.1220703050494194,0.2441406100988388
86282,0.034912109375,-0.0513916015625,1.0350341796875,0.1831054538488388,2.197265625,0.1831054538488388
86303,0.03564453125,-0.04296875,1.0408935546875,0.30517578125,2.50244140625,0.1220703050494194
86319,0.0350341796875,-0.0399169921875,1.0404052734375,1.4038084745407104,3.112792730331421,0.0
86336,0.05322265625,-0.0379638671875,1.220947265625,3.234863042831421,2.624511480331421,0.2441406100988388
86352,0.06494140625,-0.0478515625,1.3575439453125,4.150390625,1.3427733182907104,0.0610351525247097
86369,0.06640625,-0.0509033203125,1.347412109375,5.920409679412842,-0.6103515625,-0.0610351525247097
86417,0.055419921875,-0.073974609375,1.317626953125,7.629394054412842,0.1831054538488388,-0.8544921278953552
86533,0.05615234375,-0.093505859375,1.40283203125,17.76123046875,-1.4648436307907104,-1.5869139432907104
86550,0.0611572265625,-0.0911865234375,1.3944091796875,19.34814453125,-0.9155272841453552,-1.8920897245407104
86587,0.0670166015625,-0.08935546875,1.5269775390625,23.498533248901367,-2.0751953125,-2.01416015625
86604,0.0517578125,-0.109619140625,1.4801025390625,25.146482467651367,-3.540038824081421,-1.8920897245407104
86620,0.045654296875,-0.12451171875,1.435302734375,25.451658248901367,-4.0283203125,-1.8310545682907104
86637,0.0443115234375,-0.1640625,1.341796875,24.841306686401367,-4.33349609375,-2.01416015625
86657,0.0457763671875,-0.1748046875,1.2747802734375,22.949216842651367,-3.723144292831421,-2.13623046875
86673,0.0435791015625,-0.171142578125,1.296142578125,20.996091842651367,-3.173827886581421,-2.13623046875
86707,0.0323486328125,-0.1549072265625,1.298828125,18.73779296875,-4.45556640625,-1.7089842557907104
86748,0.0186767578125,-0.1904296875,1.1309814453125,12.756346702575684,-3.967284917831421,-1.0986328125
86768,0.0177001953125,-0.1925048828125,1.0435791015625,8.11767578125,-3.601073980331421,-0.8544921278953552
86785,0.0167236328125,-0.17919921875,0.9754638671875,5.615233898162842,-3.234863042831421,-0.6103515625
86801,0.017333984375,-0.1707763671875,0.9456787109375,0.54931640625,-2.624511480331421,-0.2441406100988388
86817,0.0184326171875,-0.1585693359375,0.901611328125,-4.08935546875,-2.197265625,0.2441406100988388
86834,0.0126953125,-0.1500244140625,0.8447265625,-8.48388671875,-2.13623046875,0.54931640625
86850,0.009765625,-0.141845703125,0.8116455078125,-10.620116233825684,-2.13623046875,0.6103515625
86879,0.005615234375,-0.1103515625,0.691162109375,-16.41845703125,-1.4038084745407104,0.9765624403953552
86901,0.004638671875,-0.103759765625,0.6646728515625,-19.8974609375,-1.5869139432907104,1.220703125
86917,0.0050048828125,-0.09033203125,0.5994873046875,-21.606443405151367,-1.6479490995407104,1.4038084745407104
86934,0.009521484375,-0.080078125,0.570068359375,-24.536130905151367,-1.3427733182907104,1.5869139432907104
86951,0.0115966796875,-0.072021484375,0.56201171875,-26.855466842651367,-1.2817381620407104,1.7700194120407104
86967,0.016357421875,-0.063232421875,0.5548095703125,-27.587888717651367,-1.3427733182907104,1.8310545682907104
86999,0.0126953125,-0.0570068359375,0.5218505859375,-29.663084030151367,-1.03759765625,2.0751953125
87021,0.0115966796875,-0.0478515625,0.544189453125,-30.029294967651367,-1.15966796875,2.13623046875
87037,0.0147705078125,-0.03759765625,0.550537109375,-30.090330123901367,-1.3427733182907104,2.0751953125
87054,0.01220703125,-0.03125,0.5135498046875,-29.907224655151367,-1.7089842557907104,2.25830078125
87071,0.01025390625,-0.040771484375,0.521484375,-29.724119186401367,-0.7324218153953552,2.563476324081421
87087,0.014404296875,-0.05419921875,0.6416015625,-29.418943405151367,-0.1220703050494194,2.624511480331421
87118,0.0240478515625,-0.0263671875,0.8125,-25.939939498901367,-1.15966796875,2.197265625
87135,0.0240478515625,-0.0142822265625,0.842041015625,-22.949216842651367,-1.5869139432907104,2.3193359375
87151,0.02197265625,-0.0068359375,0.853271484375,-21.423337936401367,-1.7089842557907104,2.38037109375
87183,0.0089111328125,-0.022216796875,0.8857421875,-17.2119140625,-1.5869139432907104,2.50244140625
87199,0.0098876953125,-0.0223388671875,0.9136962890625,-14.465331077575684,-1.4648436307907104,2.3193359375
87215,0.0076904296875,-0.0089111328125,0.9158935546875,-11.535643577575684,-1.5869139432907104,2.13623046875
87231,0.0076904296875,-0.00244140625,0.911376953125,-9.94873046875,-1.5258787870407104,2.197265625
87256,0.01025390625,-0.00244140625,0.9053955078125,-7.019042491912842,-1.3427733182907104,2.197265625
87272,0.0079345703125,-0.002197265625,0.87939453125,-4.21142578125,-0.7934569716453552,2.25830078125
87289,0.0067138671875,-0.0123291015625,0.9166259765625,-1.5869139432907104,0.0610351525247097,2.13623046875
87306,0.007080078125,-0.0140380859375,0.9437255859375,-0.1220703050494194,0.0,2.01416015625
87355,0.0140380859375,0.013916015625,1.0218505859375,10.131834983825684,1.03759765625,1.5869139432907104
87374,0.0107421875,-0.013427734375,0.999267578125,11.718749046325684,1.0986328125,1.5869139432907104
87395,0.0115966796875,-0.02099609375,1.00732421875,14.526366233825684,1.7089842557907104,1.3427733182907104
87411,0.0133056640625,-0.039306640625,1.0260009765625,16.6015625,1.8920897245407104,1.15966796875
87428,0.0205078125,-0.025146484375,1.045654296875,17.578125,1.8920897245407104,0.9765624403953552
87445,0.0234375,-0.032958984375,1.02099609375,19.4091796875,1.6479490995407104,1.0986328125
87478,0.021484375,-0.0650634765625,1.0322265625,21.545408248901367,1.4648436307907104,1.2817381620407104
87494,0.0194091796875,-0.073486328125,1.023681640625,21.545408248901367,1.3427733182907104,1.220703125
87510,0.021484375,-0.082763671875,1.0228271484375,21.362302780151367,1.15966796875,1.220703125
87539,0.0220947265625,-0.0872802734375,1.0052490234375,20.507810592651367,1.2817381620407104,1.220703125
87561,0.0244140625,-0.0948486328125,1.0550537109375,19.83642578125,0.9765624403953552,1.220703125
87577,0.0213623046875,-0.109130859375,1.0457763671875,19.4091796875,0.3662109076976776,1.2817381620407104
87594,0.0203857421875,-0.1090087890625,1.028076171875,18.24951171875,-0.1831054538488388,1.0986328125
87615,0.0234375,-0.113037109375,1.0291748046875,16.66259765625,-0.2441406100988388,1.0986328125
87631,0.02587890625,-0.1094970703125,1.05029296875,15.075682640075684,-0.6713866591453552,1.0986328125
87652,0.025146484375,-0.11181640625,1.06103515625,13.671874046325684,-1.3427733182907104,1.03759765625
87669,0.02197265625,-0.111083984375,1.042236328125,12.268065452575684,-1.9531248807907104,1.03759765625
87689,0.0194091796875,-0.1207275390625,1.033935546875,10.559081077575684,-2.25830078125,0.9155272841453552
87719,0.0181884765625,-0.1212158203125,1.0106201171875,7.934569835662842,-2.38037109375,0.7324218153953552
87741,0.0198974609375,-0.1162109375,1.0262451171875,6.408690929412842,-2.38037109375,0.7324218153953552
87757,0.019287109375,-0.11474609375,1.0430908203125,5.859374523162842,-2.50244140625,0.6713866591453552
87774,0.0177001953125,-0.1170654296875,1.0443115234375,4.7607421875,-2.624511480331421,0.6103515625
87791,0.0145263671875,-0.1097412109375,1.034423828125,3.784179449081421,-2.563476324081421,0.6103515625
87807,0.0118408203125,-0.1107177734375,1.032958984375,3.295898199081421,-2.50244140625,0.6103515625
87838,0.011962890625,-0.1107177734375,1.02685546875,0.9765624403953552,-2.38037109375,0.4882812201976776
87855,0.0103759765625,-0.114990234375,0.9952392578125,0.30517578125,-2.25830078125,0.4882812201976776
87871,0.010498046875,-0.1153564453125,0.9984130859375,-0.8544921278953552,-1.7089842557907104,0.4882812201976776
87903,0.0089111328125,-0.111328125,1.013916015625,-2.197265625,-1.4038084745407104,0.2441406100988388
87919,0.011474609375,-0.1090087890625,1.01123046875,-2.868652105331421,-1.5258787870407104,0.2441406100988388
87935,0.0089111328125,-0.1143798828125,0.9647216796875,-3.234863042831421,-1.5869139432907104,0.1831054538488388
87951,0.0068359375,-0.1136474609375,0.94140625,-4.08935546875,-0.7934569716453552,0.1220703050494194
87971,0.0076904296875,-0.11279296875,0.9437255859375,-4.94384765625,-0.0610351525247097,-0.0610351525247097
87987,0.009765625,-0.10595703125,0.9671630859375,-5.371093273162842,0.3662109076976776,-0.1220703050494194
88003,0.011962890625,-0.1015625,0.9765625,-5.432128429412842,0.3662109076976776,-0.1831054538488388
88019,0.01318359375,-0.0941162109375,0.9703369140625,-5.249022960662842,0.6713866591453552,-0.3662109076976776
88040,0.0142822265625,-0.09130859375,0.97607421875,-5.065917491912842,0.8544921278953552,-0.30517578125
88056,0.0184326171875,-0.09326171875,0.997802734375,-4.69970703125,1.03759765625,-0.4272460639476776
88073,0.02490234375,-0.0888671875,1.0103759765625,-4.08935546875,1.0986328125,-0.6713866591453552
88090,0.02734375,-0.08251953125,1.0074462890625,-3.784179449081421,1.03759765625,-0.7324218153953552
88106,0.025146484375,-0.0833740234375,0.978515625,-3.112792730331421,0.7934569716453552,-0.6713866591453552
88138,0.024658203125,-0.0791015625,0.974365234375,-2.0751953125,0.9155272841453552,-0.9765624403953552
88160,0.024169921875,-0.0770263671875,0.9635009765625,-1.7700194120407104,0.9765624403953552,-0.9765624403953552
88176,0.0263671875,-0.072509765625,0.9716796875,-0.9155272841453552,1.03759765625,-0.9765624403953552
88193,0.025390625,-0.0704345703125,0.9696044921875,0.0,0.6713866591453552,-1.03759765625
88210,0.02490234375,-0.0653076171875,0.9508056640625,0.4882812201976776,0.54931640625,-1.03759765625
88226,0.0242919921875,-0.060302734375,0.95166015625,1.4648436307907104,0.8544921278953552,-1.03759765625
88258,0.026611328125,-0.0687255859375,0.9881591796875,3.906249761581421,1.03759765625,-1.03759765625
88280,0.0274658203125,-0.0714111328125,1.0064697265625,4.5166015625,1.03759765625,-1.03759765625
88296,0.0223388671875,-0.078857421875,1.019287109375,5.676269054412842,0.7934569716453552,-1.15966796875
88313,0.01611328125,-0.0882568359375,1.0164794921875,6.408690929412842,0.9155272841453552,-1.220703125
88330,0.013671875,-0.0960693359375,0.9989013671875,6.469726085662842,0.8544921278953552,-1.3427733182907104
88346,0.0128173828125,-0.0963134765625,0.97998046875,6.103515148162842,0.9155272841453552,-1.4648436307907104
88379,0.0076904296875,-0.10693359375,0.90966796875,3.540038824081421,1.4648436307907104,-1.2817381620407104
88395,0.006103515625,-0.1103515625,0.9012451171875,2.563476324081421,1.7700194120407104,-1.2817381620407104
88411,0.0047607421875,-0.1142578125,0.8983154296875,0.4882812201976776,2.25830078125,-1.15966796875
88443,0.007568359375,-0.1094970703125,0.936279296875,-2.38037109375,2.746581792831421,-0.9765624403953552
88459,0.0093994140625,-0.1072998046875,0.9456787109375,-3.723144292831421,2.807616949081421,-0.8544921278953552
88475,0.0096435546875,-0.1092529296875,0.9541015625,-4.2724609375,2.807616949081421,-0.7324218153953552
88491,0.0074462890625,-0.1131591796875,0.9459228515625,-5.432128429412842,2.929687261581421,-0.6713866591453552
88511,0.0098876953125,-0.1131591796875,0.9508056640625,-6.591796398162842,3.173827886581421,-0.6713866591453552
88527,0.013427734375,-0.1112060546875,0.94873046875,-7.141112804412842,3.112792730331421,-0.7324218153953552
88543,0.0152587890625,-0.1070556640625,0.94677734375,-7.873534679412842,3.173827886581421,-0.7324218153953552
88559,0.0167236328125,-0.1064453125,0.9566650390625,-8.6669921875,3.479003667831421,-0.6103515625
88580,0.0184326171875,-0.1021728515625,0.9697265625,-8.97216796875,3.479003667831421,-0.6103515625
88596,0.021484375,-0.0980224609375,0.984130859375,-9.3994140625,2.929687261581421,-0.54931640625
88613,0.025146484375,-0.09228515625,0.9736328125,-9.58251953125,2.685546636581421,-0.6103515625
88630,0.028564453125,-0.08154296875,0.958740234375,-9.8876953125,2.44140625,-0.4882812201976776
88646,0.0299072265625,-0.07763671875,0.9571533203125,-10.131834983825684,2.38037109375,-0.30517578125
88678,0.03173828125,-0.0712890625,0.9559326171875,-10.131834983825684,1.7700194120407104,-0.3662109076976776
88700,0.0330810546875,-0.066162109375,0.9622802734375,-9.58251953125,1.6479490995407104,-0.3662109076976776
88716,0.0350341796875,-0.055419921875,0.9779052734375,-8.6669921875,1.0986328125,-0.30517578125
88733,0.0322265625,-0.0560302734375,0.964599609375,-8.11767578125,0.7934569716453552,-0.2441406100988388
88750,0.03271484375,-0.0540771484375,0.9725341796875,-6.835937023162842,0.6713866591453552,-0.2441406100988388
88767,0.0335693359375,-0.0516357421875,0.9832763671875,-5.310058116912842,0.2441406100988388,-0.1831054538488388
88798,0.0364990234375,-0.0362548828125,0.98828125,-2.197265625,-0.3662109076976776,-0.1220703050494194
88820,0.03515625,-0.036865234375,0.9976806640625,0.1831054538488388,-0.3662109076976776,-0.0610351525247097
88836,0.0382080078125,-0.0361328125,1.049560546875,2.807616949081421,-0.7934569716453552,0.0
88853,0.0379638671875,-0.0352783203125,1.0545654296875,4.21142578125,-1.2817381620407104,-0.0610351525247097
88919,0.03662109375,-0.0577392578125,1.0396728515625,10.864256858825684,-1.9531248807907104,0.1831054538488388
88935,0.0380859375,-0.057373046875,1.0655517578125,12.023924827575684,-2.746581792831421,0.30517578125
88951,0.035400390625,-0.059326171875,1.0433349609375,12.878417015075684,-3.479003667831421,0.2441406100988388
88983,0.03369140625,-0.0682373046875,1.00537109375,13.000487327575684,-3.967284917831421,0.4882812201976776
89015,0.027099609375,-0.0714111328125,1.0020751953125,12.817381858825684,-3.234863042831421,0.54931640625
89057,0.01953125,-0.074462890625,1.006591796875,12.817381858825684,-4.2724609375,0.8544921278953552
89074,0.0140380859375,-0.0772705078125,0.970947265625,12.512206077575684,-3.906249761581421,0.9765624403953552
89091,0.0142822265625,-0.0859375,1.0118408203125,11.535643577575684,-2.990722417831421,1.0986328125
89107,0.01806640625,-0.08349609375,1.044189453125,10.681151390075684,-2.990722417831421,1.0986328125
89124,0.02197265625,-0.07373046875,1.0560302734375,10.314940452575684,-3.784179449081421,1.15966796875
89157,0.0155029296875,-0.085205078125,0.9835205078125,9.09423828125,-4.08935546875,1.5869139432907104
89174,0.0107421875,-0.0977783203125,0.9732666015625,7.690429210662842,-3.601073980331421,1.6479490995407104
89195,0.0111083984375,-0.102294921875,1.0087890625,7.019042491912842,-3.479003667831421,1.5869139432907104
89211,0.0074462890625,-0.0859375,1.0267333984375,6.164550304412842,-3.784179449081421,1.4648436307907104
89228,0.0037841796875,-0.084228515625,1.0220947265625,5.859374523162842,-3.784179449081421,1.4648436307907104
89245,0.0035400390625,-0.07470703125,1.0386962890625,5.920409679412842,-3.723144292831421,1.5869139432907104
89278,0.002685546875,-0.0853271484375,1.0948486328125,6.774901866912842,-2.25830078125,2.0751953125
89294,0.006591796875,-0.0902099609375,1.17138671875,8.23974609375,-3.112792730331421,1.8310545682907104
89310,-0.0037841796875,-0.0985107421875,1.0615234375,8.9111328125,-3.601073980331421,1.7700194120407104
89339,0.0009765625,-0.114990234375,1.0291748046875,9.765625,-1.5258787870407104,1.7700194120407104
89361,0.005859375,-0.1217041015625,1.05126953125,9.46044921875,-0.7324218153953552,1.7700194120407104
89377,0.01220703125,-0.1180419921875,1.057373046875,9.27734375,-0.6103515625,1.7700194120407104
89394,0.0133056640625,-0.11083984375,1.0313720703125,9.27734375,-0.4882812201976776,1.7700194120407104
89411,0.0126953125,-0.109375,1.0196533203125,9.1552734375,0.30517578125,2.01416015625
89459,0.01904296875,-0.136962890625,1.0228271484375,8.6669921875,0.8544921278953552,2.01416015625
89481,0.0205078125,-0.1357421875,0.9989013671875,8.1787109375,1.15966796875,1.9531248807907104
89497,0.0224609375,-0.1414794921875,0.9591064453125,6.958007335662842,1.8920897245407104,1.9531248807907104
89514,0.0262451171875,-0.1370849609375,0.9534912109375,6.164550304412842,2.3193359375,2.01416015625
89531,0.0267333984375,-0.14697265625,0.962158203125,4.57763671875,2.990722417831421,2.3193359375
89547,0.02880859375,-0.157470703125,1.0050048828125,3.112792730331421,3.051757574081421,2.38037109375
89613,0.0369873046875,-0.1695556640625,1.049560546875,-0.54931640625,3.723144292831421,2.25830078125
89655,0.0233154296875,-0.165771484375,1.0546875,-0.8544921278953552,3.356933355331421,2.13623046875
89672,0.0186767578125,-0.1566162109375,1.0543212890625,-0.9765624403953552,3.540038824081421,2.01416015625
89688,0.0137939453125,-0.160400390625,1.0538330078125,-0.9155272841453552,4.21142578125,2.197265625
89709,0.0213623046875,-0.1700439453125,1.1163330078125,-0.8544921278953552,3.845214605331421,2.01416015625
89725,0.02490234375,-0.1676025390625,1.1123046875,-0.54931640625,3.356933355331421,1.7700194120407104
89741,0.0260009765625,-0.164794921875,1.094970703125,-0.4882812201976776,3.112792730331421,1.7700194120407104
89757,0.021240234375,-0.1597900390625,1.060791015625,-0.6713866591453552,2.868652105331421,1.8310545682907104
89774,0.0166015625,-0.1656494140625,1.05859375,-0.9765624403953552,3.601073980331421,2.0751953125
89795,0.0177001953125,-0.1822509765625,1.1014404296875,-1.03759765625,3.601073980331421,1.9531248807907104
89811,0.0185546875,-0.189697265625,1.1597900390625,-0.7934569716453552,2.624511480331421,1.4038084745407104
89828,0.0194091796875,-0.1834716796875,1.12890625,-0.4272460639476776,1.15966796875,1.0986328125
89845,0.0179443359375,-0.1644287109375,1.0308837890625,-0.4272460639476776,0.9765624403953552,0.9765624403953552
89876,0.02197265625,-0.180419921875,1.059814453125,-1.2817381620407104,2.3193359375,1.03759765625
89941,0.015380859375,-0.149658203125,1.027587890625,0.7934569716453552,-0.0610351525247097,0.1220703050494194
89957,0.01953125,-0.1590576171875,1.050048828125,1.03759765625,0.54931640625,0.0
89973,0.032470703125,-0.169921875,1.1181640625,1.3427733182907104,0.3662109076976776,-0.2441406100988388
90009,0.0361328125,-0.151611328125,1.09423828125,3.356933355331421,-1.8920897245407104,-0.9765624403953552
90041,0.036376953125,-0.1475830078125,1.0755615234375,4.69970703125,-1.3427733182907104,-0.9765624403953552
90073,0.0435791015625,-0.160888671875,1.1595458984375,6.469726085662842,-2.685546636581421,-1.5258787870407104
90090,0.0400390625,-0.1444091796875,1.0936279296875,7.690429210662842,-3.417968511581421,-1.5869139432907104
90123,0.0306396484375,-0.1475830078125,1.0462646484375,8.60595703125,-2.868652105331421,-1.5869139432907104
90140,0.02685546875,-0.1490478515625,1.0438232421875,8.6669921875,-2.685546636581421,-1.5869139432907104
90156,0.0286865234375,-0.154541015625,1.054443359375,8.6669921875,-2.746581792831421,-1.4648436307907104
90172,0.02978515625,-0.1571044921875,1.04638671875,8.60595703125,-2.929687261581421,-1.5258787870407104
90189,0.0318603515625,-0.1536865234375,1.0125732421875,8.36181640625,-3.112792730331421,-1.5258787870407104
90210,0.0277099609375,-0.157470703125,0.9627685546875,7.690429210662842,-2.38037109375,-1.3427733182907104
90260,0.029052734375,-0.1671142578125,1.0198974609375,5.615233898162842,-1.5869139432907104,-1.220703125
90372,0.05908203125,-0.17626953125,1.0430908203125,-0.4272460639476776,6.347655773162842,0.4272460639476776
90389,0.1256103515625,-0.2568359375,1.643798828125,-0.6713866591453552,5.920409679412842,0.4882812201976776
90422,0.0582275390625,-0.1688232421875,0.991455078125,-2.868652105331421,-6.225585460662842,-1.15966796875
90438,0.009033203125,-0.1358642578125,0.748291015625,-2.44140625,-3.356933355331421,-0.8544921278953552
90455,-0.0213623046875,-0.1083984375,0.837646484375,3.662109136581421,-1.15966796875,-0.1220703050494194
90471,-0.026611328125,-0.1241455078125,0.8165283203125,5.065917491912842,0.7324218153953552,0.3662109076976776
90491,0.020751953125,-0.135986328125,0.85595703125,1.220703125,2.746581792831421,0.9765624403953552
90507,0.0472412109375,-0.15185546875,0.9674072265625,0.1220703050494194,1.8920897245407104,0.9155272841453552
90523,0.0552978515625,-0.1927490234375,1.16357421875,0.1220703050494194,0.7934569716453552,0.7934569716453552
90539,0.04931640625,-0.259765625,1.41796875,1.220703125,-3.234863042831421,-0.1831054538488388
90560,-0.013916015625,-0.1495361328125,0.7606201171875,0.3662109076976776,-1.4038084745407104,0.1220703050494194
90576,0.008056640625,-0.1575927734375,0.872802734375,0.2441406100988388,0.6103515625,0.2441406100988388
90593,0.0423583984375,-0.190673828125,1.1099853515625,0.1220703050494194,0.54931640625,0.30517578125
90610,0.071044921875,-0.18310546875,1.1373291015625,-0.30517578125,-0.8544921278953552,0.0610351525247097
90627,0.03369140625,-0.1500244140625,0.86328125,-0.6713866591453552,-0.4272460639476776,0.4882812201976776
90658,0.0242919921875,-0.197265625,1.102294921875,-0.9765624403953552,-1.15966796875,0.30517578125
90674,0.0224609375,-0.184814453125,1.016845703125,-0.9155272841453552,-1.3427733182907104,0.1220703050494194
90690,0.02880859375,-0.1617431640625,0.95654296875,-1.0986328125,-0.30517578125,0.30517578125
90722,0.0362548828125,-0.16357421875,1.0341796875,-1.15966796875,-0.6713866591453552,0.30517578125
90738,0.0274658203125,-0.166259765625,0.9879150390625,-1.15966796875,-0.4272460639476776,0.3662109076976776
90754,0.0283203125,-0.16943359375,1.01416015625,-1.15966796875,-0.3662109076976776,0.3662109076976776
90770,0.0325927734375,-0.1737060546875,1.0133056640625,-1.220703125,-0.4882812201976776,0.2441406100988388
90795,0.0328369140625,-0.16015625,1.00244140625,-0.7324218153953552,-0.1831054538488388,0.1831054538488388
90811,0.031005859375,-0.1517333984375,1.02392578125,-0.0610351525247097,-0.2441406100988388,0.2441406100988388
90828,0.0301513671875,-0.14892578125,1.005126953125,0.4272460639476776,-0.3662109076976776,0.30517578125
90849,0.0321044921875,-0.1566162109375,1.0137939453125,1.2817381620407104,-0.4882812201976776,0.2441406100988388
90865,0.030029296875,-0.1688232421875,1.0069580078125,1.8310545682907104,-0.54931640625,0.2441406100988388
90898,0.031982421875,-0.166015625,1.016357421875,2.624511480331421,-0.2441406100988388,0.1220703050494194
90920,0.0330810546875,-0.1614990234375,1.0185546875,2.807616949081421,-0.30517578125,0.1220703050494194
90936,0.029541015625,-0.1661376953125,1.01171875,3.112792730331421,-0.3662109076976776,0.1831054538488388
90953,0.02880859375,-0.1676025390625,1.012451171875,3.417968511581421,-0.4882812201976776,0.1831054538488388
90971,0.0291748046875,-0.1722412109375,1.0084228515625,3.479003667831421,-0.4882812201976776,0.1220703050494194
90987,0.0301513671875,-0.173583984375,1.01220703125,3.662109136581421,-0.30517578125,0.1220703050494194
91021,0.031494140625,-0.16748046875,1.010009765625,3.845214605331421,-0.30517578125,0.0610351525247097
91037,0.02978515625,-0.1741943359375,1.011962890625,3.845214605331421,-0.3662109076976776,0.1220703050494194
91057,0.0299072265625,-0.1806640625,1.0074462890625,3.784179449081421,-0.30517578125,0.1220703050494194
91073,0.030517578125,-0.1829833984375,1.008056640625,3.662109136581421,-0.30517578125,0.1220703050494194
91127,0.02978515625,-0.1810302734375,1.0084228515625,3.112792730331421,-0.4272460639476776,0.1220703050494194
91147,0.0299072265625,-0.18310546875,1.0084228515625,2.868652105331421,-0.2441406100988388,0.1831054538488388
91163,0.0302734375,-0.1856689453125,1.011962890625,2.624511480331421,-0.1831054538488388,0.2441406100988388
91180,0.031005859375,-0.18603515625,1.0078125,2.44140625,-0.1831054538488388,0.1831054538488388
91213,0.0303955078125,-0.1824951171875,1.0089111328125,1.8920897245407104,-0.2441406100988388,0.2441406100988388
91276,0.029541015625,-0.189697265625,1.0098876953125,1.0986328125,-0.2441406100988388,0.1831054538488388
91293,0.0277099609375,-0.1868896484375,1.0087890625,0.7934569716453552,-0.1831054538488388,0.30517578125
91309,0.02783203125,-0.1861572265625,1.0072021484375,0.6103515625,-0.1831054538488388,0.3662109076976776
91359,0.0313720703125,-0.1878662109375,1.009521484375,-0.4882812201976776,-0.1220703050494194,0.3662109076976776
91391,0.0272216796875,-0.1802978515625,1.0074462890625,-0.6103515625,-0.1220703050494194,0.30517578125
91408,0.027099609375,-0.1800537109375,1.0087890625,-0.54931640625,-0.1831054538488388,0.3662109076976776
91441,0.0303955078125,-0.1834716796875,1.0074462890625,-0.6713866591453552,-0.0610351525247097,0.3662109076976776
91474,0.029541015625,-0.180419921875,1.0086669921875,-0.9765624403953552,-0.1831054538488388,0.30517578125
91517,0.0311279296875,-0.1837158203125,1.011474609375,-1.15966796875,-0.1831054538488388,0.4272460639476776
91534,0.03076171875,-0.1810302734375,1.00830078125,-1.3427733182907104,-0.2441406100988388,0.30517578125
91567,0.0318603515625,-0.173095703125,1.010986328125,-1.3427733182907104,-0.2441406100988388,0.30517578125
91631,0.021484375,-0.1519775390625,0.9954833984375,-0.1831054538488388,0.6103515625,0.1831054538488388
91648,0.02685546875,-0.1405029296875,0.9942626953125,1.9531248807907104,2.38037109375,0.0610351525247097
91681,0.0626220703125,-0.1190185546875,1.1417236328125,8.48388671875,5.737304210662842,0.3662109076976776
91698,0.120849609375,-0.2701416015625,1.5545654296875,13.488768577575684,6.408690929412842,0.7934569716453552
91715,0.1424560546875,-0.3094482421875,1.7105712890625,15.563963890075684,1.5258787870407104,-1.0986328125
91731,0.115966796875,-0.2720947265625,1.6259765625,17.2119140625,-2.197265625,-2.746581792831421
91756,0.0660400390625,-0.177001953125,1.440673828125,16.11328125,-1.4038084745407104,-2.50244140625
91772,0.044677734375,-0.167724609375,1.386962890625,15.075682640075684,-0.6713866591453552,-2.13623046875
91789,0.043701171875,-0.1739501953125,1.3907470703125,12.329100608825684,0.2441406100988388,-1.8920897245407104
91806,0.0498046875,-0.1937255859375,1.464111328125,9.70458984375,1.0986328125,-1.7700194120407104
91856,0.0181884765625,-0.27099609375,1.4696044921875,5.0048828125,-2.50244140625,-1.6479490995407104
91988,0.002685546875,-0.3028564453125,1.260498046875,-13.549803733825684,-3.234863042831421,-2.25830078125
92005,0.00927734375,-0.2847900390625,1.2330322265625,-16.2353515625,-2.990722417831421,-2.3193359375
92038,0.0093994140625,-0.2412109375,1.1568603515625,-19.22607421875,-2.929687261581421,-1.9531248807907104
92055,0.0189208984375,-0.242919921875,1.1512451171875,-20.629880905151367,-3.479003667831421,-1.8310545682907104
92072,0.0146484375,-0.2393798828125,1.0596923828125,-22.460935592651367,-4.150390625,-2.13623046875
92104,0.006591796875,-0.2080078125,0.934326171875,-25.939939498901367,-3.967284917831421,-1.8920897245407104
92152,0.0018310546875,-0.1451416015625,0.7215576171875,-30.944822311401367,-4.21142578125,-1.5258787870407104
92174,0.0028076171875,-0.12353515625,0.6734619140625,-31.616209030151367,-3.967284917831421,-1.4648436307907104
92191,0.0064697265625,-0.103759765625,0.655029296875,-32.65380859375,-3.845214605331421,-1.3427733182907104
92208,0.0068359375,-0.09130859375,0.6256103515625,-33.203125,-4.39453125,-1.2817381620407104
92228,0.007568359375,-0.0694580078125,0.5458984375,-33.38623046875,-4.150390625,-1.220703125
92245,0.0096435546875,-0.0555419921875,0.503662109375,-33.50830078125,-3.601073980331421,-0.9765624403953552
92261,0.006591796875,-0.0411376953125,0.4737548828125,-33.3251953125,-3.417968511581421,-0.8544921278953552
92278,0.0032958984375,-0.036376953125,0.452880859375,-33.203125,-3.051757574081421,-0.7934569716453552
92294,0.002197265625,-0.02734375,0.4495849609375,-32.53173828125,-2.197265625,-0.6103515625
92310,0.0068359375,-0.016845703125,0.5086669921875,-31.982419967651367,-1.8310545682907104,-0.54931640625
92342,0.0166015625,-0.0047607421875,0.5478515625,-28.198240280151367,-2.3193359375,-0.30517578125
92358,0.0140380859375,-0.0052490234375,0.5206298828125,-27.099607467651367,-1.9531248807907104,-0.30517578125
92374,0.0106201171875,-0.00341796875,0.52783203125,-24.841306686401367,-0.54931640625,-0.2441406100988388
92390,0.01025390625,-0.003662109375,0.6318359375,-23.742673873901367,0.1220703050494194,-0.2441406100988388
92410,0.0111083984375,0.00146484375,0.6898193359375,-21.057126998901367,0.4272460639476776,-0.2441406100988388
92432,0.010986328125,0.005615234375,0.7647705078125,-17.76123046875,0.6103515625,-0.3662109076976776
92448,0.02197265625,0.02783203125,0.86474609375,-14.038084983825684,-0.1831054538488388,-0.2441406100988388
92465,0.0172119140625,0.0347900390625,0.8284912109375,-12.207030296325684,-0.6103515625,-0.1831054538488388
92515,0.009033203125,0.017822265625,0.935546875,-0.4882812201976776,0.9765624403953552,-0.2441406100988388
92531,0.0184326171875,0.026611328125,0.981689453125,1.7700194120407104,0.54931640625,-0.3662109076976776
92548,0.02099609375,0.0302734375,0.9686279296875,6.286620616912842,-0.1831054538488388,-0.4272460639476776
92580,0.0167236328125,0.0220947265625,0.937255859375,12.573241233825684,0.4272460639476776,-0.3662109076976776
92602,0.0155029296875,0.013916015625,1.0145263671875,16.845703125,0.8544921278953552,-0.4882812201976776
92622,0.0155029296875,0.0003662109375,1.0701904296875,21.240232467651367,-0.0610351525247097,-0.7324218153953552
92638,0.013671875,-0.002685546875,1.0504150390625,25.451658248901367,-0.9155272841453552,-0.6713866591453552
92655,0.0054931640625,-0.0250244140625,1.0018310546875,27.099607467651367,-0.7324218153953552,-0.6713866591453552
92676,0.006591796875,-0.0316162109375,1.014404296875,29.602048873901367,-0.0610351525247097,-0.7324218153953552
92692,0.007080078125,-0.0478515625,1.02001953125,31.494138717651367,-0.1220703050494194,-0.7934569716453552
92709,0.0068359375,-0.058349609375,1.0152587890625,32.958984375,0.0610351525247097,-0.7934569716453552
92730,0.0142822265625,-0.0787353515625,1.0517578125,33.87451171875,0.1220703050494194,-0.9155272841453552
92761,0.02001953125,-0.0870361328125,0.9986572265625,34.48486328125,-0.6103515625,-1.0986328125
92783,0.0179443359375,-0.093017578125,0.9945068359375,34.60693359375,-0.1831054538488388,-0.8544921278953552
92799,0.0152587890625,-0.1134033203125,1.0062255859375,34.24072265625,-0.1220703050494194,-0.6103515625
92818,0.0140380859375,-0.1312255859375,1.0068359375,33.3251953125,-0.30517578125,-0.6713866591453552
92835,0.01171875,-0.139404296875,0.990478515625,32.77587890625,-0.30517578125,-0.6103515625
92851,0.0126953125,-0.14111328125,0.9935302734375,31.433103561401367,-0.1220703050494194,-0.54931640625
92889,0.010498046875,-0.1639404296875,0.99658203125,28.015134811401367,-0.1831054538488388,-0.30517578125
92905,0.008056640625,-0.1728515625,0.99951171875,25.695798873901367,-0.2441406100988388,-0.1831054538488388
92921,0.0059814453125,-0.1722412109375,0.9903564453125,24.353025436401367,-0.1831054538488388,-0.1220703050494194
92937,0.0089111328125,-0.1744384765625,1.0037841796875,21.423337936401367,0.1220703050494194,0.0
92954,0.0113525390625,-0.1824951171875,1.0111083984375,18.1884765625,-0.0610351525247097,0.2441406100988388
92975,0.0111083984375,-0.186279296875,1.0078125,16.357421875,-0.1220703050494194,0.30517578125
92991,0.0072021484375,-0.190673828125,1.00537109375,12.390135765075684,-0.0610351525247097,0.4882812201976776
93008,0.005126953125,-0.1917724609375,1.0001220703125,10.253905296325684,-0.1220703050494194,0.6103515625
93025,0.005859375,-0.1842041015625,0.99609375,6.042479991912842,-0.1220703050494194,0.7324218153953552
93058,0.009521484375,-0.1806640625,1.0126953125,-0.7934569716453552,0.1220703050494194,1.0986328125
93075,0.0079345703125,-0.1807861328125,1.0076904296875,-3.479003667831421,-0.1220703050494194,1.220703125
93091,0.0067138671875,-0.177001953125,1.0030517578125,-4.69970703125,-0.0610351525247097,1.2817381620407104
93123,0.0076904296875,-0.1622314453125,1.0125732421875,-7.690429210662842,0.54931640625,1.4648436307907104
93139,0.0087890625,-0.1617431640625,1.019775390625,-9.33837890625,0.4272460639476776,1.4648436307907104
93155,0.0079345703125,-0.1531982421875,1.00244140625,-10.681151390075684,0.4272460639476776,1.5258787870407104
93171,0.0078125,-0.153076171875,0.9918212890625,-11.230467796325684,0.54931640625,1.5869139432907104
93191,0.0101318359375,-0.148193359375,0.9991455078125,-12.268065452575684,1.03759765625,1.5869139432907104
93228,0.0137939453125,-0.1285400390625,0.9874267578125,-13.122557640075684,0.9765624403953552,1.4648436307907104
93248,0.01904296875,-0.1224365234375,0.9993896484375,-13.244627952575684,1.3427733182907104,1.5258787870407104
93265,0.02197265625,-0.12060546875,1.0101318359375,-13.000487327575684,1.4648436307907104,1.5869139432907104
93281,0.022705078125,-0.12109375,1.0086669921875,-12.451170921325684,1.15966796875,1.5258787870407104
93298,0.021484375,-0.11376953125,0.99853515625,-11.718749046325684,1.15966796875,1.4038084745407104
93314,0.0189208984375,-0.108154296875,1.0059814453125,-11.291502952575684,1.2817381620407104,1.4038084745407104
93331,0.01953125,-0.10498046875,1.015380859375,-10.192870140075684,1.220703125,1.4038084745407104
93364,0.017333984375,-0.103271484375,1.0120849609375,-8.1787109375,0.6713866591453552,1.4038084745407104
93385,0.0147705078125,-0.1031494140625,1.0009765625,-7.263183116912842,0.4272460639476776,1.3427733182907104
93401,0.013671875,-0.101806640625,0.9945068359375,-6.713866710662842,0.4882812201976776,1.2817381620407104
93418,0.0120849609375,-0.103759765625,1.0029296875,-6.652831554412842,0.1831054538488388,1.3427733182907104
93435,0.0084228515625,-0.1046142578125,0.9766845703125,-6.896972179412842,-0.54931640625,1.2817381620407104
93451,0.0040283203125,-0.1055908203125,0.93017578125,-7.446288585662842,-0.4272460639476776,1.4648436307907104
93489,0.00390625,-0.104736328125,0.9266357421875,-8.1787109375,0.30517578125,1.6479490995407104
93505,0.0081787109375,-0.099609375,0.9560546875,-7.690429210662842,0.4272460639476776,1.5869139432907104
93521,0.01171875,-0.0992431640625,0.9696044921875,-7.324218273162842,0.30517578125,1.6479490995407104
93537,0.017333984375,-0.0965576171875,0.9853515625,-6.347655773162842,0.1220703050494194,1.6479490995407104
93559,0.01904296875,-0.097412109375,0.9881591796875,-5.798339366912842,0.0,1.6479490995407104
93575,0.0189208984375,-0.0960693359375,0.97607421875,-4.69970703125,-0.3662109076976776,1.5869139432907104
93592,0.0164794921875,-0.0977783203125,0.9564208984375,-3.723144292831421,-0.6713866591453552,1.5869139432907104
93609,0.012939453125,-0.0936279296875,0.9110107421875,-3.540038824081421,-0.6713866591453552,1.5869139432907104
93625,0.0079345703125,-0.0928955078125,0.8546142578125,-3.540038824081421,-0.54931640625,1.7089842557907104
93691,0.017333984375,-0.0950927734375,1.023193359375,-3.540038824081421,1.0986328125,1.8920897245407104
93732,0.0028076171875,-0.08642578125,0.9754638671875,-0.7934569716453552,0.30517578125,2.13623046875
93749,0.005615234375,-0.0931396484375,0.945068359375,-0.30517578125,0.6713866591453552,2.25830078125
93782,0.014892578125,-0.1143798828125,0.9801025390625,0.7324218153953552,1.3427733182907104,2.01416015625
93815,0.0181884765625,-0.096923828125,0.990478515625,1.8310545682907104,0.9765624403953552,1.8920897245407104
93911,0.0181884765625,-0.10107421875,0.963134765625,3.540038824081421,1.2817381620407104,1.7700194120407104
93928,0.0172119140625,-0.0972900390625,0.9632568359375,3.906249761581421,1.2817381620407104,1.7700194120407104
93961,0.0191650390625,-0.096923828125,0.9852294921875,5.126952648162842,1.4038084745407104,1.7089842557907104
93978,0.0184326171875,-0.1051025390625,0.97509765625,5.859374523162842,0.8544921278953552,1.6479490995407104
93994,0.0169677734375,-0.1063232421875,0.95361328125,5.920409679412842,0.9155272841453552,1.5869139432907104
94011,0.02001953125,-0.104248046875,0.9559326171875,5.981444835662842,1.15966796875,1.5258787870407104
94065,0.029296875,-0.1036376953125,1.0302734375,6.896972179412842,0.6713866591453552,1.2817381620407104
94155,0.0264892578125,-0.0909423828125,0.937255859375,11.779784202575684,-2.197265625,0.0610351525247097
94172,0.0203857421875,-0.088623046875,0.9410400390625,12.023924827575684,-1.8310545682907104,-0.0610351525247097
94188,0.0179443359375,-0.0994873046875,0.995361328125,12.512206077575684,-1.4038084745407104,-0.1831054538488388
94209,0.0147705078125,-0.1124267578125,1.0216064453125,13.244627952575684,-1.6479490995407104,-0.30517578125
94225,0.0140380859375,-0.1187744140625,1.0208740234375,13.854979515075684,-2.01416015625,-0.4882812201976776
94241,0.01318359375,-0.125732421875,0.9873046875,13.916014671325684,-1.5258787870407104,-0.7324218153953552
94258,0.0179443359375,-0.12255859375,0.98779296875,13.366698265075684,-1.3427733182907104,-0.7324218153953552
94274,0.0133056640625,-0.1217041015625,0.955810546875,12.817381858825684,-1.15966796875,-0.6713866591453552
94290,0.0059814453125,-0.1209716796875,0.9168701171875,11.169432640075684,-0.1220703050494194,-0.54931640625
94322,0.0081787109375,-0.1373291015625,0.970458984375,8.30078125,1.3427733182907104,-0.4882812201976776
94338,0.024169921875,-0.146484375,1.0457763671875,6.530761241912842,1.15966796875,-0.6103515625
94354,0.0357666015625,-0.1424560546875,1.0712890625,5.737304210662842,0.4882812201976776,-0.6713866591453552
94370,0.0443115234375,-0.130615234375,1.0157470703125,3.967284917831421,-0.1831054538488388,-0.4272460639476776
94394,0.036376953125,-0.122802734375,0.971435546875,1.8920897245407104,0.30517578125,-0.1831054538488388
94427,0.019287109375,-0.1317138671875,1.00048828125,-0.8544921278953552,1.220703125,0.0
94448,0.01904296875,-0.1328125,1.022216796875,-1.7700194120407104,1.220703125,0.0610351525247097
94464,0.01953125,-0.1209716796875,1.040771484375,-2.197265625,1.5258787870407104,0.1220703050494194
94481,0.0125732421875,-0.125244140625,1.0635986328125,-2.197265625,1.8310545682907104,0.3662109076976776
94498,0.0118408203125,-0.135009765625,1.06201171875,-2.0751953125,1.7700194120407104,0.4882812201976776
94515,0.0157470703125,-0.1361083984375,1.048828125,-2.25830078125,1.8310545682907104,0.54931640625
94536,0.0257568359375,-0.14404296875,1.0264892578125,-2.685546636581421,2.197265625,0.6103515625
94552,0.0281982421875,-0.14501953125,1.0166015625,-2.929687261581421,2.624511480331421,0.6103515625
94569,0.0296630859375,-0.1578369140625,1.087646484375,-3.295898199081421,3.540038824081421,0.8544921278953552
94586,0.0323486328125,-0.1573486328125,1.1300048828125,-3.112792730331421,3.234863042831421,0.4882812201976776
94619,0.0509033203125,-0.12939453125,1.08447265625,-1.7089842557907104,1.5258787870407104,0.30517578125
94635,0.052001953125,-0.1302490234375,1.052001953125,-1.03759765625,1.5258787870407104,0.4882812201976776
94651,0.0469970703125,-0.1402587890625,1.0238037109375,-1.3427733182907104,1.8920897245407104,0.7324218153953552
94683,0.0465087890625,-0.1529541015625,1.044189453125,-1.9531248807907104,1.6479490995407104,0.4882812201976776
94699,0.050048828125,-0.138671875,1.0390625,-1.8310545682907104,1.3427733182907104,0.4882812201976776
94715,0.049560546875,-0.135498046875,1.0364990234375,-1.6479490995407104,1.4038084745407104,0.6103515625
94731,0.0517578125,-0.1466064453125,1.071533203125,-1.0986328125,1.3427733182907104,0.6103515625
94756,0.048828125,-0.15283203125,1.09375,-0.4272460639476776,0.7324218153953552,0.3662109076976776
94772,0.0447998046875,-0.144287109375,1.08251953125,0.0,0.4882812201976776,0.2441406100988388
94789,0.043212890625,-0.137451171875,1.076171875,0.8544921278953552,0.1831054538488388,0.1220703050494194
94806,0.0379638671875,-0.13427734375,1.061767578125,1.7700194120407104,-0.1220703050494194,0.1220703050494194
94822,0.030517578125,-0.1378173828125,1.060302734375,2.25830078125,-0.0610351525247097,0.1831054538488388
94856,0.0274658203125,-0.1512451171875,1.1116943359375,4.45556640625,-0.4272460639476776,-0.1220703050494194
94873,0.0301513671875,-0.1475830078125,1.1142578125,5.737304210662842,-1.220703125,-0.30517578125
94894,0.0277099609375,-0.1348876953125,1.060302734375,6.225585460662842,-1.5869139432907104,-0.4272460639476776
94910,0.02001953125,-0.142578125,1.0032958984375,6.835937023162842,-1.5869139432907104,-0.3662109076976776
94927,0.0185546875,-0.148681640625,1.0142822265625,6.774901866912842,-0.7934569716453552,-0.1831054538488388
94944,0.0135498046875,-0.160888671875,1.0394287109375,6.591796398162842,-0.7934569716453552,-0.2441406100988388
94977,0.0235595703125,-0.1522216796875,1.0592041015625,6.835937023162842,-0.7324218153953552,-0.4882812201976776
94994,0.0328369140625,-0.149658203125,1.080810546875,7.263183116912842,-1.03759765625,-0.4882812201976776
95010,0.0294189453125,-0.15625,1.0516357421875,7.385253429412842,-1.2817381620407104,-0.4272460639476776
95042,0.027099609375,-0.1632080078125,1.050048828125,8.1787109375,-0.6713866591453552,-0.2441406100988388
95058,0.0308837890625,-0.16748046875,1.0606689453125,8.4228515625,-0.6103515625,-0.2441406100988388
95074,0.0350341796875,-0.1690673828125,1.044677734375,8.6669921875,-0.9765624403953552,-0.1831054538488388
95090,0.0296630859375,-0.1749267578125,0.9822998046875,8.6669921875,-0.6713866591453552,-0.0610351525247097
95110,0.0308837890625,-0.196533203125,1.0218505859375,8.23974609375,0.30517578125,0.1220703050494194
95126,0.0286865234375,-0.1981201171875,1.0228271484375,7.446288585662842,0.30517578125,0.0
95142,0.033203125,-0.1854248046875,1.0244140625,6.835937023162842,0.7324218153953552,0.1220703050494194
95158,0.0386962890625,-0.18408203125,1.0447998046875,6.652831554412842,0.8544921278953552,0.2441406100988388
95180,0.0450439453125,-0.19189453125,1.0916748046875,6.652831554412842,0.6103515625,0.4272460639476776
95196,0.0445556640625,-0.2061767578125,1.111083984375,6.652831554412842,-0.1220703050494194,0.2441406100988388
95213,0.0400390625,-0.196533203125,1.0672607421875,6.713866710662842,-0.3662109076976776,0.1831054538488388
95230,0.038818359375,-0.19287109375,1.046630859375,6.469726085662842,-0.1220703050494194,0.30517578125
95246,0.0382080078125,-0.1976318359375,1.04638671875,6.164550304412842,0.4272460639476776,0.54931640625
95280,0.0418701171875,-0.2025146484375,1.0921630859375,5.920409679412842,0.2441406100988388,0.4882812201976776
95296,0.0400390625,-0.190185546875,1.060546875,6.164550304412842,0.1220703050494194,0.4882812201976776
95312,0.0406494140625,-0.1834716796875,1.0379638671875,6.286620616912842,0.3662109076976776,0.6713866591453552
95344,0.0433349609375,-0.1962890625,1.0496826171875,5.981444835662842,1.220703125,0.7934569716453552
95360,0.045654296875,-0.1964111328125,1.0616455078125,5.920409679412842,0.9155272841453552,0.7324218153953552
95376,0.0428466796875,-0.18359375,1.0177001953125,5.676269054412842,0.9765624403953552,0.7934569716453552
95392,0.041748046875,-0.181640625,0.991943359375,5.249022960662842,1.4648436307907104,1.03759765625
95412,0.041748046875,-0.1878662109375,1.0023193359375,4.57763671875,2.0751953125,1.15966796875
95428,0.0418701171875,-0.1917724609375,1.0201416015625,4.2724609375,2.25830078125,1.2817381620407104
95444,0.0438232421875,-0.197265625,1.0556640625,4.0283203125,2.197265625,1.4038084745407104
95460,0.046630859375,-0.1993408203125,1.0631103515625,3.967284917831421,2.01416015625,1.4038084745407104
95481,0.0543212890625,-0.2030029296875,1.078857421875,3.356933355331421,1.8310545682907104,1.4038084745407104
95497,0.07373046875,-0.2142333984375,1.232421875,1.2817381620407104,0.9765624403953552,1.5258787870407104
95514,0.0819091796875,-0.2628173828125,1.5067138671875,-0.8544921278953552,-1.0986328125,1.4038084745407104
95531,0.047119140625,-0.225341796875,1.2276611328125,-3.417968511581421,-4.5166015625,0.9155272841453552
95551,0.0260009765625,-0.191650390625,0.938232421875,-4.8828125,-3.601073980331421,1.220703125
95588,0.033203125,-0.19677734375,0.974853515625,-5.126952648162842,-4.45556640625,0.7324218153953552
95605,0.027587890625,-0.1824951171875,0.9371337890625,-4.45556640625,-4.08935546875,0.6713866591453552
95625,0.0267333984375,-0.187744140625,0.95947265625,-4.7607421875,-3.784179449081421,0.54931640625
95645,0.0047607421875,-0.180419921875,0.91650390625,-3.967284917831421,-3.662109136581421,0.54931640625
95661,-0.020751953125,-0.171875,0.8509521484375,-4.57763671875,-0.7934569716453552,0.7324218153953552
95678,-0.0048828125,-0.151123046875,0.80322265625,-6.164550304412842,3.784179449081421,1.5869139432907104
95695,0.0521240234375,-0.184326171875,0.9857177734375,-5.126952648162842,4.69970703125,1.6479490995407104
95711,0.083984375,-0.253662109375,1.312255859375,-2.929687261581421,2.13623046875,0.8544921278953552
95728,0.0889892578125,-0.266845703125,1.4188232421875,-1.4648436307907104,-4.39453125,-0.8544921278953552
95760,-0.0216064453125,-0.1021728515625,0.6619873046875,0.54931640625,-0.2441406100988388,-0.0610351525247097
95782,0.0029296875,-0.1571044921875,1.0179443359375,-0.7324218153953552,2.01416015625,0.7324218153953552
95798,0.0599365234375,-0.220703125,1.3016357421875,-0.7934569716453552,-1.6479490995407104,0.0610351525247097
95815,0.0308837890625,-0.1524658203125,0.84521484375,0.0,-2.685546636581421,0.0610351525247097
95832,0.021484375,-0.1494140625,0.8095703125,0.4272460639476776,-0.30517578125,0.4272460639476776
95848,0.03369140625,-0.2132568359375,1.125244140625,-0.3662109076976776,0.1220703050494194,0.30517578125
95882,0.0252685546875,-0.1612548828125,0.9134521484375,-0.1220703050494194,-0.9155272841453552,0.1220703050494194
95898,0.0323486328125,-0.177978515625,1.0260009765625,-0.3662109076976776,-0.1831054538488388,0.3662109076976776
95914,0.035888671875,-0.1842041015625,1.0489501953125,-0.54931640625,-0.7934569716453552,0.30517578125
95930,0.0301513671875,-0.1767578125,0.9727783203125,-0.7324218153953552,-0.6103515625,0.3662109076976776
95954,0.027587890625,-0.186767578125,1.00439453125,-0.9765624403953552,-0.1831054538488388,0.3662109076976776
95970,0.0291748046875,-0.1903076171875,1.0364990234375,-1.2817381620407104,-0.6103515625,0.2441406100988388
95987,0.029296875,-0.171875,0.978759765625,-1.4038084745407104,-0.54931640625,0.2441406100988388
96008,0.0341796875,-0.17822265625,1.02685546875,-1.6479490995407104,-0.1831054538488388,0.3662109076976776
