tMillis,ax,ay,az,gx,gy,gz
604415,0.014892578125,0.7451171875,0.6837158203125,0.7934569716453552,-0.2441406100988388,0.3662109076976776
604431,0.014404296875,0.743896484375,0.6826171875,0.8544921278953552,-0.1831054538488388,0.30517578125
604448,0.0147705078125,0.7435302734375,0.68310546875,0.8544921278953552,-0.2441406100988388,0.30517578125
604465,0.0146484375,0.74462890625,0.6826171875,0.7934569716453552,-0.1831054538488388,0.30517578125
604481,0.0142822265625,0.744873046875,0.6832275390625,0.7934569716453552,-0.1220703050494194,0.30517578125
604515,0.0150146484375,0.7440185546875,0.683349609375,0.8544921278953552,-0.1831054538488388,0.3662109076976776
604531,0.0157470703125,0.74462890625,0.682861328125,0.8544921278953552,-0.1220703050494194,0.2441406100988388
604547,0.0152587890625,0.7445068359375,0.6827392578125,0.7934569716453552,-0.1220703050494194,0.2441406100988388
604583,0.0147705078125,0.7440185546875,0.683837890625,0.7934569716453552,-0.1220703050494194,0.30517578125
604599,0.013916015625,0.7440185546875,0.6834716796875,0.8544921278953552,-0.1831054538488388,0.30517578125
604615,0.013916015625,0.744140625,0.68310546875,0.7934569716453552,-0.1831054538488388,0.30517578125
604631,0.0150146484375,0.7445068359375,0.6820068359375,0.7324218153953552,-0.1831054538488388,0.3662109076976776
604695,0.0146484375,0.7445068359375,0.6815185546875,0.8544921278953552,-0.1831054538488388,0.3662109076976776
604711,0.0142822265625,0.7440185546875,0.682861328125,0.7934569716453552,-0.1831054538488388,0.2441406100988388
604727,0.0147705078125,0.7437744140625,0.6826171875,0.7934569716453552,-0.1831054538488388,0.2441406100988388
604763,0.01416015625,0.74462890625,0.682861328125,0.8544921278953552,-0.1831054538488388,0.3662109076976776
604779,0.0145263671875,0.74365234375,0.683349609375,0.8544921278953552,-0.2441406100988388,0.3662109076976776
604811,0.0145263671875,0.7447509765625,0.68212890625,0.8544921278953552,-0.2441406100988388,0.30517578125
604828,0.013671875,0.7452392578125,0.6822509765625,0.8544921278953552,-0.1831054538488388,0.30517578125
604849,0.0146484375,0.742919921875,0.6837158203125,0.7934569716453552,-0.1220703050494194,0.30517578125
604865,0.0146484375,0.7440185546875,0.682861328125,0.7934569716453552,-0.1220703050494194,0.3662109076976776
604882,0.0146484375,0.7431640625,0.6827392578125,0.7934569716453552,-0.1220703050494194,0.3662109076976776
604899,0.0152587890625,0.7431640625,0.682861328125,0.7934569716453552,-0.2441406100988388,0.30517578125
604930,0.0146484375,0.744384765625,0.68212890625,0.7934569716453552,-0.1831054538488388,0.30517578125
604994,0.0147705078125,0.7445068359375,0.6824951171875,0.7934569716453552,-0.1220703050494194,0.30517578125
605015,0.015625,0.74462890625,0.68310546875,0.7934569716453552,-0.1831054538488388,0.3662109076976776
605031,0.0142822265625,0.744384765625,0.68310546875,0.7934569716453552,-0.2441406100988388,0.30517578125
605048,0.013916015625,0.744140625,0.683349609375,0.7934569716453552,-0.2441406100988388,0.3662109076976776
605065,0.0133056640625,0.7437744140625,0.68310546875,0.7934569716453552,-0.2441406100988388,0.3662109076976776
605081,0.0145263671875,0.7445068359375,0.683837890625,0.7934569716453552,-0.1831054538488388,0.2441406100988388
605115,0.013671875,0.744384765625,0.6827392578125,0.7934569716453552,-0.1831054538488388,0.30517578125
605179,0.013916015625,0.744384765625,0.6837158203125,0.7934569716453552,-0.2441406100988388,0.3662109076976776
605195,0.0142822265625,0.743896484375,0.6837158203125,0.8544921278953552,-0.1831054538488388,0.30517578125
605211,0.0155029296875,0.744140625,0.683837890625,0.8544921278953552,-0.1831054538488388,0.2441406100988388
605227,0.0150146484375,0.743408203125,0.6832275390625,0.8544921278953552,-0.1831054538488388,0.2441406100988388
605244,0.0137939453125,0.743896484375,0.682373046875,0.8544921278953552,-0.1831054538488388,0.3662109076976776
605265,0.0147705078125,0.744384765625,0.68310546875,0.8544921278953552,-0.1831054538488388,0.3662109076976776
605281,0.0146484375,0.7437744140625,0.681884765625,0.7934569716453552,-0.1831054538488388,0.30517578125
605348,0.014404296875,0.7445068359375,0.681884765625,0.7934569716453552,-0.1831054538488388,0.30517578125
605371,0.0140380859375,0.744873046875,0.6832275390625,0.7934569716453552,-0.1220703050494194,0.2441406100988388
605388,0.0145263671875,0.744873046875,0.6832275390625,0.7934569716453552,-0.1831054538488388,0.30517578125
605405,0.0150146484375,0.745361328125,0.6834716796875,0.7934569716453552,-0.2441406100988388,0.30517578125
605424,0.0147705078125,0.74462890625,0.682861328125,0.7324218153953552,-0.1831054538488388,0.2441406100988388
605440,0.0140380859375,0.744140625,0.6829833984375,0.7934569716453552,-0.1220703050494194,0.2441406100988388
605456,0.014404296875,0.744384765625,0.6832275390625,0.7934569716453552,-0.1831054538488388,0.1831054538488388
605473,0.014404296875,0.7435302734375,0.6832275390625,0.7324218153953552,-0.1831054538488388,0.2441406100988388
605489,0.013916015625,0.7437744140625,0.6834716796875,0.7324218153953552,-0.1831054538488388,0.30517578125
605505,0.0145263671875,0.743896484375,0.6827392578125,0.8544921278953552,-0.1831054538488388,0.2441406100988388
605537,0.0140380859375,0.7449951171875,0.683349609375,0.7934569716453552,-0.2441406100988388,0.2441406100988388
605553,0.015625,0.7451171875,0.68359375,0.7934569716453552,-0.2441406100988388,0.30517578125
605569,0.0159912109375,0.7449951171875,0.68408203125,0.8544921278953552,-0.2441406100988388,0.30517578125
605585,0.01513671875,0.7442626953125,0.6824951171875,0.7324218153953552,-0.1220703050494194,0.2441406100988388
605605,0.0145263671875,0.7445068359375,0.68212890625,0.7324218153953552,-0.1831054538488388,0.30517578125
605621,0.0147705078125,0.7437744140625,0.6824951171875,0.7934569716453552,-0.2441406100988388,0.3662109076976776
605649,0.0146484375,0.7449951171875,0.6832275390625,0.7934569716453552,-0.1831054538488388,0.2441406100988388
605673,0.0140380859375,0.744873046875,0.68359375,0.7934569716453552,-0.1220703050494194,0.2441406100988388
605706,0.01416015625,0.74365234375,0.68310546875,0.7934569716453552,-0.1831054538488388,0.3662109076976776
605724,0.0146484375,0.7435302734375,0.6832275390625,0.7934569716453552,-0.1831054538488388,0.3662109076976776
605740,0.015380859375,0.7442626953125,0.682861328125,0.7934569716453552,-0.1831054538488388,0.30517578125
605771,0.0145263671875,0.7445068359375,0.6826171875,0.7934569716453552,-0.1831054538488388,0.30517578125
605834,0.0145263671875,0.745361328125,0.68310546875,0.7934569716453552,-0.1220703050494194,0.30517578125
605855,0.014404296875,0.7454833984375,0.6822509765625,0.8544921278953552,-0.1831054538488388,0.30517578125
605871,0.014892578125,0.7442626953125,0.681640625,0.8544921278953552,-0.1831054538488388,0.3662109076976776
605888,0.014404296875,0.743408203125,0.6827392578125,0.8544921278953552,-0.1831054538488388,0.3662109076976776
605905,0.01416015625,0.7454833984375,0.6832275390625,0.7934569716453552,-0.1220703050494194,0.30517578125
605922,0.013916015625,0.744873046875,0.683349609375,0.7934569716453552,-0.1220703050494194,0.30517578125
605953,0.013916015625,0.7437744140625,0.6826171875,0.7934569716453552,-0.1831054538488388,0.30517578125
605975,0.014404296875,0.7447509765625,0.6834716796875,0.8544921278953552,-0.1220703050494194,0.30517578125
605991,0.013916015625,0.7451171875,0.684326171875,0.7934569716453552,-0.1220703050494194,0.2441406100988388
606008,0.0140380859375,0.743408203125,0.6829833984375,0.7934569716453552,-0.1831054538488388,0.2441406100988388
606025,0.014404296875,0.744873046875,0.6826171875,0.7934569716453552,-0.1831054538488388,0.30517578125
606041,0.0142822265625,0.7449951171875,0.683837890625,0.8544921278953552,-0.1831054538488388,0.3662109076976776
606075,0.014404296875,0.7442626953125,0.6829833984375,0.7934569716453552,-0.2441406100988388,0.2441406100988388
606139,0.01416015625,0.744384765625,0.68212890625,0.7324218153953552,-0.1220703050494194,0.30517578125
606228,0.0145263671875,0.7447509765625,0.684814453125,0.7934569716453552,-0.1831054538488388,0.2441406100988388
606323,0.0142822265625,0.744873046875,0.6822509765625,0.8544921278953552,-0.2441406100988388,0.30517578125
606373,0.0142822265625,0.744140625,0.6827392578125,0.8544921278953552,-0.1831054538488388,0.30517578125
606389,0.0142822265625,0.743896484375,0.6832275390625,0.8544921278953552,-0.1831054538488388,0.30517578125
606405,0.0145263671875,0.7442626953125,0.6834716796875,0.7934569716453552,-0.1831054538488388,0.2441406100988388
606438,0.01513671875,0.743408203125,0.682861328125,0.7934569716453552,-0.1831054538488388,0.3662109076976776
606470,0.0140380859375,0.744873046875,0.683349609375,0.7934569716453552,-0.1831054538488388,0.30517578125
606529,0.0146484375,0.7454833984375,0.6824951171875,0.7934569716453552,-0.1831054538488388,0.2441406100988388
606564,0.01416015625,0.7447509765625,0.682861328125,0.7934569716453552,-0.1831054538488388,0.3662109076976776
606581,0.0146484375,0.7449951171875,0.6824951171875,0.7934569716453552,-0.1831054538488388,0.30517578125
606614,0.0155029296875,0.7432861328125,0.6829833984375,0.7934569716453552,-0.1831054538488388,0.3662109076976776
606631,0.013671875,0.7449951171875,0.683349609375,0.7934569716453552,-0.1831054538488388,0.30517578125
606648,0.0147705078125,0.7445068359375,0.6826171875,0.7934569716453552,-0.1220703050494194,0.2441406100988388
606665,0.014404296875,0.74462890625,0.68212890625,0.7934569716453552,-0.1831054538488388,0.2441406100988388
606690,0.014404296875,0.74560546875,0.6829833984375,0.7324218153953552,-0.1831054538488388,0.30517578125
606706,0.0147705078125,0.74462890625,0.68359375,0.7934569716453552,-0.1831054538488388,0.30517578125
606723,0.0146484375,0.7442626953125,0.683837890625,0.7934569716453552,-0.2441406100988388,0.30517578125
606740,0.0142822265625,0.7445068359375,0.682373046875,0.7934569716453552,-0.1831054538488388,0.30517578125
606757,0.0150146484375,0.744140625,0.6829833984375,0.8544921278953552,-0.1831054538488388,0.30517578125
606790,0.0142822265625,0.74365234375,0.6822509765625,0.7934569716453552,-0.1831054538488388,0.30517578125
606807,0.0146484375,0.744140625,0.6829833984375,0.7934569716453552,-0.1831054538488388,0.30517578125
606828,0.0150146484375,0.744140625,0.6832275390625,0.7324218153953552,-0.1831054538488388,0.30517578125
606844,0.014892578125,0.74462890625,0.68212890625,0.7324218153953552,-0.1831054538488388,0.30517578125
606911,0.013671875,0.7452392578125,0.682861328125,0.8544921278953552,-0.2441406100988388,0.2441406100988388
606927,0.015380859375,0.744873046875,0.6832275390625,0.7934569716453552,-0.1831054538488388,0.2441406100988388
606944,0.015380859375,0.74462890625,0.683349609375,0.7934569716453552,-0.1831054538488388,0.30517578125
606976,0.0142822265625,0.744873046875,0.6837158203125,0.9155272841453552,-0.1220703050494194,0.2441406100988388
606992,0.01416015625,0.7449951171875,0.6837158203125,0.8544921278953552,-0.1831054538488388,0.30517578125
607008,0.013916015625,0.7449951171875,0.682373046875,0.7934569716453552,-0.2441406100988388,0.30517578125
607024,0.0150146484375,0.744140625,0.682373046875,0.7934569716453552,-0.1831054538488388,0.2441406100988388
607100,0.014892578125,0.7435302734375,0.683349609375,0.7934569716453552,-0.2441406100988388,0.30517578125
607116,0.0142822265625,0.7440185546875,0.684326171875,0.7934569716453552,-0.2441406100988388,0.30517578125
607137,0.0150146484375,0.7454833984375,0.6827392578125,0.7934569716453552,-0.1220703050494194,0.30517578125
607153,0.015869140625,0.7440185546875,0.6824951171875,0.8544921278953552,-0.2441406100988388,0.3662109076976776
607169,0.0142822265625,0.7442626953125,0.6829833984375,0.8544921278953552,-0.2441406100988388,0.3662109076976776
607190,0.0130615234375,0.744873046875,0.6822509765625,0.7324218153953552,-0.2441406100988388,0.3662109076976776
607210,0.01416015625,0.7452392578125,0.682373046875,0.7934569716453552,-0.2441406100988388,0.30517578125
607227,0.0145263671875,0.744384765625,0.6846923828125,0.8544921278953552,-0.2441406100988388,0.30517578125
607243,0.014404296875,0.7437744140625,0.683837890625,0.7934569716453552,-0.1831054538488388,0.2441406100988388
607273,0.013916015625,0.74462890625,0.68310546875,0.7934569716453552,-0.1831054538488388,0.2441406100988388
607295,0.0145263671875,0.744873046875,0.6844482421875,0.7324218153953552,-0.1220703050494194,0.30517578125
607311,0.01416015625,0.744384765625,0.6822509765625,0.7324218153953552,-0.1831054538488388,0.30517578125
607328,0.013671875,0.744873046875,0.68212890625,0.7324218153953552,-0.1831054538488388,0.30517578125
607345,0.014404296875,0.7447509765625,0.68408203125,0.7324218153953552,-0.1220703050494194,0.30517578125
607361,0.014404296875,0.74462890625,0.6837158203125,0.7324218153953552,-0.1831054538488388,0.30517578125
607393,0.0146484375,0.7442626953125,0.683349609375,0.7934569716453552,-0.1831054538488388,0.30517578125
607415,0.014404296875,0.744384765625,0.683349609375,0.7934569716453552,-0.1220703050494194,0.30517578125
607431,0.013671875,0.7442626953125,0.68408203125,0.7934569716453552,-0.1831054538488388,0.2441406100988388
607448,0.013671875,0.744140625,0.6837158203125,0.8544921278953552,-0.1831054538488388,0.2441406100988388
607513,0.01416015625,0.7445068359375,0.6837158203125,0.7324218153953552,-0.2441406100988388,0.2441406100988388
607529,0.0150146484375,0.7440185546875,0.6826171875,0.7934569716453552,-0.1831054538488388,0.2441406100988388
607545,0.0152587890625,0.7445068359375,0.6832275390625,0.7934569716453552,-0.1220703050494194,0.2441406100988388
607577,0.01416015625,0.7442626953125,0.68310546875,0.7934569716453552,-0.1220703050494194,0.1831054538488388
607609,0.0152587890625,0.744384765625,0.6832275390625,0.7934569716453552,-0.1220703050494194,0.2441406100988388
607651,0.01416015625,0.7447509765625,0.6810302734375,0.7934569716453552,-0.1831054538488388,0.3662109076976776
607668,0.013916015625,0.7454833984375,0.680908203125,0.9155272841453552,-0.2441406100988388,0.30517578125
607684,0.014404296875,0.745361328125,0.683349609375,0.7934569716453552,-0.1220703050494194,0.2441406100988388
607734,0.0152587890625,0.744873046875,0.68310546875,0.7934569716453552,-0.1831054538488388,0.2441406100988388
607766,0.0146484375,0.7440185546875,0.68310546875,0.7324218153953552,-0.1220703050494194,0.2441406100988388
607783,0.0140380859375,0.743896484375,0.6837158203125,0.7324218153953552,-0.1831054538488388,0.30517578125
607813,0.0135498046875,0.7447509765625,0.6826171875,0.7934569716453552,-0.1831054538488388,0.30517578125
607846,0.0146484375,0.74365234375,0.683349609375,0.7934569716453552,-0.1831054538488388,0.30517578125
607948,0.0137939453125,0.7440185546875,0.6832275390625,0.8544921278953552,-0.1831054538488388,0.30517578125
607965,0.014892578125,0.7447509765625,0.68310546875,0.7934569716453552,-0.1220703050494194,0.3662109076976776
607982,0.0142822265625,0.7442626953125,0.6837158203125,0.7324218153953552,-0.1220703050494194,0.30517578125
608002,0.013916015625,0.743896484375,0.682373046875,0.7324218153953552,-0.1831054538488388,0.30517578125
608067,0.013427734375,0.744140625,0.683349609375,0.7934569716453552,-0.2441406100988388,0.3662109076976776
608129,0.0135498046875,0.7447509765625,0.683349609375,0.8544921278953552,-0.2441406100988388,0.30517578125
608146,0.0142822265625,0.7445068359375,0.68359375,0.7934569716453552,-0.1831054538488388,0.30517578125
608163,0.0150146484375,0.744140625,0.6824951171875,0.7934569716453552,-0.1831054538488388,0.30517578125
608183,0.014404296875,0.7447509765625,0.68359375,0.7934569716453552,-0.1831054538488388,0.2441406100988388
608200,0.013916015625,0.7449951171875,0.6837158203125,0.7934569716453552,-0.1831054538488388,0.30517578125
608217,0.0146484375,0.7449951171875,0.6832275390625,0.8544921278953552,-0.1831054538488388,0.30517578125
608233,0.0146484375,0.7449951171875,0.682861328125,0.7934569716453552,-0.1220703050494194,0.2441406100988388
608249,0.013916015625,0.7452392578125,0.6827392578125,0.7934569716453552,-0.1831054538488388,0.30517578125
608265,0.0145263671875,0.743408203125,0.6832275390625,0.7934569716453552,-0.1831054538488388,0.30517578125
608293,0.014892578125,0.7449951171875,0.6824951171875,0.8544921278953552,-0.1220703050494194,0.3662109076976776
608315,0.015380859375,0.7447509765625,0.6827392578125,0.8544921278953552,-0.1831054538488388,0.30517578125
608331,0.0146484375,0.7440185546875,0.683349609375,0.8544921278953552,-0.1831054538488388,0.3662109076976776
608348,0.0146484375,0.743896484375,0.6824951171875,0.7934569716453552,-0.1831054538488388,0.30517578125
608365,0.014404296875,0.7440185546875,0.68359375,0.7934569716453552,-0.1831054538488388,0.30517578125
608431,0.013916015625,0.743896484375,0.6820068359375,0.7934569716453552,-0.1831054538488388,0.2441406100988388
608484,0.0152587890625,0.7435302734375,0.6834716796875,0.7934569716453552,-0.1831054538488388,0.30517578125
608501,0.015625,0.7445068359375,0.6834716796875,0.7934569716453552,-0.1831054538488388,0.2441406100988388
608534,0.014404296875,0.7440185546875,0.681884765625,0.7934569716453552,-0.1831054538488388,0.3662109076976776
608551,0.0142822265625,0.74462890625,0.6829833984375,0.7934569716453552,-0.2441406100988388,0.30517578125
608604,0.01513671875,0.74365234375,0.68408203125,0.7934569716453552,-0.1831054538488388,0.2441406100988388
608624,0.0150146484375,0.744140625,0.6844482421875,0.7934569716453552,-0.1831054538488388,0.2441406100988388
608644,0.0152587890625,0.74462890625,0.683837890625,0.7934569716453552,-0.2441406100988388,0.3662109076976776
608664,0.0146484375,0.743896484375,0.682861328125,0.7324218153953552,-0.1831054538488388,0.30517578125
608684,0.0145263671875,0.74462890625,0.6827392578125,0.7324218153953552,-0.1220703050494194,0.30517578125
608700,0.0145263671875,0.7449951171875,0.6826171875,0.7934569716453552,-0.1220703050494194,0.30517578125
608716,0.0147705078125,0.7445068359375,0.681884765625,0.7934569716453552,-0.1220703050494194,0.2441406100988388
608771,0.0137939453125,0.7442626953125,0.6826171875,0.8544921278953552,-0.1831054538488388,0.30517578125
608787,0.0152587890625,0.744384765625,0.68359375,0.8544921278953552,-0.1831054538488388,0.30517578125
608853,0.0146484375,0.74365234375,0.68310546875,0.7934569716453552,-0.1220703050494194,0.30517578125
608922,0.013916015625,0.744140625,0.6826171875,0.7934569716453552,-0.1831054538488388,0.30517578125
608967,0.0147705078125,0.7445068359375,0.682861328125,0.8544921278953552,-0.2441406100988388,0.2441406100988388
608984,0.013916015625,0.743896484375,0.6829833984375,0.8544921278953552,-0.2441406100988388,0.30517578125
609021,0.015625,0.7432861328125,0.68310546875,0.7324218153953552,-0.1220703050494194,0.3662109076976776
609038,0.014892578125,0.743896484375,0.6834716796875,0.7934569716453552,-0.1220703050494194,0.30517578125
609054,0.013916015625,0.745361328125,0.6837158203125,0.7934569716453552,-0.1831054538488388,0.2441406100988388
609071,0.013916015625,0.745361328125,0.6834716796875,0.7934569716453552,-0.1831054538488388,0.2441406100988388
609088,0.0137939453125,0.7449951171875,0.6829833984375,0.7934569716453552,-0.1831054538488388,0.30517578125
609109,0.0150146484375,0.7440185546875,0.68408203125,0.7934569716453552,-0.1220703050494194,0.3662109076976776
609125,0.013916015625,0.7447509765625,0.6824951171875,0.7324218153953552,-0.1220703050494194,0.3662109076976776
609193,0.01513671875,0.7452392578125,0.6837158203125,0.7934569716453552,-0.1831054538488388,0.1831054538488388
609209,0.0146484375,0.745361328125,0.6832275390625,0.8544921278953552,-0.1831054538488388,0.2441406100988388
609226,0.014404296875,0.74365234375,0.684326171875,0.7934569716453552,-0.1220703050494194,0.30517578125
609258,0.015380859375,0.744384765625,0.68310546875,0.8544921278953552,-0.1220703050494194,0.30517578125
609274,0.0147705078125,0.7451171875,0.68408203125,0.8544921278953552,-0.1220703050494194,0.30517578125
609290,0.0146484375,0.7454833984375,0.6845703125,0.8544921278953552,-0.1831054538488388,0.30517578125
609306,0.0142822265625,0.7452392578125,0.683349609375,0.7934569716453552,-0.1831054538488388,0.30517578125
609326,0.01416015625,0.74462890625,0.6826171875,0.7934569716453552,-0.1831054538488388,0.2441406100988388
609348,0.0147705078125,0.7449951171875,0.682373046875,0.7934569716453552,-0.1220703050494194,0.2441406100988388
609364,0.0150146484375,0.7452392578125,0.6837158203125,0.7934569716453552,-0.1831054538488388,0.30517578125
609381,0.0142822265625,0.744384765625,0.6849365234375,0.7934569716453552,-0.2441406100988388,0.3662109076976776
609431,0.013916015625,0.743896484375,0.6829833984375,0.8544921278953552,-0.2441406100988388,0.30517578125
609480,0.0150146484375,0.7437744140625,0.6832275390625,0.7934569716453552,-0.1831054538488388,0.2441406100988388
609512,0.0145263671875,0.7445068359375,0.6832275390625,0.7934569716453552,-0.1831054538488388,0.2441406100988388
609529,0.0142822265625,0.7437744140625,0.683837890625,0.7934569716453552,-0.1831054538488388,0.30517578125
609546,0.014892578125,0.7427978515625,0.6837158203125,0.7934569716453552,-0.1220703050494194,0.30517578125
609596,0.01416015625,0.7442626953125,0.684326171875,0.7934569716453552,-0.1831054538488388,0.3662109076976776
609627,0.014404296875,0.744384765625,0.683837890625,0.8544921278953552,-0.0610351525247097,0.30517578125
609644,0.01416015625,0.7449951171875,0.683349609375,0.8544921278953552,-0.1831054538488388,0.30517578125
609677,0.0145263671875,0.7427978515625,0.6844482421875,0.7934569716453552,-0.1831054538488388,0.3662109076976776
609694,0.0145263671875,0.7435302734375,0.68408203125,0.8544921278953552,-0.2441406100988388,0.30517578125
609710,0.014404296875,0.743896484375,0.6827392578125,0.7324218153953552,-0.1220703050494194,0.2441406100988388
609726,0.014404296875,0.743408203125,0.6832275390625,0.7324218153953552,-0.1831054538488388,0.30517578125
609746,0.014404296875,0.74365234375,0.68310546875,0.7934569716453552,-0.1220703050494194,0.30517578125
609762,0.014892578125,0.7442626953125,0.683837890625,0.7934569716453552,-0.1220703050494194,0.30517578125
609778,0.013671875,0.7447509765625,0.6829833984375,0.7934569716453552,-0.1831054538488388,0.30517578125
609795,0.0130615234375,0.74462890625,0.6832275390625,0.7934569716453552,-0.2441406100988388,0.30517578125
609816,0.0140380859375,0.74462890625,0.6829833984375,0.8544921278953552,-0.1831054538488388,0.30517578125
609832,0.01416015625,0.7440185546875,0.6826171875,0.7934569716453552,-0.1220703050494194,0.2441406100988388
609849,0.0146484375,0.7440185546875,0.6834716796875,0.7934569716453552,-0.1220703050494194,0.2441406100988388
609866,0.014892578125,0.7445068359375,0.6832275390625,0.7934569716453552,-0.1831054538488388,0.30517578125
609882,0.0147705078125,0.744873046875,0.6824951171875,0.7934569716453552,-0.1831054538488388,0.30517578125
609912,0.0145263671875,0.7432861328125,0.68359375,0.7934569716453552,-0.1831054538488388,0.30517578125
609928,0.01513671875,0.74365234375,0.6834716796875,0.7934569716453552,-0.1831054538488388,0.2441406100988388
609976,0.013671875,0.7440185546875,0.68310546875,0.7934569716453552,-0.1831054538488388,0.3662109076976776
609997,0.01416015625,0.74365234375,0.6829833984375,0.8544921278953552,-0.1831054538488388,0.30517578125
610013,0.0150146484375,0.7447509765625,0.683349609375,0.7934569716453552,-0.1831054538488388,0.3662109076976776
610034,0.0140380859375,0.744140625,0.6844482421875,0.7324218153953552,-0.1220703050494194,0.30517578125
610051,0.0142822265625,0.7440185546875,0.6842041015625,0.7934569716453552,-0.1831054538488388,0.30517578125
610071,0.015380859375,0.74365234375,0.6832275390625,0.7934569716453552,-0.1831054538488388,0.30517578125
610092,0.0146484375,0.7435302734375,0.682373046875,0.7934569716453552,-0.1831054538488388,0.30517578125
610108,0.0137939453125,0.7442626953125,0.6832275390625,0.7324218153953552,-0.1831054538488388,0.30517578125
610124,0.013671875,0.744384765625,0.6834716796875,0.7324218153953552,-0.2441406100988388,0.30517578125
610156,0.01416015625,0.74365234375,0.683349609375,0.8544921278953552,-0.1831054538488388,0.30517578125
610178,0.014892578125,0.7435302734375,0.6839599609375,0.7934569716453552,-0.1831054538488388,0.2441406100988388
610211,0.014404296875,0.744384765625,0.68310546875,0.7934569716453552,-0.1831054538488388,0.1831054538488388
610228,0.01416015625,0.744140625,0.68359375,0.7934569716453552,-0.2441406100988388,0.30517578125
610244,0.0145263671875,0.7445068359375,0.6834716796875,0.7324218153953552,-0.1831054538488388,0.30517578125
610278,0.0140380859375,0.7431640625,0.683349609375,0.7934569716453552,-0.1831054538488388,0.2441406100988388
610294,0.01416015625,0.743408203125,0.68310546875,0.7934569716453552,-0.1831054538488388,0.2441406100988388
610326,0.0147705078125,0.7440185546875,0.6839599609375,0.7324218153953552,-0.1220703050494194,0.30517578125
610351,0.0135498046875,0.744140625,0.684326171875,0.7324218153953552,-0.1831054538488388,0.2441406100988388
610367,0.013427734375,0.743896484375,0.6832275390625,0.7934569716453552,-0.2441406100988388,0.30517578125
610384,0.014404296875,0.7437744140625,0.6839599609375,0.7934569716453552,-0.1831054538488388,0.30517578125
610401,0.0145263671875,0.7442626953125,0.6837158203125,0.7934569716453552,-0.1831054538488388,0.30517578125
610417,0.013916015625,0.744384765625,0.6839599609375,0.7324218153953552,-0.1831054538488388,0.2441406100988388
610451,0.0145263671875,0.7445068359375,0.683837890625,0.7934569716453552,-0.1831054538488388,0.30517578125
610468,0.0140380859375,0.74462890625,0.6829833984375,0.7934569716453552,-0.1831054538488388,0.30517578125
610489,0.0142822265625,0.744873046875,0.6827392578125,0.7934569716453552,-0.1831054538488388,0.30517578125
610505,0.0142822265625,0.743896484375,0.6842041015625,0.7934569716453552,-0.1220703050494194,0.2441406100988388
610522,0.0142822265625,0.7432861328125,0.6824951171875,0.7934569716453552,-0.1831054538488388,0.30517578125
610539,0.0152587890625,0.7445068359375,0.6822509765625,0.7934569716453552,-0.2441406100988388,0.30517578125
610572,0.0140380859375,0.7447509765625,0.6837158203125,0.7324218153953552,-0.2441406100988388,0.30517578125
610589,0.01416015625,0.745361328125,0.68310546875,0.7934569716453552,-0.2441406100988388,0.2441406100988388
610605,0.0140380859375,0.7447509765625,0.6842041015625,0.7934569716453552,-0.1831054538488388,0.2441406100988388
610633,0.0145263671875,0.7432861328125,0.6826171875,0.8544921278953552,-0.1831054538488388,0.30517578125
610655,0.0150146484375,0.7432861328125,0.6829833984375,0.7934569716453552,-0.1831054538488388,0.30517578125
610671,0.013916015625,0.744140625,0.6844482421875,0.7324218153953552,-0.1831054538488388,0.30517578125
610688,0.0140380859375,0.7449951171875,0.6837158203125,0.7934569716453552,-0.1831054538488388,0.30517578125
610754,0.0142822265625,0.74365234375,0.6839599609375,0.7934569716453552,-0.2441406100988388,0.30517578125
610771,0.0142822265625,0.743408203125,0.6832275390625,0.7934569716453552,-0.1831054538488388,0.3662109076976776
610787,0.013916015625,0.7435302734375,0.6832275390625,0.7934569716453552,-0.1831054538488388,0.3662109076976776
610823,0.0147705078125,0.7435302734375,0.682861328125,0.7934569716453552,-0.2441406100988388,0.2441406100988388
610839,0.013916015625,0.74365234375,0.6834716796875,0.7934569716453552,-0.1831054538488388,0.30517578125
610855,0.013671875,0.7442626953125,0.6844482421875,0.7934569716453552,-0.1220703050494194,0.30517578125
610871,0.0140380859375,0.743896484375,0.6844482421875,0.7324218153953552,-0.1220703050494194,0.2441406100988388
610888,0.0147705078125,0.7430419921875,0.6837158203125,0.7934569716453552,-0.1831054538488388,0.30517578125
610909,0.0137939453125,0.744140625,0.683349609375,0.7934569716453552,-0.1831054538488388,0.2441406100988388
610925,0.014892578125,0.7445068359375,0.683837890625,0.7934569716453552,-0.1831054538488388,0.30517578125
610942,0.014404296875,0.744140625,0.68408203125,0.7324218153953552,-0.1220703050494194,0.3662109076976776
610959,0.014892578125,0.74365234375,0.683837890625,0.7934569716453552,-0.1831054538488388,0.2441406100988388
610992,0.0152587890625,0.74462890625,0.68359375,0.7934569716453552,-0.1831054538488388,0.30517578125
611009,0.0147705078125,0.7440185546875,0.683837890625,0.7934569716453552,-0.1831054538488388,0.30517578125
611025,0.013427734375,0.742919921875,0.6832275390625,0.7934569716453552,-0.1831054538488388,0.3662109076976776
611053,0.01416015625,0.7437744140625,0.683349609375,0.8544921278953552,-0.1831054538488388,0.30517578125
611075,0.0145263671875,0.7442626953125,0.682373046875,0.8544921278953552,-0.1831054538488388,0.30517578125
611091,0.01416015625,0.74365234375,0.6839599609375,0.7324218153953552,-0.1831054538488388,0.30517578125
611108,0.01416015625,0.74365234375,0.684326171875,0.7324218153953552,-0.1831054538488388,0.2441406100988388
611125,0.0145263671875,0.74365234375,0.683837890625,0.7934569716453552,-0.1831054538488388,0.1831054538488388
611141,0.0137939453125,0.7442626953125,0.683837890625,0.8544921278953552,-0.1831054538488388,0.2441406100988388
611174,0.0146484375,0.743896484375,0.68359375,0.7934569716453552,-0.1831054538488388,0.30517578125
611196,0.01513671875,0.7432861328125,0.683837890625,0.8544921278953552,-0.1831054538488388,0.30517578125
611212,0.0147705078125,0.74462890625,0.68310546875,0.7934569716453552,-0.1831054538488388,0.2441406100988388
611229,0.0147705078125,0.7451171875,0.681884765625,0.7934569716453552,-0.2441406100988388,0.30517578125
611246,0.0142822265625,0.7437744140625,0.682861328125,0.8544921278953552,-0.1831054538488388,0.30517578125
611262,0.012939453125,0.7430419921875,0.684814453125,0.8544921278953552,-0.1831054538488388,0.30517578125
611296,0.014892578125,0.7440185546875,0.68408203125,0.8544921278953552,-0.1831054538488388,0.30517578125
611312,0.0146484375,0.743896484375,0.6832275390625,0.8544921278953552,-0.1831054538488388,0.30517578125
611364,0.0146484375,0.7435302734375,0.68408203125,0.7934569716453552,-0.1831054538488388,0.30517578125
611380,0.0155029296875,0.744384765625,0.6832275390625,0.7934569716453552,-0.1831054538488388,0.30517578125
611396,0.015380859375,0.7442626953125,0.6834716796875,0.8544921278953552,-0.1831054538488388,0.30517578125
611412,0.0150146484375,0.7435302734375,0.6846923828125,0.8544921278953552,-0.1831054538488388,0.30517578125
611460,0.0150146484375,0.744140625,0.684326171875,0.7934569716453552,-0.1831054538488388,0.30517578125
611546,0.013427734375,0.7442626953125,0.6832275390625,0.7324218153953552,-0.1831054538488388,0.3662109076976776
611563,0.014404296875,0.7440185546875,0.68310546875,0.7934569716453552,-0.2441406100988388,0.3662109076976776
611596,0.0147705078125,0.7445068359375,0.6832275390625,0.7934569716453552,-0.1831054538488388,0.30517578125
611612,0.013916015625,0.7437744140625,0.6837158203125,0.7934569716453552,-0.1831054538488388,0.2441406100988388
611629,0.013916015625,0.743408203125,0.6832275390625,0.7934569716453552,-0.1831054538488388,0.2441406100988388
611645,0.0147705078125,0.7442626953125,0.6829833984375,0.7934569716453552,-0.1831054538488388,0.2441406100988388
611665,0.01513671875,0.7440185546875,0.6837158203125,0.7324218153953552,-0.1831054538488388,0.30517578125
611713,0.0164794921875,0.7432861328125,0.6839599609375,0.7934569716453552,-0.1831054538488388,0.30517578125
611730,0.0159912109375,0.7430419921875,0.68359375,0.7934569716453552,-0.1831054538488388,0.30517578125
611751,0.0142822265625,0.7442626953125,0.6824951171875,0.8544921278953552,-0.1831054538488388,0.2441406100988388
611767,0.0155029296875,0.744384765625,0.6834716796875,0.8544921278953552,-0.1220703050494194,0.2441406100988388
611817,0.0155029296875,0.74462890625,0.6837158203125,0.7324218153953552,-0.1831054538488388,0.30517578125
611851,0.0147705078125,0.744140625,0.68359375,0.7934569716453552,-0.1831054538488388,0.30517578125
611868,0.01416015625,0.7440185546875,0.6832275390625,0.7934569716453552,-0.1220703050494194,0.30517578125
611884,0.01513671875,0.7449951171875,0.6824951171875,0.7934569716453552,-0.1831054538488388,0.30517578125
611903,0.0152587890625,0.745361328125,0.6829833984375,0.7324218153953552,-0.1831054538488388,0.30517578125
611920,0.0150146484375,0.744384765625,0.68310546875,0.7324218153953552,-0.2441406100988388,0.30517578125
611936,0.0150146484375,0.7432861328125,0.68408203125,0.7934569716453552,-0.2441406100988388,0.30517578125
611952,0.0150146484375,0.742919921875,0.68408203125,0.7934569716453552,-0.1831054538488388,0.30517578125
611968,0.0142822265625,0.7440185546875,0.6844482421875,0.7934569716453552,-0.1831054538488388,0.2441406100988388
611984,0.01318359375,0.743896484375,0.6824951171875,0.7934569716453552,-0.0610351525247097,0.30517578125
612016,0.014404296875,0.7445068359375,0.6839599609375,0.7934569716453552,-0.1831054538488388,0.30517578125
612032,0.01416015625,0.744140625,0.68310546875,0.7934569716453552,-0.1831054538488388,0.30517578125
612048,0.0147705078125,0.7435302734375,0.6824951171875,0.7934569716453552,-0.1831054538488388,0.30517578125
612064,0.0137939453125,0.743896484375,0.68359375,0.7934569716453552,-0.1831054538488388,0.3662109076976776
612121,0.0142822265625,0.74365234375,0.6844482421875,0.7934569716453552,-0.1831054538488388,0.2441406100988388
612175,0.0150146484375,0.7449951171875,0.6834716796875,0.7934569716453552,-0.1831054538488388,0.30517578125
612267,0.01416015625,0.7435302734375,0.68408203125,0.8544921278953552,-0.1831054538488388,0.30517578125
612284,0.0147705078125,0.7435302734375,0.68408203125,0.8544921278953552,-0.1220703050494194,0.30517578125
612317,0.0147705078125,0.7440185546875,0.68408203125,0.7324218153953552,-0.1831054538488388,0.3662109076976776
612334,0.0145263671875,0.7447509765625,0.6849365234375,0.6713866591453552,-0.1831054538488388,0.30517578125
612350,0.0140380859375,0.7442626953125,0.684814453125,0.7934569716453552,-0.1220703050494194,0.30517578125
612366,0.01416015625,0.744140625,0.684326171875,0.7324218153953552,-0.1220703050494194,0.2441406100988388
612386,0.013916015625,0.74365234375,0.6834716796875,0.7324218153953552,-0.2441406100988388,0.30517578125
612402,0.013916015625,0.744140625,0.683837890625,0.7324218153953552,-0.2441406100988388,0.30517578125
612434,0.0147705078125,0.74462890625,0.6837158203125,0.7324218153953552,-0.1220703050494194,0.2441406100988388
612456,0.01513671875,0.74365234375,0.6829833984375,0.7324218153953552,-0.1220703050494194,0.2441406100988388
612472,0.014892578125,0.7435302734375,0.6837158203125,0.7324218153953552,-0.2441406100988388,0.30517578125
612489,0.013427734375,0.7445068359375,0.683837890625,0.7324218153953552,-0.2441406100988388,0.2441406100988388
612506,0.0140380859375,0.7440185546875,0.6834716796875,0.6713866591453552,-0.2441406100988388,0.2441406100988388
612522,0.0142822265625,0.743896484375,0.684326171875,0.7324218153953552,-0.2441406100988388,0.30517578125
612555,0.0150146484375,0.74365234375,0.6834716796875,0.7324218153953552,-0.1220703050494194,0.2441406100988388
612604,0.01513671875,0.744140625,0.6824951171875,0.7324218153953552,-0.1220703050494194,0.2441406100988388
612688,0.0145263671875,0.744873046875,0.6827392578125,0.7324218153953552,-0.1831054538488388,0.2441406100988388
612709,0.0140380859375,0.7447509765625,0.683837890625,0.7934569716453552,-0.1831054538488388,0.30517578125
612725,0.0140380859375,0.7430419921875,0.684326171875,0.7324218153953552,-0.1831054538488388,0.3662109076976776
612775,0.0150146484375,0.7442626953125,0.6827392578125,0.7324218153953552,-0.2441406100988388,0.30517578125
612807,0.0130615234375,0.744140625,0.6824951171875,0.7324218153953552,-0.1220703050494194,0.30517578125
612859,0.015625,0.7432861328125,0.6834716796875,0.7324218153953552,-0.1831054538488388,0.2441406100988388
612940,0.014892578125,0.744140625,0.6839599609375,0.7934569716453552,-0.2441406100988388,0.3662109076976776
612985,0.0135498046875,0.7445068359375,0.682373046875,0.7324218153953552,-0.2441406100988388,0.30517578125
613002,0.014892578125,0.7432861328125,0.6824951171875,0.7324218153953552,-0.1831054538488388,0.2441406100988388
613035,0.0137939453125,0.743896484375,0.684814453125,0.6713866591453552,-0.1831054538488388,0.30517578125
613068,0.0146484375,0.7427978515625,0.6846923828125,0.4882812201976776,-0.1831054538488388,0.30517578125
613111,0.013916015625,0.7420654296875,0.684326171875,0.1831054538488388,-0.1831054538488388,0.30517578125
613128,0.0157470703125,0.7408447265625,0.68603515625,0.0,-0.1831054538488388,0.30517578125
613144,0.01416015625,0.7388916015625,0.6871337890625,-0.3662109076976776,-0.1831054538488388,0.30517578125
613163,0.0145263671875,0.7357177734375,0.6925048828125,-1.0986328125,-0.2441406100988388,0.30517578125
613180,0.015869140625,0.73583984375,0.6904296875,-2.13623046875,-0.30517578125,0.3662109076976776
613196,0.0146484375,0.740234375,0.684814453125,-2.563476324081421,-0.30517578125,0.30517578125
613211,0.013671875,0.7413330078125,0.6829833984375,-3.295898199081421,-0.30517578125,0.4272460639476776
613265,0.014892578125,0.738525390625,0.6888427734375,-5.310058116912842,-0.2441406100988388,0.6103515625
613291,0.0142822265625,0.744140625,0.6812744140625,-6.286620616912842,-0.3662109076976776,0.6103515625
613308,0.0137939453125,0.7469482421875,0.6767578125,-7.080077648162842,-0.30517578125,0.6103515625
613325,0.013671875,0.747314453125,0.67626953125,-7.751464366912842,-0.2441406100988388,0.6713866591453552
613374,0.01416015625,0.7540283203125,0.6717529296875,-9.46044921875,-0.3662109076976776,0.7324218153953552
613407,0.013916015625,0.7596435546875,0.664794921875,-10.131834983825684,-0.30517578125,0.7934569716453552
613424,0.013916015625,0.7607421875,0.66259765625,-10.620116233825684,-0.3662109076976776,0.7934569716453552
613457,0.01220703125,0.7686767578125,0.6546630859375,-10.925292015075684,-0.30517578125,0.8544921278953552
613474,0.0118408203125,0.7728271484375,0.651123046875,-10.986327171325684,-0.3662109076976776,0.8544921278953552
613490,0.0125732421875,0.773681640625,0.6470947265625,-10.925292015075684,-0.3662109076976776,0.8544921278953552
613506,0.0126953125,0.7740478515625,0.6453857421875,-10.925292015075684,-0.3662109076976776,0.7934569716453552
613560,0.0128173828125,0.783447265625,0.636962890625,-10.864256858825684,-0.3662109076976776,0.7934569716453552
613586,0.0120849609375,0.784912109375,0.6328125,-10.864256858825684,-0.3662109076976776,0.7934569716453552
613603,0.011474609375,0.78662109375,0.6322021484375,-10.864256858825684,-0.3662109076976776,0.7934569716453552
613636,0.01220703125,0.79150390625,0.6248779296875,-10.925292015075684,-0.4272460639476776,0.7934569716453552
613653,0.0126953125,0.7928466796875,0.623046875,-11.047362327575684,-0.4272460639476776,0.7934569716453552
613670,0.01123046875,0.7950439453125,0.6217041015625,-11.108397483825684,-0.3662109076976776,0.7934569716453552
613686,0.0106201171875,0.7957763671875,0.619384765625,-11.169432640075684,-0.4272460639476776,0.7934569716453552
613704,0.0106201171875,0.79833984375,0.6146240234375,-11.291502952575684,-0.4272460639476776,0.8544921278953552
613773,0.010498046875,0.805908203125,0.6038818359375,-11.596678733825684,-0.4272460639476776,0.7934569716453552
613833,0.0098876953125,0.8138427734375,0.594482421875,-11.779784202575684,-0.3662109076976776,0.8544921278953552
613849,0.0093994140625,0.8150634765625,0.5911865234375,-11.840819358825684,-0.3662109076976776,0.7934569716453552
613870,0.0103759765625,0.81787109375,0.58740234375,-11.901854515075684,-0.3662109076976776,0.8544921278953552
613887,0.0089111328125,0.8209228515625,0.583251953125,-11.962889671325684,-0.3662109076976776,0.8544921278953552
613903,0.0089111328125,0.822509765625,0.580322265625,-11.962889671325684,-0.3662109076976776,0.8544921278953552
613935,0.0103759765625,0.826904296875,0.5748291015625,-12.207030296325684,-0.4272460639476776,0.9155272841453552
613984,0.0086669921875,0.833251953125,0.5662841796875,-12.451170921325684,-0.4882812201976776,0.8544921278953552
614005,0.00830078125,0.8355712890625,0.561767578125,-12.573241233825684,-0.4272460639476776,0.8544921278953552
614055,0.0072021484375,0.8409423828125,0.5521240234375,-12.878417015075684,-0.3662109076976776,0.9155272841453552
614187,0.0064697265625,0.856689453125,0.5245361328125,-13.549803733825684,-0.54931640625,0.9155272841453552
614204,0.0054931640625,0.860107421875,0.5198974609375,-13.671874046325684,-0.4882812201976776,0.9155272841453552
614241,0.006103515625,0.863525390625,0.51318359375,-13.671874046325684,-0.3662109076976776,0.9155272841453552
614274,0.0052490234375,0.8668212890625,0.50634765625,-13.854979515075684,-0.4272460639476776,0.9765624403953552
614307,0.0042724609375,0.8729248046875,0.4976806640625,-13.854979515075684,-0.4882812201976776,0.9765624403953552
614324,0.0050048828125,0.8690185546875,0.5008544921875,-13.916014671325684,-0.4882812201976776,0.9155272841453552
614361,0.0023193359375,0.8857421875,0.4736328125,-14.343260765075684,-0.4272460639476776,0.9765624403953552
614394,0.0040283203125,0.8765869140625,0.4849853515625,-13.793944358825684,-0.3662109076976776,0.9765624403953552
614608,0.001708984375,0.9066162109375,0.42626953125,-16.2353515625,-0.4882812201976776,1.03759765625
614625,0.0008544921875,0.9088134765625,0.4215087890625,-16.2353515625,-0.4882812201976776,1.0986328125
614642,0.00048828125,0.9095458984375,0.4166259765625,-16.29638671875,-0.4882812201976776,0.9765624403953552
614695,-0.000244140625,0.9178466796875,0.4000244140625,-16.17431640625,-0.4882812201976776,0.9765624403953552
614727,0.000244140625,0.9212646484375,0.3902587890625,-16.11328125,-0.4272460639476776,1.03759765625
614744,-0.0001220703125,0.922607421875,0.38525390625,-15.869139671325684,-0.4882812201976776,1.03759765625
614777,0.002197265625,0.9217529296875,0.3883056640625,-16.05224609375,-0.6713866591453552,0.8544921278953552
614810,-0.0035400390625,0.9395751953125,0.345947265625,-15.258788108825684,-0.4272460639476776,0.9765624403953552
614852,0.005126953125,0.928955078125,0.3739013671875,-15.930174827575684,-0.4272460639476776,0.9765624403953552
614869,0.0020751953125,0.9339599609375,0.3529052734375,-16.05224609375,-0.6103515625,0.9765624403953552
614886,-0.0064697265625,0.9407958984375,0.33837890625,-15.991209983825684,-0.54931640625,1.03759765625
614935,0.000244140625,0.93603515625,0.346435546875,-15.136717796325684,-0.4272460639476776,0.9765624403953552
614968,-0.00439453125,0.941650390625,0.3311767578125,-15.380858421325684,-0.6103515625,0.9155272841453552
615022,-0.003173828125,0.9393310546875,0.3370361328125,-15.502928733825684,-0.4272460639476776,1.03759765625
615039,-0.004638671875,0.9486083984375,0.3116455078125,-15.869139671325684,-0.4882812201976776,1.0986328125
615055,-0.0048828125,0.951904296875,0.2996826171875,-15.930174827575684,-0.4882812201976776,1.03759765625
615072,-0.003662109375,0.95263671875,0.3013916015625,-16.05224609375,-0.3662109076976776,1.03759765625
615088,-0.0008544921875,0.94921875,0.3074951171875,-16.357421875,-0.54931640625,1.03759765625
615104,-0.005126953125,0.9527587890625,0.2938232421875,-16.6015625,-0.4882812201976776,0.9765624403953552
615134,-0.0050048828125,0.9571533203125,0.2794189453125,-16.66259765625,-0.4882812201976776,1.0986328125
615155,-0.00341796875,0.956298828125,0.283203125,-16.7236328125,-0.4882812201976776,1.0986328125
615171,-0.0048828125,0.95849609375,0.27783203125,-17.02880859375,-0.4882812201976776,1.0986328125
615192,-0.0047607421875,0.9583740234375,0.2733154296875,-17.27294921875,-0.54931640625,1.03759765625
615212,-0.005615234375,0.9615478515625,0.2618408203125,-17.4560546875,-0.4882812201976776,1.03759765625
615246,-0.0050048828125,0.96337890625,0.253662109375,-17.822265625,-0.4272460639476776,1.0986328125
615266,-0.0062255859375,0.9652099609375,0.2452392578125,-18.00537109375,-0.4882812201976776,1.15966796875
615282,-0.0059814453125,0.96630859375,0.2423095703125,-18.06640625,-0.4882812201976776,1.15966796875
615298,-0.0057373046875,0.9676513671875,0.236572265625,-18.1884765625,-0.54931640625,1.0986328125
615314,-0.0069580078125,0.9691162109375,0.2308349609375,-18.24951171875,-0.4882812201976776,1.0986328125
615330,-0.007568359375,0.9700927734375,0.2274169921875,-18.4326171875,-0.54931640625,1.03759765625
615346,-0.0068359375,0.9715576171875,0.22021484375,-18.61572265625,-0.54931640625,1.0986328125
615378,-0.0068359375,0.9725341796875,0.21142578125,-18.73779296875,-0.4272460639476776,1.15966796875
615426,-0.0074462890625,0.97509765625,0.193115234375,-19.1650390625,-0.4882812201976776,1.15966796875
615448,-0.0084228515625,0.9775390625,0.18798828125,-19.22607421875,-0.4882812201976776,1.15966796875
615465,-0.0091552734375,0.9783935546875,0.181396484375,-19.4091796875,-0.54931640625,1.15966796875
615482,-0.0091552734375,0.97900390625,0.1771240234375,-19.53125,-0.54931640625,1.0986328125
615533,-0.010498046875,0.9815673828125,0.159423828125,-19.83642578125,-0.54931640625,1.220703125
615565,-0.0101318359375,0.9827880859375,0.14697265625,-19.95849609375,-0.54931640625,1.15966796875
615582,-0.009765625,0.983642578125,0.141845703125,-20.141599655151367,-0.54931640625,1.220703125
615615,-0.011962890625,0.9833984375,0.12646484375,-20.263669967651367,-0.4882812201976776,1.220703125
615632,-0.012451171875,0.9844970703125,0.12255859375,-20.324705123901367,-0.54931640625,1.15966796875
615649,-0.0107421875,0.987548828125,0.1158447265625,-20.263669967651367,-0.54931640625,1.220703125
615682,-0.0128173828125,0.986083984375,0.104736328125,-20.263669967651367,-0.54931640625,1.15966796875
615744,-0.0126953125,0.989013671875,0.084228515625,-20.080564498901367,-0.54931640625,1.15966796875
615761,-0.013427734375,0.9898681640625,0.072509765625,-19.83642578125,-0.4882812201976776,1.15966796875
615794,-0.0126953125,0.9912109375,0.060791015625,-19.1650390625,-0.4882812201976776,1.0986328125
615862,-0.017578125,0.990478515625,0.025390625,-19.83642578125,-0.30517578125,1.15966796875
615899,-0.0140380859375,0.9892578125,0.0416259765625,-20.324705123901367,-0.54931640625,1.15966796875
615925,-0.014404296875,0.991943359375,0.020751953125,-20.874021530151367,-0.7324218153953552,1.2817381620407104
615942,-0.0159912109375,0.9908447265625,-0.0023193359375,-20.385740280151367,-0.6713866591453552,1.15966796875
615973,-0.015869140625,0.9912109375,-0.0003662109375,-19.8974609375,-0.4882812201976776,1.0986328125
615990,-0.0155029296875,0.9896240234375,0.002197265625,-20.080564498901367,-0.4882812201976776,1.15966796875
616007,-0.0172119140625,0.9910888671875,-0.01025390625,-20.202634811401367,-0.6103515625,1.220703125
616043,-0.0162353515625,0.9903564453125,-0.029541015625,-19.8974609375,-0.6103515625,1.220703125
616075,-0.0186767578125,0.98974609375,-0.0379638671875,-19.53125,-0.4882812201976776,1.15966796875
616170,-0.0191650390625,0.988037109375,-0.065185546875,-18.37158203125,-0.54931640625,1.15966796875
616204,-0.018798828125,0.9859619140625,-0.08154296875,-18.24951171875,-0.54931640625,1.0986328125
616365,-0.0223388671875,0.980712890625,-0.1361083984375,-15.136717796325684,-0.4272460639476776,0.9765624403953552
616410,-0.0184326171875,0.977783203125,-0.1314697265625,-13.366698265075684,-0.3662109076976776,0.9765624403953552
616444,-0.0286865234375,0.9739990234375,-0.156494140625,-14.221190452575684,-0.8544921278953552,1.03759765625
616468,-0.0206298828125,0.975341796875,-0.166259765625,-13.488768577575684,-0.54931640625,0.9155272841453552
616485,-0.02001953125,0.9732666015625,-0.16455078125,-12.817381858825684,-0.3662109076976776,0.8544921278953552
616502,-0.0235595703125,0.9736328125,-0.16064453125,-12.512206077575684,-0.30517578125,0.9155272841453552
616553,-0.0228271484375,0.9739990234375,-0.1768798828125,-11.840819358825684,-0.4882812201976776,0.8544921278953552
616585,-0.0240478515625,0.970458984375,-0.1802978515625,-11.169432640075684,-0.4272460639476776,0.8544921278953552
616635,-0.0228271484375,0.9698486328125,-0.1905517578125,-10.070799827575684,-0.3662109076976776,0.7934569716453552
616652,-0.02294921875,0.9691162109375,-0.1953125,-9.6435546875,-0.30517578125,0.7324218153953552
616669,-0.023193359375,0.9676513671875,-0.19677734375,-9.1552734375,-0.30517578125,0.7324218153953552
616685,-0.0234375,0.967529296875,-0.1995849609375,-8.9111328125,-0.3662109076976776,0.7324218153953552
616738,-0.023193359375,0.9652099609375,-0.211181640625,-7.385253429412842,-0.4272460639476776,0.6713866591453552
616764,-0.0277099609375,0.9644775390625,-0.2117919921875,-6.530761241912842,-0.1220703050494194,0.6103515625
616781,-0.0234375,0.9632568359375,-0.2080078125,-6.286620616912842,-0.1831054538488388,0.54931640625
616814,-0.0216064453125,0.961181640625,-0.2152099609375,-5.432128429412842,-0.30517578125,0.54931640625
616831,-0.02978515625,0.963623046875,-0.21826171875,-4.94384765625,-0.2441406100988388,0.4882812201976776
616884,-0.024169921875,0.963134765625,-0.219482421875,-3.601073980331421,-0.30517578125,0.54931640625
616900,-0.0272216796875,0.9603271484375,-0.2242431640625,-2.990722417831421,-0.3662109076976776,0.4882812201976776
616932,-0.0238037109375,0.9610595703125,-0.2291259765625,-1.9531248807907104,-0.1831054538488388,0.3662109076976776
616980,-0.026123046875,0.9588623046875,-0.229736328125,-0.6103515625,-0.1831054538488388,0.3662109076976776
617029,-0.024169921875,0.9617919921875,-0.2293701171875,0.7324218153953552,-0.1220703050494194,0.30517578125
617081,-0.024658203125,0.96044921875,-0.2298583984375,2.13623046875,-0.2441406100988388,0.2441406100988388
617265,-0.02294921875,0.96240234375,-0.2139892578125,5.798339366912842,-0.1831054538488388,0.0610351525247097
617369,-0.0223388671875,0.966552734375,-0.2021484375,6.774901866912842,-0.1220703050494194,0.0610351525247097
617386,-0.023193359375,0.9661865234375,-0.2008056640625,6.774901866912842,-0.0610351525247097,0.0610351525247097
617423,-0.0233154296875,0.9677734375,-0.1947021484375,6.774901866912842,-0.0610351525247097,0.0
617567,-0.0230712890625,0.9697265625,-0.1800537109375,5.371093273162842,-0.1220703050494194,0.0610351525247097
617666,-0.0228271484375,0.970947265625,-0.172607421875,4.150390625,-0.1220703050494194,0.1831054538488388
617683,-0.0223388671875,0.9715576171875,-0.1695556640625,3.723144292831421,-0.1220703050494194,0.1220703050494194
617716,-0.0224609375,0.9703369140625,-0.168701171875,3.173827886581421,-0.1220703050494194,0.1220703050494194
617733,-0.0213623046875,0.97216796875,-0.1688232421875,2.624511480331421,-0.1831054538488388,0.1831054538488388
617749,-0.0216064453125,0.97216796875,-0.1690673828125,2.44140625,-0.2441406100988388,0.2441406100988388
617766,-0.0225830078125,0.9720458984375,-0.1693115234375,2.0751953125,-0.1220703050494194,0.2441406100988388
617820,-0.0220947265625,0.973388671875,-0.166748046875,1.3427733182907104,-0.1220703050494194,0.2441406100988388
617846,-0.022216796875,0.9720458984375,-0.1693115234375,1.03759765625,-0.2441406100988388,0.30517578125
617863,-0.0224609375,0.97216796875,-0.1712646484375,0.9155272841453552,-0.2441406100988388,0.2441406100988388
617896,-0.022216796875,0.97216796875,-0.1697998046875,0.7324218153953552,-0.1220703050494194,0.3662109076976776
617913,-0.022216796875,0.971923828125,-0.168701171875,0.4882812201976776,-0.2441406100988388,0.2441406100988388
617930,-0.0224609375,0.9718017578125,-0.169921875,0.4272460639476776,-0.2441406100988388,0.30517578125
617946,-0.0220947265625,0.9716796875,-0.1722412109375,0.4882812201976776,-0.2441406100988388,0.30517578125
617965,-0.0225830078125,0.97216796875,-0.1739501953125,0.54931640625,-0.1831054538488388,0.3662109076976776
617986,-0.0220947265625,0.973388671875,-0.1719970703125,0.54931640625,-0.1831054538488388,0.30517578125
618003,-0.021728515625,0.9730224609375,-0.171875,0.54931640625,-0.1831054538488388,0.30517578125
618024,-0.0218505859375,0.970703125,-0.1719970703125,0.54931640625,-0.1831054538488388,0.30517578125
618073,-0.0220947265625,0.972900390625,-0.1717529296875,0.54931640625,-0.1831054538488388,0.30517578125
618090,-0.022705078125,0.9727783203125,-0.1710205078125,0.54931640625,-0.1831054538488388,0.30517578125
618106,-0.0220947265625,0.97216796875,-0.1715087890625,0.4882812201976776,-0.1220703050494194,0.30517578125
618135,-0.02197265625,0.970458984375,-0.1734619140625,0.54931640625,-0.2441406100988388,0.30517578125
618190,-0.0230712890625,0.971923828125,-0.1728515625,0.6713866591453552,-0.1831054538488388,0.30517578125
618223,-0.02197265625,0.9713134765625,-0.1734619140625,0.7934569716453552,-0.1831054538488388,0.2441406100988388
618284,-0.022705078125,0.9727783203125,-0.1737060546875,0.9155272841453552,-0.1220703050494194,0.30517578125
618327,-0.0223388671875,0.9722900390625,-0.1722412109375,1.0986328125,-0.1831054538488388,0.30517578125
618344,-0.022216796875,0.97216796875,-0.1732177734375,1.0986328125,-0.1831054538488388,0.2441406100988388
618377,-0.0225830078125,0.9720458984375,-0.17138671875,1.03759765625,-0.1831054538488388,0.3662109076976776
618467,-0.02197265625,0.9725341796875,-0.172119140625,1.03759765625,-0.2441406100988388,0.30517578125
618512,-0.02197265625,0.9716796875,-0.171875,1.0986328125,-0.1220703050494194,0.1831054538488388
618529,-0.0218505859375,0.9720458984375,-0.171142578125,1.0986328125,-0.1220703050494194,0.1831054538488388
618546,-0.0223388671875,0.9727783203125,-0.17138671875,1.15966796875,-0.1831054538488388,0.30517578125
618596,-0.0234375,0.9720458984375,-0.170166015625,1.15966796875,-0.1831054538488388,0.2441406100988388
618627,-0.022216796875,0.97265625,-0.171142578125,1.15966796875,-0.1831054538488388,0.30517578125
618644,-0.0220947265625,0.972412109375,-0.1712646484375,1.15966796875,-0.2441406100988388,0.2441406100988388
618677,-0.0234375,0.972412109375,-0.16943359375,1.0986328125,-0.1831054538488388,0.30517578125
618710,-0.0228271484375,0.9722900390625,-0.1710205078125,1.0986328125,-0.1831054538488388,0.2441406100988388
618752,-0.0228271484375,0.972412109375,-0.1689453125,0.9155272841453552,-0.1831054538488388,0.2441406100988388
618769,-0.0224609375,0.9720458984375,-0.1695556640625,0.9765624403953552,-0.1831054538488388,0.2441406100988388
618786,-0.0218505859375,0.971435546875,-0.170166015625,0.9155272841453552,-0.1831054538488388,0.2441406100988388
618802,-0.021728515625,0.9716796875,-0.1700439453125,0.8544921278953552,-0.2441406100988388,0.30517578125
618819,-0.02197265625,0.972412109375,-0.1689453125,0.8544921278953552,-0.1831054538488388,0.1831054538488388
618852,-0.0230712890625,0.9718017578125,-0.1695556640625,0.7934569716453552,-0.1831054538488388,0.30517578125
618868,-0.0223388671875,0.9718017578125,-0.1690673828125,0.8544921278953552,-0.2441406100988388,0.30517578125
618914,-0.0223388671875,0.9730224609375,-0.1705322265625,0.8544921278953552,-0.1220703050494194,0.2441406100988388
618935,-0.0225830078125,0.9727783203125,-0.170166015625,0.8544921278953552,-0.1831054538488388,0.30517578125
618968,-0.0228271484375,0.9722900390625,-0.168212890625,0.8544921278953552,-0.1831054538488388,0.2441406100988388
619034,-0.0220947265625,0.9727783203125,-0.168701171875,0.7324218153953552,-0.1831054538488388,0.30517578125
619107,-0.0225830078125,0.97216796875,-0.168212890625,0.3662109076976776,-0.1220703050494194,0.30517578125
619128,-0.022216796875,0.97265625,-0.168701171875,0.30517578125,-0.2441406100988388,0.30517578125
619145,-0.02294921875,0.9713134765625,-0.16943359375,0.1831054538488388,-0.2441406100988388,0.2441406100988388
619195,-0.0230712890625,0.9718017578125,-0.17041015625,0.1220703050494194,-0.1831054538488388,0.30517578125
619289,-0.0228271484375,0.97216796875,-0.172119140625,0.1220703050494194,-0.1831054538488388,0.30517578125
619306,-0.0233154296875,0.9718017578125,-0.17236328125,0.1831054538488388,-0.1831054538488388,0.3662109076976776
619322,-0.02294921875,0.9720458984375,-0.172119140625,0.2441406100988388,-0.1831054538488388,0.30517578125
619343,-0.021484375,0.9710693359375,-0.1727294921875,0.3662109076976776,-0.1831054538488388,0.30517578125
619405,-0.0223388671875,0.971923828125,-0.1727294921875,0.3662109076976776,-0.1220703050494194,0.30517578125
619467,-0.0228271484375,0.9700927734375,-0.173583984375,0.4272460639476776,-0.1831054538488388,0.3662109076976776
619484,-0.022705078125,0.9713134765625,-0.1744384765625,0.3662109076976776,-0.1831054538488388,0.3662109076976776
619521,-0.0218505859375,0.971435546875,-0.17431640625,0.4272460639476776,-0.1831054538488388,0.30517578125
619554,-0.022705078125,0.9720458984375,-0.1749267578125,0.54931640625,-0.1831054538488388,0.3662109076976776
619667,-0.0225830078125,0.970703125,-0.1739501953125,0.8544921278953552,-0.1831054538488388,0.30517578125
619729,-0.0235595703125,0.971923828125,-0.17333984375,0.8544921278953552,-0.1831054538488388,0.30517578125
619828,-0.02294921875,0.9713134765625,-0.174072265625,0.54931640625,-0.1831054538488388,0.2441406100988388
619879,-0.0225830078125,0.9713134765625,-0.1739501953125,0.6103515625,-0.1831054538488388,0.3662109076976776
619953,-0.02197265625,0.970947265625,-0.1751708984375,0.7934569716453552,-0.1831054538488388,0.30517578125
619970,-0.0224609375,0.971435546875,-0.17529296875,0.7934569716453552,-0.1220703050494194,0.30517578125
619987,-0.022216796875,0.9718017578125,-0.1756591796875,0.7934569716453552,-0.1220703050494194,0.2441406100988388
620037,-0.022705078125,0.971923828125,-0.1744384765625,0.8544921278953552,-0.1831054538488388,0.3662109076976776
620086,-0.023681640625,0.9710693359375,-0.173583984375,0.7934569716453552,-0.1831054538488388,0.30517578125
620148,-0.023193359375,0.9715576171875,-0.175048828125,0.8544921278953552,-0.2441406100988388,0.3662109076976776
620193,-0.0218505859375,0.9716796875,-0.1732177734375,0.7934569716453552,-0.1831054538488388,0.30517578125
620227,-0.0223388671875,0.9722900390625,-0.1741943359375,0.7934569716453552,-0.1831054538488388,0.30517578125
620370,-0.0218505859375,0.9727783203125,-0.1741943359375,0.7324218153953552,-0.1831054538488388,0.30517578125
620387,-0.023193359375,0.9722900390625,-0.1748046875,0.7934569716453552,-0.1220703050494194,0.2441406100988388
620404,-0.020751953125,0.971923828125,-0.17431640625,0.7324218153953552,-0.1220703050494194,0.2441406100988388
620454,-0.0220947265625,0.9720458984375,-0.173828125,0.6103515625,-0.1831054538488388,0.2441406100988388
620548,-0.0228271484375,0.9710693359375,-0.1744384765625,0.6103515625,-0.2441406100988388,0.30517578125
620602,-0.0225830078125,0.9715576171875,-0.1749267578125,0.54931640625,-0.1831054538488388,0.30517578125
620745,-0.0220947265625,0.971435546875,-0.1749267578125,0.4882812201976776,-0.1831054538488388,0.2441406100988388
620790,-0.022705078125,0.9710693359375,-0.175537109375,0.54931640625,-0.1831054538488388,0.30517578125
620824,-0.0225830078125,0.9716796875,-0.1759033203125,0.54931640625,-0.2441406100988388,0.30517578125
620848,-0.0218505859375,0.971435546875,-0.17626953125,0.6103515625,-0.1831054538488388,0.2441406100988388
620882,-0.0225830078125,0.9710693359375,-0.1766357421875,0.6103515625,-0.1220703050494194,0.2441406100988388
620968,-0.0211181640625,0.970458984375,-0.177490234375,0.7324218153953552,-0.2441406100988388,0.3662109076976776
621002,-0.022705078125,0.9725341796875,-0.176025390625,0.7324218153953552,-0.1831054538488388,0.2441406100988388
621091,-0.0218505859375,0.971435546875,-0.1756591796875,0.8544921278953552,-0.1220703050494194,0.2441406100988388
621108,-0.0220947265625,0.9713134765625,-0.1771240234375,0.8544921278953552,-0.1220703050494194,0.2441406100988388
621125,-0.0223388671875,0.9720458984375,-0.1763916015625,0.7934569716453552,-0.1831054538488388,0.30517578125
621175,-0.0230712890625,0.9715576171875,-0.1748046875,0.8544921278953552,-0.1831054538488388,0.2441406100988388
621346,-0.022216796875,0.971435546875,-0.1778564453125,0.7934569716453552,-0.1831054538488388,0.2441406100988388
621450,-0.022216796875,0.970947265625,-0.1766357421875,0.9155272841453552,-0.1831054538488388,0.30517578125
621484,-0.0220947265625,0.9710693359375,-0.1749267578125,0.9155272841453552,-0.1831054538488388,0.30517578125
621508,-0.0238037109375,0.971435546875,-0.1768798828125,0.9155272841453552,-0.2441406100988388,0.3662109076976776
621525,-0.0228271484375,0.9710693359375,-0.1767578125,0.8544921278953552,-0.2441406100988388,0.2441406100988388
621542,-0.0223388671875,0.970458984375,-0.1767578125,0.8544921278953552,-0.2441406100988388,0.30517578125
621562,-0.02197265625,0.9713134765625,-0.1748046875,0.7934569716453552,-0.1831054538488388,0.30517578125
621579,-0.022216796875,0.9720458984375,-0.17529296875,0.7324218153953552,-0.1831054538488388,0.3662109076976776
621595,-0.022705078125,0.97021484375,-0.176025390625,0.6713866591453552,-0.1831054538488388,0.3662109076976776
621611,-0.0225830078125,0.9697265625,-0.1761474609375,0.7324218153953552,-0.1831054538488388,0.3662109076976776
621660,-0.0228271484375,0.971435546875,-0.17578125,0.7324218153953552,-0.1831054538488388,0.3662109076976776
621746,-0.0238037109375,0.970947265625,-0.1767578125,0.7934569716453552,-0.1831054538488388,0.30517578125
621783,-0.0233154296875,0.9710693359375,-0.1767578125,0.8544921278953552,-0.1831054538488388,0.30517578125
621836,-0.023193359375,0.971923828125,-0.1751708984375,0.7934569716453552,-0.1831054538488388,0.30517578125
621944,-0.023193359375,0.9715576171875,-0.176513671875,0.7324218153953552,-0.1831054538488388,0.30517578125
622047,-0.02197265625,0.9710693359375,-0.1763916015625,0.6713866591453552,-0.2441406100988388,0.30517578125
622064,-0.0223388671875,0.970458984375,-0.1763916015625,0.6713866591453552,-0.2441406100988388,0.30517578125
622097,-0.0220947265625,0.9708251953125,-0.1768798828125,0.7324218153953552,-0.2441406100988388,0.30517578125
622113,-0.0225830078125,0.9705810546875,-0.17822265625,0.7324218153953552,-0.2441406100988388,0.30517578125
622129,-0.022705078125,0.971923828125,-0.17919921875,0.9155272841453552,-0.1831054538488388,0.30517578125
622146,-0.02294921875,0.9718017578125,-0.1787109375,0.9765624403953552,-0.1220703050494194,0.30517578125
622200,-0.0225830078125,0.970458984375,-0.1796875,1.2817381620407104,-0.1220703050494194,0.30517578125
622242,-0.02197265625,0.970703125,-0.177001953125,1.7700194120407104,-0.2441406100988388,0.1831054538488388
622292,-0.0238037109375,0.97216796875,-0.177490234375,2.0751953125,-0.1220703050494194,0.1831054538488388
622309,-0.022705078125,0.9710693359375,-0.1778564453125,2.25830078125,-0.1220703050494194,0.2441406100988388
622326,-0.0225830078125,0.971435546875,-0.17724609375,2.563476324081421,-0.1220703050494194,0.1831054538488388
622376,-0.022705078125,0.97265625,-0.1761474609375,3.234863042831421,-0.1831054538488388,0.1831054538488388
622425,-0.0228271484375,0.9722900390625,-0.1732177734375,3.967284917831421,-0.1220703050494194,0.1831054538488388
622529,-0.0220947265625,0.9739990234375,-0.1639404296875,5.187987804412842,-0.1220703050494194,0.1831054538488388
622546,-0.022216796875,0.974609375,-0.163818359375,5.249022960662842,-0.1220703050494194,0.1220703050494194
622563,-0.021728515625,0.974853515625,-0.1619873046875,5.249022960662842,-0.0610351525247097,0.0610351525247097
622583,-0.022216796875,0.9744873046875,-0.1595458984375,5.310058116912842,-0.0610351525247097,0.0
622600,-0.020751953125,0.9754638671875,-0.157470703125,5.371093273162842,-0.1220703050494194,0.0610351525247097
622616,-0.0206298828125,0.9752197265625,-0.15673828125,5.432128429412842,-0.0610351525247097,0.0610351525247097
622633,-0.0218505859375,0.9752197265625,-0.1551513671875,5.432128429412842,-0.0610351525247097,0.0
622649,-0.0213623046875,0.975341796875,-0.154052734375,5.432128429412842,-0.1220703050494194,0.0610351525247097
622697,-0.0216064453125,0.975341796875,-0.148193359375,5.249022960662842,-0.1220703050494194,0.1220703050494194
622713,-0.02099609375,0.9776611328125,-0.148193359375,5.371093273162842,-0.1220703050494194,0.1220703050494194
622729,-0.0208740234375,0.976806640625,-0.1455078125,5.249022960662842,-0.1220703050494194,0.0610351525247097
622745,-0.020751953125,0.9765625,-0.144775390625,5.249022960662842,-0.1220703050494194,0.0610351525247097
622765,-0.020751953125,0.9766845703125,-0.1463623046875,5.249022960662842,-0.1220703050494194,0.1220703050494194
622787,-0.021240234375,0.9766845703125,-0.1446533203125,5.310058116912842,-0.0610351525247097,0.0
622803,-0.0220947265625,0.977783203125,-0.141845703125,5.371093273162842,-0.0610351525247097,0.0
622820,-0.0216064453125,0.9779052734375,-0.1407470703125,5.493163585662842,-0.1220703050494194,0.0610351525247097
622886,-0.021240234375,0.9781494140625,-0.1363525390625,5.554198741912842,-0.1220703050494194,0.0
623250,-0.0201416015625,0.9832763671875,-0.1070556640625,7.141112804412842,-0.0610351525247097,0.0
623267,-0.0201416015625,0.9835205078125,-0.1051025390625,7.385253429412842,-0.1220703050494194,0.0
623284,-0.0198974609375,0.98388671875,-0.101806640625,7.507323741912842,-0.1220703050494194,0.0
623301,-0.0203857421875,0.9837646484375,-0.099365234375,7.812499523162842,-0.1220703050494194,0.0
623350,-0.0191650390625,0.984130859375,-0.094482421875,8.23974609375,0.0,0.0
623486,-0.0184326171875,0.9859619140625,-0.07470703125,9.58251953125,-0.0610351525247097,-0.0610351525247097
623503,-0.0196533203125,0.9866943359375,-0.0711669921875,9.6435546875,0.0,-0.1220703050494194
623536,-0.018310546875,0.986083984375,-0.0689697265625,9.8876953125,-0.0610351525247097,-0.0610351525247097
623557,-0.0186767578125,0.986572265625,-0.06591796875,10.192870140075684,-0.0610351525247097,-0.1220703050494194
623577,-0.0189208984375,0.9876708984375,-0.0635986328125,10.375975608825684,-0.0610351525247097,-0.1220703050494194
623596,-0.0184326171875,0.9881591796875,-0.05908203125,10.559081077575684,0.0,-0.1220703050494194
623612,-0.0185546875,0.98779296875,-0.0546875,10.681151390075684,0.0,-0.1220703050494194
623632,-0.0184326171875,0.9888916015625,-0.0511474609375,10.864256858825684,-0.0610351525247097,-0.1831054538488388
623680,-0.017578125,0.989501953125,-0.045166015625,11.230467796325684,0.0,-0.1831054538488388
623731,-0.0162353515625,0.9893798828125,-0.03515625,11.535643577575684,-0.0610351525247097,-0.2441406100988388
623764,-0.0174560546875,0.9901123046875,-0.0260009765625,11.718749046325684,0.0,-0.1831054538488388
623787,-0.01708984375,0.9893798828125,-0.0224609375,11.718749046325684,0.0610351525247097,-0.1831054538488388
623804,-0.0169677734375,0.9908447265625,-0.025146484375,11.840819358825684,0.0,-0.1831054538488388
623837,-0.0174560546875,0.9896240234375,-0.0145263671875,12.451170921325684,0.0610351525247097,-0.1831054538488388
623870,-0.01611328125,0.9906005859375,-0.0072021484375,12.512206077575684,0.0,-0.1831054538488388
623912,-0.01708984375,0.9913330078125,-0.000732421875,12.817381858825684,0.0,-0.1831054538488388
623946,-0.0142822265625,0.990478515625,0.0087890625,12.817381858825684,0.0610351525247097,-0.2441406100988388
624029,-0.0145263671875,0.991943359375,0.024658203125,12.878417015075684,0.0,-0.1831054538488388
624046,-0.0155029296875,0.9908447265625,0.0301513671875,12.939452171325684,0.0,-0.1831054538488388
624063,-0.0150146484375,0.98974609375,0.0335693359375,12.939452171325684,0.0,-0.1831054538488388
624083,-0.014404296875,0.9921875,0.0369873046875,12.939452171325684,0.0,-0.2441406100988388
624100,-0.0145263671875,0.99072265625,0.0400390625,13.000487327575684,0.0610351525247097,-0.30517578125
624116,-0.0152587890625,0.9910888671875,0.045654296875,12.939452171325684,0.0610351525247097,-0.30517578125
624132,-0.01513671875,0.99169921875,0.04638671875,13.000487327575684,0.0,-0.1831054538488388
624154,-0.014404296875,0.990234375,0.05029296875,13.000487327575684,-0.0610351525247097,-0.1831054538488388
624170,-0.013916015625,0.9896240234375,0.0616455078125,12.756346702575684,0.0,-0.2441406100988388
624187,-0.01513671875,0.9891357421875,0.0579833984375,12.634276390075684,0.0610351525247097,-0.2441406100988388
624253,-0.0089111328125,0.983642578125,0.0921630859375,13.977049827575684,0.1220703050494194,-0.30517578125
624269,-0.0093994140625,0.988525390625,0.0821533203125,13.427733421325684,-0.0610351525247097,-0.30517578125
624317,-0.0126953125,0.9849853515625,0.088623046875,14.404295921325684,0.1220703050494194,-0.30517578125
624333,-0.0107421875,0.9931640625,0.096435546875,14.404295921325684,0.1220703050494194,-0.30517578125
624349,-0.0135498046875,0.9874267578125,0.0933837890625,14.343260765075684,0.0610351525247097,-0.30517578125
624365,-0.012451171875,0.98828125,0.102783203125,14.160155296325684,0.0610351525247097,-0.30517578125
624436,-0.011962890625,0.985595703125,0.117919921875,13.977049827575684,-0.0610351525247097,-0.30517578125
624453,-0.0115966796875,0.9898681640625,0.10546875,14.526366233825684,-0.1831054538488388,-0.3662109076976776
624469,-0.0106201171875,0.99169921875,0.1063232421875,15.014647483825684,0.0,-0.30517578125
624486,-0.0133056640625,0.983642578125,0.118896484375,15.808104515075684,0.30517578125,-0.30517578125
624505,-0.0107421875,0.982421875,0.14208984375,15.624999046325684,0.1220703050494194,-0.30517578125
624521,-0.0098876953125,0.981689453125,0.1435546875,15.441893577575684,0.0,-0.30517578125
624537,-0.0113525390625,0.98486328125,0.139892578125,15.380858421325684,-0.0610351525247097,-0.3662109076976776
624553,-0.0118408203125,0.9852294921875,0.1356201171875,15.563963890075684,0.0,-0.3662109076976776
624569,-0.0106201171875,0.9832763671875,0.138427734375,15.808104515075684,0.0610351525247097,-0.30517578125
624615,-0.009765625,0.9793701171875,0.163818359375,15.624999046325684,0.0610351525247097,-0.30517578125
624636,-0.0106201171875,0.9814453125,0.166015625,15.441893577575684,0.0610351525247097,-0.3662109076976776
624653,-0.0106201171875,0.981689453125,0.1669921875,15.380858421325684,-0.0610351525247097,-0.3662109076976776
624669,-0.009521484375,0.9801025390625,0.1715087890625,15.319823265075684,0.0,-0.3662109076976776
624735,-0.0079345703125,0.9761962890625,0.190185546875,14.648436546325684,0.0,-0.30517578125
624823,-0.0072021484375,0.9722900390625,0.21044921875,13.732909202575684,0.0,-0.30517578125
624885,-0.008544921875,0.971435546875,0.2169189453125,13.427733421325684,0.0610351525247097,-0.1831054538488388
624988,-0.006591796875,0.96337890625,0.2513427734375,13.427733421325684,0.0610351525247097,-0.30517578125
625005,-0.0052490234375,0.9635009765625,0.2506103515625,13.122557640075684,0.0,-0.2441406100988388
625038,-0.005859375,0.96435546875,0.250732421875,13.061522483825684,0.0610351525247097,-0.2441406100988388
625071,-0.0048828125,0.9599609375,0.264892578125,12.817381858825684,0.0,-0.2441406100988388
625113,-0.005859375,0.96044921875,0.26513671875,12.573241233825684,0.0,-0.1831054538488388
625130,-0.00439453125,0.95947265625,0.2701416015625,12.451170921325684,0.0,-0.1831054538488388
625147,-0.0050048828125,0.958251953125,0.275146484375,12.390135765075684,0.0,-0.2441406100988388
625198,-0.0042724609375,0.9544677734375,0.2802734375,11.962889671325684,-0.0610351525247097,-0.1831054538488388
625230,-0.00390625,0.9554443359375,0.28759765625,12.207030296325684,0.0610351525247097,-0.2441406100988388
625247,-0.0042724609375,0.9522705078125,0.296875,12.268065452575684,0.0610351525247097,-0.1831054538488388
625280,-0.0037841796875,0.9547119140625,0.2901611328125,12.084959983825684,0.0,-0.2441406100988388
625344,-0.00390625,0.94873046875,0.3115234375,12.268065452575684,-0.0610351525247097,-0.2441406100988388
625361,-0.0032958984375,0.948974609375,0.3115234375,12.268065452575684,0.0,-0.2441406100988388
625394,-0.0029296875,0.9481201171875,0.317626953125,12.390135765075684,0.0610351525247097,-0.1831054538488388
625460,-0.00390625,0.94287109375,0.330078125,12.329100608825684,0.0610351525247097,-0.2441406100988388
625532,-0.0018310546875,0.9381103515625,0.3448486328125,12.451170921325684,0.0,-0.1831054538488388
625549,-0.00244140625,0.936767578125,0.34765625,12.512206077575684,0.0,-0.2441406100988388
625566,-0.0029296875,0.9366455078125,0.3499755859375,12.634276390075684,0.0,-0.2441406100988388
625582,-0.00146484375,0.9354248046875,0.353271484375,12.634276390075684,0.0,-0.2441406100988388
625599,-0.0006103515625,0.9342041015625,0.357421875,12.756346702575684,0.0610351525247097,-0.1831054538488388
625632,-0.000732421875,0.931884765625,0.3642578125,12.878417015075684,-0.0610351525247097,-0.2441406100988388
625654,-0.00146484375,0.9305419921875,0.367919921875,13.000487327575684,0.0,-0.2441406100988388
625674,-0.0008544921875,0.9281005859375,0.3726806640625,13.000487327575684,0.0610351525247097,-0.1831054538488388
625690,0.000244140625,0.9268798828125,0.3759765625,13.000487327575684,0.0,-0.1831054538488388
625707,0.000244140625,0.9261474609375,0.37744140625,12.939452171325684,0.0,-0.2441406100988388
625723,-0.000732421875,0.9249267578125,0.380126953125,13.000487327575684,0.0,-0.1831054538488388
625757,-0.001220703125,0.92236328125,0.3883056640625,13.000487327575684,-0.0610351525247097,-0.2441406100988388
625773,-0.0006103515625,0.9219970703125,0.3909912109375,13.000487327575684,0.0,-0.2441406100988388
625789,0.001220703125,0.9212646484375,0.394775390625,13.061522483825684,0.0,-0.2441406100988388
625805,0.0018310546875,0.9200439453125,0.397705078125,13.061522483825684,0.0,-0.2441406100988388
625825,0.0009765625,0.91748046875,0.402587890625,12.939452171325684,-0.0610351525247097,-0.2441406100988388
625841,-0.0001220703125,0.91552734375,0.4072265625,12.817381858825684,0.0610351525247097,-0.2441406100988388
625873,0.0009765625,0.9124755859375,0.4124755859375,12.634276390075684,0.0610351525247097,-0.2441406100988388
625890,0.0003662109375,0.9117431640625,0.4169921875,12.512206077575684,-0.0610351525247097,-0.2441406100988388
625911,0.000244140625,0.91064453125,0.418701171875,12.451170921325684,0.0,-0.2441406100988388
625927,0.005859375,0.9091796875,0.423583984375,12.207030296325684,0.0610351525247097,-0.1831054538488388
625944,-0.0010986328125,0.899658203125,0.4322509765625,12.084959983825684,0.0,-0.1220703050494194
626027,0.0020751953125,0.8975830078125,0.4412841796875,10.925292015075684,-0.0610351525247097,-0.1220703050494194
626086,0.0035400390625,0.8956298828125,0.451416015625,10.192870140075684,0.0,-0.1220703050494194
626131,0.001953125,0.8922119140625,0.4547119140625,9.3994140625,-0.0610351525247097,-0.0610351525247097
626148,0.0025634765625,0.892822265625,0.45654296875,9.09423828125,0.0,-0.0610351525247097
626164,0.0030517578125,0.890380859375,0.458740234375,8.97216796875,0.0,-0.0610351525247097
626185,0.0035400390625,0.889892578125,0.462646484375,8.60595703125,-0.0610351525247097,-0.0610351525247097
626234,0.0025634765625,0.887939453125,0.4652099609375,8.11767578125,-0.0610351525247097,0.0610351525247097
626251,0.00390625,0.885986328125,0.468994140625,8.056640625,0.0,0.0
626272,0.0040283203125,0.88623046875,0.46923828125,8.056640625,-0.0610351525247097,0.0
626288,0.0032958984375,0.8857421875,0.469970703125,7.995604991912842,-0.1220703050494194,-0.0610351525247097
626305,0.0040283203125,0.8861083984375,0.470458984375,7.995604991912842,-0.0610351525247097,-0.0610351525247097
626322,0.0040283203125,0.8841552734375,0.4742431640625,8.1787109375,-0.0610351525247097,0.0
626355,0.0040283203125,0.8843994140625,0.47509765625,8.544921875,0.0,-0.0610351525247097
626372,0.0032958984375,0.8837890625,0.4764404296875,8.9111328125,-0.0610351525247097,-0.0610351525247097
626388,0.0035400390625,0.8836669921875,0.4776611328125,9.1552734375,-0.0610351525247097,-0.0610351525247097
626423,0.004638671875,0.878662109375,0.4842529296875,9.765625,-0.0610351525247097,-0.1220703050494194
626479,0.003662109375,0.8768310546875,0.489990234375,10.559081077575684,0.0,-0.1220703050494194
626512,0.0064697265625,0.8707275390625,0.5013427734375,10.681151390075684,0.0,-0.1220703050494194
626546,0.004638671875,0.8701171875,0.5030517578125,10.925292015075684,-0.0610351525247097,-0.1831054538488388
626595,0.005859375,0.8638916015625,0.51171875,11.047362327575684,-0.0610351525247097,-0.1831054538488388
626669,0.005615234375,0.858154296875,0.5242919921875,11.169432640075684,0.0,-0.1220703050494194
626686,0.00634765625,0.8543701171875,0.5281982421875,11.108397483825684,0.0,-0.1220703050494194
626703,0.0072021484375,0.853515625,0.53076171875,10.925292015075684,-0.0610351525247097,-0.1220703050494194
626753,0.0081787109375,0.847412109375,0.5400390625,10.070799827575684,0.0,-0.0610351525247097
626809,0.006103515625,0.840576171875,0.5498046875,8.97216796875,-0.0610351525247097,-0.0610351525247097
626904,0.008056640625,0.8546142578125,0.5341796875,9.521484375,-0.1831054538488388,-0.1831054538488388
626921,0.0079345703125,0.8477783203125,0.5440673828125,10.437010765075684,0.0,-0.0610351525247097
626954,0.008544921875,0.8345947265625,0.562255859375,10.864256858825684,0.0,-0.1831054538488388
626971,0.0086669921875,0.8375244140625,0.5582275390625,11.108397483825684,-0.0610351525247097,-0.2441406100988388
626988,0.009033203125,0.8336181640625,0.564453125,11.535643577575684,0.0,-0.1831054538488388
627024,0.009521484375,0.828857421875,0.571533203125,11.962889671325684,0.0610351525247097,-0.1831054538488388
627072,0.009033203125,0.8211669921875,0.5826416015625,11.962889671325684,-0.0610351525247097,-0.2441406100988388
627104,0.00927734375,0.8184814453125,0.5859375,11.657713890075684,0.0,-0.1831054538488388
627146,0.0103759765625,0.8094482421875,0.597412109375,11.352538108825684,0.0610351525247097,-0.1220703050494194
627163,0.0072021484375,0.81396484375,0.592041015625,11.108397483825684,0.0,-0.1220703050494194
627196,0.0108642578125,0.8101806640625,0.6015625,10.925292015075684,-0.0610351525247097,-0.1831054538488388
627213,0.009521484375,0.8046875,0.606689453125,10.620116233825684,0.0,-0.1831054538488388
627230,0.0087890625,0.803955078125,0.6077880859375,10.314940452575684,0.0,-0.1220703050494194
627247,0.0101318359375,0.803466796875,0.6082763671875,10.070799827575684,-0.0610351525247097,-0.1220703050494194
627300,0.009765625,0.792724609375,0.619384765625,8.7890625,0.0610351525247097,0.0
627330,0.0155029296875,0.7889404296875,0.6275634765625,7.934569835662842,-0.3662109076976776,-0.1831054538488388
627346,0.0108642578125,0.8145751953125,0.5980224609375,8.11767578125,-0.4882812201976776,-0.2441406100988388
627366,0.0069580078125,0.81396484375,0.5970458984375,8.7890625,-0.0610351525247097,-0.0610351525247097
627383,0.0067138671875,0.795166015625,0.6175537109375,8.97216796875,0.1831054538488388,0.0610351525247097
627433,0.01318359375,0.7889404296875,0.6287841796875,6.896972179412842,-0.1220703050494194,-0.0610351525247097
627506,0.013671875,0.7838134765625,0.6348876953125,5.676269054412842,-0.1220703050494194,0.0610351525247097
627522,0.010986328125,0.795166015625,0.6209716796875,5.493163585662842,-0.1831054538488388,0.0610351525247097
627555,0.012451171875,0.771728515625,0.6497802734375,5.371093273162842,-0.1220703050494194,0.0610351525247097
627572,0.0123291015625,0.7767333984375,0.6446533203125,4.638671875,-0.2441406100988388,0.1220703050494194
627588,0.011962890625,0.7906494140625,0.62841796875,4.638671875,-0.1831054538488388,0.1220703050494194
627605,0.011962890625,0.783447265625,0.6353759765625,4.69970703125,-0.1220703050494194,0.1220703050494194
627625,0.011474609375,0.773681640625,0.6473388671875,4.2724609375,-0.0610351525247097,0.1831054538488388
627647,0.011474609375,0.772216796875,0.6492919921875,3.906249761581421,-0.1220703050494194,0.1831054538488388
627663,0.012939453125,0.7783203125,0.6414794921875,3.479003667831421,-0.1831054538488388,0.1220703050494194
627680,0.012939453125,0.7822265625,0.63623046875,3.417968511581421,-0.1831054538488388,0.1220703050494194
627697,0.0126953125,0.778076171875,0.6409912109375,3.417968511581421,-0.1220703050494194,0.1831054538488388
627730,0.0130615234375,0.7734375,0.6474609375,2.685546636581421,-0.1220703050494194,0.2441406100988388
627747,0.012451171875,0.7783203125,0.643798828125,2.50244140625,-0.2441406100988388,0.2441406100988388
627763,0.0118408203125,0.779296875,0.64208984375,2.44140625,-0.1831054538488388,0.2441406100988388
627795,0.0128173828125,0.775146484375,0.6458740234375,2.25830078125,-0.1220703050494194,0.1831054538488388
627811,0.0130615234375,0.77490234375,0.6453857421875,2.01416015625,-0.1220703050494194,0.1831054538488388
627827,0.0123291015625,0.77587890625,0.6458740234375,1.8310545682907104,-0.1831054538488388,0.30517578125
627859,0.0125732421875,0.777099609375,0.6441650390625,1.7700194120407104,-0.1220703050494194,0.2441406100988388
627875,0.0125732421875,0.774658203125,0.646728515625,1.7700194120407104,-0.1220703050494194,0.2441406100988388
627891,0.01220703125,0.774169921875,0.6466064453125,1.5869139432907104,-0.1831054538488388,0.30517578125
627907,0.0115966796875,0.7752685546875,0.6470947265625,1.4038084745407104,-0.1831054538488388,0.2441406100988388
627927,0.0128173828125,0.77685546875,0.6453857421875,1.4038084745407104,-0.1831054538488388,0.30517578125
627952,0.011962890625,0.775634765625,0.6463623046875,1.3427733182907104,-0.1220703050494194,0.2441406100988388
627968,0.0118408203125,0.77490234375,0.647705078125,1.2817381620407104,-0.1831054538488388,0.2441406100988388
627985,0.0120849609375,0.775146484375,0.6470947265625,1.15966796875,-0.1831054538488388,0.30517578125
628002,0.0120849609375,0.776123046875,0.6463623046875,0.9765624403953552,-0.1220703050494194,0.2441406100988388
628035,0.0125732421875,0.77587890625,0.6444091796875,0.8544921278953552,-0.1220703050494194,0.2441406100988388
628052,0.0120849609375,0.774658203125,0.6458740234375,0.8544921278953552,-0.2441406100988388,0.30517578125
628068,0.013671875,0.7745361328125,0.6475830078125,0.7324218153953552,-0.1831054538488388,0.30517578125
628104,0.012451171875,0.7755126953125,0.6451416015625,0.6103515625,-0.1831054538488388,0.2441406100988388
628120,0.0133056640625,0.77587890625,0.6468505859375,0.54931640625,-0.1220703050494194,0.30517578125
628136,0.012451171875,0.775390625,0.6461181640625,0.54931640625,-0.1831054538488388,0.3662109076976776
628152,0.01171875,0.775634765625,0.645751953125,0.4882812201976776,-0.1831054538488388,0.30517578125
628174,0.0126953125,0.77587890625,0.6466064453125,0.4272460639476776,-0.1831054538488388,0.30517578125
628190,0.0125732421875,0.7752685546875,0.6458740234375,0.4272460639476776,-0.1831054538488388,0.30517578125
628207,0.0120849609375,0.77490234375,0.64501953125,0.3662109076976776,-0.2441406100988388,0.30517578125
628224,0.0125732421875,0.775634765625,0.64599609375,0.30517578125,-0.1831054538488388,0.30517578125
628240,0.0125732421875,0.7760009765625,0.64599609375,0.30517578125,-0.1831054538488388,0.3662109076976776
628274,0.0130615234375,0.7760009765625,0.644775390625,0.2441406100988388,-0.30517578125,0.30517578125
628338,0.01171875,0.777587890625,0.6444091796875,0.1220703050494194,-0.2441406100988388,0.3662109076976776
628354,0.01171875,0.77783203125,0.6435546875,0.0610351525247097,-0.2441406100988388,0.30517578125
628386,0.0115966796875,0.777099609375,0.64306640625,0.1831054538488388,-0.1831054538488388,0.30517578125
628483,0.0115966796875,0.7796630859375,0.6429443359375,0.1220703050494194,-0.1831054538488388,0.3662109076976776
628528,0.0128173828125,0.7779541015625,0.6422119140625,0.1831054538488388,-0.1831054538488388,0.30517578125
628545,0.012451171875,0.778076171875,0.6417236328125,0.1831054538488388,-0.1831054538488388,0.30517578125
628578,0.012451171875,0.7789306640625,0.6422119140625,0.1831054538488388,-0.1831054538488388,0.30517578125
628595,0.011962890625,0.778076171875,0.641845703125,0.1831054538488388,-0.1831054538488388,0.30517578125
628611,0.012939453125,0.779296875,0.6416015625,0.2441406100988388,-0.1831054538488388,0.30517578125
628627,0.01318359375,0.7799072265625,0.642578125,0.30517578125,-0.1831054538488388,0.3662109076976776
628647,0.0115966796875,0.779541015625,0.6422119140625,0.2441406100988388,-0.1220703050494194,0.3662109076976776
628663,0.0123291015625,0.7791748046875,0.64013671875,0.30517578125,-0.1831054538488388,0.30517578125
628679,0.01318359375,0.7794189453125,0.640625,0.3662109076976776,-0.1831054538488388,0.30517578125
628696,0.012939453125,0.7801513671875,0.64111328125,0.3662109076976776,-0.1220703050494194,0.30517578125
628717,0.0118408203125,0.77978515625,0.640869140625,0.3662109076976776,-0.1220703050494194,0.30517578125
628733,0.010986328125,0.779296875,0.6407470703125,0.3662109076976776,-0.1831054538488388,0.30517578125
628750,0.0126953125,0.7791748046875,0.640625,0.4272460639476776,-0.1831054538488388,0.30517578125
628767,0.0125732421875,0.780029296875,0.6409912109375,0.3662109076976776,-0.1831054538488388,0.30517578125
628783,0.0123291015625,0.779541015625,0.639892578125,0.3662109076976776,-0.1831054538488388,0.3662109076976776
628817,0.0123291015625,0.7811279296875,0.6405029296875,0.54931640625,-0.2441406100988388,0.3662109076976776
628833,0.01318359375,0.7796630859375,0.6385498046875,0.54931640625,-0.1831054538488388,0.30517578125
628849,0.01318359375,0.7784423828125,0.6402587890625,0.54931640625,-0.1831054538488388,0.30517578125
628865,0.0130615234375,0.779541015625,0.640869140625,0.6103515625,-0.1831054538488388,0.30517578125
628886,0.01171875,0.780517578125,0.640380859375,0.6103515625,-0.1831054538488388,0.2441406100988388
628907,0.0111083984375,0.78076171875,0.638916015625,0.6103515625,-0.1831054538488388,0.30517578125
628923,0.012939453125,0.78076171875,0.639892578125,0.7324218153953552,-0.1831054538488388,0.30517578125
628940,0.0125732421875,0.780517578125,0.6396484375,0.7934569716453552,-0.1831054538488388,0.30517578125
628957,0.011962890625,0.780029296875,0.6402587890625,0.7934569716453552,-0.1831054538488388,0.30517578125
628990,0.0120849609375,0.7802734375,0.6402587890625,0.7934569716453552,-0.1831054538488388,0.30517578125
629008,0.012451171875,0.780029296875,0.63916015625,0.7934569716453552,-0.1831054538488388,0.30517578125
629024,0.01220703125,0.779052734375,0.6387939453125,0.9155272841453552,-0.1831054538488388,0.30517578125
629053,0.0133056640625,0.7801513671875,0.639892578125,0.8544921278953552,-0.1220703050494194,0.3662109076976776
629075,0.01123046875,0.78076171875,0.6400146484375,0.9155272841453552,-0.1220703050494194,0.30517578125
629141,0.0125732421875,0.779541015625,0.6407470703125,0.9765624403953552,-0.1831054538488388,0.3662109076976776
629185,0.011962890625,0.7799072265625,0.6402587890625,1.03759765625,-0.1831054538488388,0.2441406100988388
629202,0.0128173828125,0.780029296875,0.64111328125,1.03759765625,-0.1831054538488388,0.30517578125
629235,0.0115966796875,0.7791748046875,0.64111328125,1.03759765625,-0.1831054538488388,0.2441406100988388
629252,0.012939453125,0.7791748046875,0.64111328125,1.03759765625,-0.1220703050494194,0.2441406100988388
629269,0.0125732421875,0.779296875,0.6407470703125,1.03759765625,-0.1220703050494194,0.2441406100988388
629289,0.01220703125,0.779296875,0.6416015625,1.0986328125,-0.1831054538488388,0.30517578125
629306,0.0123291015625,0.7791748046875,0.6417236328125,1.0986328125,-0.1831054538488388,0.1831054538488388
629327,0.011962890625,0.779052734375,0.64013671875,1.03759765625,-0.1831054538488388,0.2441406100988388
629343,0.0120849609375,0.7791748046875,0.64111328125,1.03759765625,-0.1831054538488388,0.30517578125
629364,0.011962890625,0.780029296875,0.6405029296875,1.03759765625,-0.1220703050494194,0.30517578125
629381,0.011962890625,0.7796630859375,0.6412353515625,1.0986328125,-0.1831054538488388,0.2441406100988388
629397,0.0128173828125,0.779052734375,0.640869140625,1.03759765625,-0.1831054538488388,0.2441406100988388
629413,0.0125732421875,0.7791748046875,0.6416015625,1.03759765625,-0.1831054538488388,0.30517578125
629430,0.01220703125,0.7786865234375,0.6407470703125,1.03759765625,-0.1831054538488388,0.30517578125
629446,0.0120849609375,0.779052734375,0.6416015625,1.03759765625,-0.1831054538488388,0.30517578125
629479,0.0123291015625,0.7781982421875,0.642578125,1.03759765625,-0.1831054538488388,0.2441406100988388
629500,0.0115966796875,0.7784423828125,0.6412353515625,1.0986328125,-0.1831054538488388,0.30517578125
629516,0.011474609375,0.7786865234375,0.6416015625,1.03759765625,-0.1831054538488388,0.30517578125
629533,0.01171875,0.7781982421875,0.6409912109375,1.03759765625,-0.1831054538488388,0.30517578125
629550,0.0125732421875,0.778076171875,0.6409912109375,1.03759765625,-0.1220703050494194,0.30517578125
629566,0.0126953125,0.778076171875,0.6417236328125,1.03759765625,-0.1831054538488388,0.30517578125
629604,0.011962890625,0.7786865234375,0.643310546875,1.03759765625,-0.1831054538488388,0.2441406100988388
629620,0.01220703125,0.7781982421875,0.6427001953125,0.9765624403953552,-0.1831054538488388,0.2441406100988388
629636,0.012451171875,0.777587890625,0.6424560546875,0.9765624403953552,-0.1831054538488388,0.1831054538488388
629652,0.0126953125,0.7783203125,0.6416015625,0.9765624403953552,-0.1220703050494194,0.2441406100988388
629669,0.0126953125,0.7789306640625,0.64208984375,0.9765624403953552,-0.1831054538488388,0.30517578125
629690,0.0115966796875,0.779052734375,0.6422119140625,1.03759765625,-0.1831054538488388,0.3662109076976776
629706,0.01220703125,0.7779541015625,0.6424560546875,1.03759765625,-0.1831054538488388,0.2441406100988388
629723,0.01220703125,0.778076171875,0.643310546875,0.9765624403953552,-0.1831054538488388,0.2441406100988388
629740,0.0120849609375,0.7786865234375,0.64404296875,0.9765624403953552,-0.1831054538488388,0.3662109076976776
629773,0.012451171875,0.77734375,0.6435546875,0.9155272841453552,-0.2441406100988388,0.1831054538488388
629790,0.0120849609375,0.778076171875,0.64306640625,0.9155272841453552,-0.1831054538488388,0.2441406100988388
629806,0.0123291015625,0.778076171875,0.6422119140625,0.9155272841453552,-0.1220703050494194,0.30517578125
629838,0.0115966796875,0.777587890625,0.6419677734375,0.7934569716453552,-0.1831054538488388,0.30517578125
629854,0.0126953125,0.77783203125,0.6419677734375,0.7934569716453552,-0.1831054538488388,0.2441406100988388
629870,0.012451171875,0.7779541015625,0.64208984375,0.8544921278953552,-0.1831054538488388,0.2441406100988388
629886,0.0123291015625,0.7781982421875,0.6427001953125,0.9155272841453552,-0.1831054538488388,0.2441406100988388
629961,0.01220703125,0.7777099609375,0.6434326171875,0.8544921278953552,-0.1831054538488388,0.30517578125
630026,0.01220703125,0.77880859375,0.642333984375,0.7934569716453552,-0.1831054538488388,0.30517578125
630043,0.01220703125,0.778564453125,0.6422119140625,0.7934569716453552,-0.1831054538488388,0.2441406100988388
630076,0.0123291015625,0.7772216796875,0.6424560546875,0.7324218153953552,-0.2441406100988388,0.2441406100988388
630093,0.0126953125,0.778076171875,0.6429443359375,0.7324218153953552,-0.2441406100988388,0.2441406100988388
630110,0.0125732421875,0.7779541015625,0.6436767578125,0.7934569716453552,-0.1831054538488388,0.3662109076976776
630126,0.01220703125,0.7767333984375,0.6431884765625,0.7324218153953552,-0.1831054538488388,0.30517578125
630151,0.0115966796875,0.77783203125,0.6444091796875,0.7324218153953552,-0.1831054538488388,0.2441406100988388
630167,0.012451171875,0.7781982421875,0.6435546875,0.7324218153953552,-0.1831054538488388,0.30517578125
630184,0.0118408203125,0.778564453125,0.6427001953125,0.7934569716453552,-0.1831054538488388,0.30517578125
630201,0.011962890625,0.7779541015625,0.643310546875,0.6713866591453552,-0.1831054538488388,0.30517578125
630217,0.0123291015625,0.77734375,0.64208984375,0.6713866591453552,-0.1831054538488388,0.30517578125
630251,0.0120849609375,0.778564453125,0.6427001953125,0.7324218153953552,-0.2441406100988388,0.30517578125
630269,0.0126953125,0.77880859375,0.6419677734375,0.7324218153953552,-0.1831054538488388,0.2441406100988388
630290,0.0115966796875,0.7772216796875,0.64306640625,0.6713866591453552,-0.1831054538488388,0.30517578125
630306,0.0120849609375,0.7779541015625,0.642822265625,0.6713866591453552,-0.1831054538488388,0.30517578125
630323,0.0128173828125,0.7779541015625,0.6431884765625,0.7324218153953552,-0.1831054538488388,0.30517578125
630340,0.0123291015625,0.777587890625,0.64306640625,0.7324218153953552,-0.1220703050494194,0.30517578125
630373,0.0125732421875,0.7791748046875,0.643798828125,0.7324218153953552,-0.1220703050494194,0.30517578125
630437,0.0123291015625,0.7774658203125,0.6416015625,0.7324218153953552,-0.1220703050494194,0.30517578125
630459,0.012451171875,0.7763671875,0.6409912109375,0.7324218153953552,-0.1831054538488388,0.30517578125
630475,0.0120849609375,0.778076171875,0.641845703125,0.7324218153953552,-0.1831054538488388,0.30517578125
630509,0.0120849609375,0.778564453125,0.642578125,0.7324218153953552,-0.1831054538488388,0.30517578125
630563,0.01220703125,0.778564453125,0.64111328125,0.6713866591453552,-0.1831054538488388,0.30517578125
630580,0.0120849609375,0.7784423828125,0.6431884765625,0.7324218153953552,-0.1220703050494194,0.2441406100988388
630613,0.01123046875,0.7791748046875,0.64306640625,0.6713866591453552,-0.1220703050494194,0.2441406100988388
630629,0.0125732421875,0.77783203125,0.6424560546875,0.6713866591453552,-0.1831054538488388,0.2441406100988388
630646,0.0125732421875,0.779052734375,0.640625,0.7324218153953552,-0.1831054538488388,0.3662109076976776
630678,0.0125732421875,0.7783203125,0.6416015625,0.7324218153953552,-0.1831054538488388,0.3662109076976776
630694,0.012939453125,0.7781982421875,0.642333984375,0.7324218153953552,-0.2441406100988388,0.3662109076976776
630710,0.0123291015625,0.7786865234375,0.6429443359375,0.7324218153953552,-0.1831054538488388,0.3662109076976776
630726,0.0118408203125,0.778564453125,0.6431884765625,0.7324218153953552,-0.1220703050494194,0.30517578125
630746,0.01220703125,0.7786865234375,0.641845703125,0.7324218153953552,-0.1220703050494194,0.30517578125
630762,0.01220703125,0.7784423828125,0.640625,0.7324218153953552,-0.1220703050494194,0.30517578125
630778,0.012939453125,0.7786865234375,0.6416015625,0.7934569716453552,-0.2441406100988388,0.30517578125
630795,0.0125732421875,0.7786865234375,0.642578125,0.7934569716453552,-0.2441406100988388,0.30517578125
630820,0.0120849609375,0.7777099609375,0.6412353515625,0.7934569716453552,-0.1831054538488388,0.30517578125
630840,0.01318359375,0.778076171875,0.6436767578125,0.7934569716453552,-0.1831054538488388,0.30517578125
630860,0.0126953125,0.7779541015625,0.6414794921875,0.7324218153953552,-0.1831054538488388,0.30517578125
630876,0.0123291015625,0.778564453125,0.6414794921875,0.7934569716453552,-0.1220703050494194,0.3662109076976776
630910,0.0120849609375,0.778076171875,0.6435546875,0.7934569716453552,-0.1831054538488388,0.2441406100988388
630926,0.012939453125,0.7783203125,0.642578125,0.7934569716453552,-0.1220703050494194,0.30517578125
630943,0.012451171875,0.7779541015625,0.64208984375,0.8544921278953552,-0.1831054538488388,0.30517578125
630974,0.0130615234375,0.7789306640625,0.641845703125,0.8544921278953552,-0.2441406100988388,0.30517578125
630996,0.0125732421875,0.7784423828125,0.6419677734375,0.7934569716453552,-0.1831054538488388,0.30517578125
631012,0.0113525390625,0.77880859375,0.642822265625,0.7934569716453552,-0.1220703050494194,0.2441406100988388
631029,0.0113525390625,0.779052734375,0.641357421875,0.7934569716453552,-0.1220703050494194,0.2441406100988388
631046,0.0123291015625,0.779052734375,0.640869140625,0.7324218153953552,-0.2441406100988388,0.2441406100988388
631062,0.0126953125,0.7786865234375,0.6427001953125,0.7324218153953552,-0.1831054538488388,0.30517578125
631096,0.01171875,0.779052734375,0.6422119140625,0.8544921278953552,-0.1831054538488388,0.30517578125
631112,0.01220703125,0.779052734375,0.6424560546875,0.7934569716453552,-0.1831054538488388,0.2441406100988388
631128,0.0130615234375,0.7781982421875,0.642333984375,0.7934569716453552,-0.1220703050494194,0.30517578125
631164,0.011474609375,0.7794189453125,0.642578125,0.7934569716453552,-0.1220703050494194,0.30517578125
631180,0.0118408203125,0.77880859375,0.6414794921875,0.7934569716453552,-0.1831054538488388,0.3662109076976776
631196,0.0123291015625,0.7783203125,0.642578125,0.7934569716453552,-0.1831054538488388,0.30517578125
631212,0.0123291015625,0.778564453125,0.642822265625,0.7324218153953552,-0.1831054538488388,0.2441406100988388
631229,0.01220703125,0.7786865234375,0.64306640625,0.7934569716453552,-0.1831054538488388,0.30517578125
631250,0.011962890625,0.7791748046875,0.642333984375,0.7934569716453552,-0.1831054538488388,0.30517578125
631266,0.0113525390625,0.7789306640625,0.641845703125,0.8544921278953552,-0.1831054538488388,0.30517578125
631283,0.0126953125,0.7781982421875,0.6435546875,0.8544921278953552,-0.1831054538488388,0.2441406100988388
631300,0.012451171875,0.7777099609375,0.64208984375,0.8544921278953552,-0.2441406100988388,0.30517578125
631333,0.0128173828125,0.77783203125,0.6414794921875,0.7934569716453552,-0.2441406100988388,0.30517578125
631350,0.011962890625,0.779052734375,0.6422119140625,0.8544921278953552,-0.1831054538488388,0.30517578125
631366,0.01171875,0.7784423828125,0.642333984375,0.8544921278953552,-0.1831054538488388,0.30517578125
631398,0.0126953125,0.778076171875,0.641357421875,0.7934569716453552,-0.1831054538488388,0.2441406100988388
631414,0.0126953125,0.777587890625,0.64208984375,0.7934569716453552,-0.1831054538488388,0.2441406100988388
631430,0.01171875,0.7774658203125,0.642578125,0.8544921278953552,-0.1831054538488388,0.2441406100988388
631446,0.0115966796875,0.778564453125,0.64208984375,0.8544921278953552,-0.1831054538488388,0.2441406100988388
631471,0.0133056640625,0.7784423828125,0.6417236328125,0.7934569716453552,-0.1831054538488388,0.30517578125
631487,0.012451171875,0.77734375,0.641357421875,0.7934569716453552,-0.1831054538488388,0.2441406100988388
631504,0.0118408203125,0.7783203125,0.6422119140625,0.7934569716453552,-0.2441406100988388,0.2441406100988388
631521,0.012451171875,0.77880859375,0.6422119140625,0.7934569716453552,-0.1831054538488388,0.30517578125
631537,0.0128173828125,0.7779541015625,0.6422119140625,0.7934569716453552,-0.1831054538488388,0.30517578125
631571,0.012939453125,0.778076171875,0.6431884765625,0.8544921278953552,-0.1831054538488388,0.30517578125
631589,0.012939453125,0.7774658203125,0.6431884765625,0.7934569716453552,-0.1831054538488388,0.30517578125
631610,0.0128173828125,0.77685546875,0.6429443359375,0.7934569716453552,-0.2441406100988388,0.30517578125
631626,0.012939453125,0.7779541015625,0.6434326171875,0.7934569716453552,-0.2441406100988388,0.30517578125
631643,0.011962890625,0.7789306640625,0.6422119140625,0.7934569716453552,-0.1831054538488388,0.30517578125
631660,0.012451171875,0.77783203125,0.64306640625,0.7934569716453552,-0.1831054538488388,0.30517578125
631693,0.012451171875,0.7779541015625,0.643310546875,0.7324218153953552,-0.1220703050494194,0.3662109076976776
631710,0.0115966796875,0.777587890625,0.641845703125,0.7934569716453552,-0.1831054538488388,0.2441406100988388
631726,0.0118408203125,0.77783203125,0.64111328125,0.7934569716453552,-0.1831054538488388,0.2441406100988388
631758,0.0126953125,0.7783203125,0.642822265625,0.7934569716453552,-0.1220703050494194,0.30517578125
631774,0.0125732421875,0.7781982421875,0.64306640625,0.7324218153953552,-0.1831054538488388,0.30517578125
631790,0.0120849609375,0.778076171875,0.6427001953125,0.7934569716453552,-0.1831054538488388,0.30517578125
631806,0.0128173828125,0.7779541015625,0.643310546875,0.7934569716453552,-0.1220703050494194,0.30517578125
631829,0.01318359375,0.7786865234375,0.643798828125,0.7934569716453552,-0.1220703050494194,0.2441406100988388
631845,0.0125732421875,0.778564453125,0.6424560546875,0.7324218153953552,-0.1220703050494194,0.2441406100988388
631883,0.0133056640625,0.7791748046875,0.6422119140625,0.7934569716453552,-0.2441406100988388,0.30517578125
631899,0.01171875,0.7781982421875,0.6429443359375,0.7934569716453552,-0.1831054538488388,0.30517578125
631916,0.011962890625,0.7789306640625,0.643310546875,0.7934569716453552,-0.1831054538488388,0.30517578125
631933,0.0126953125,0.7784423828125,0.642578125,0.7934569716453552,-0.1831054538488388,0.30517578125
631950,0.011962890625,0.77783203125,0.6427001953125,0.7324218153953552,-0.1220703050494194,0.2441406100988388
631971,0.011962890625,0.778076171875,0.6429443359375,0.7324218153953552,-0.1220703050494194,0.2441406100988388
631987,0.012451171875,0.778564453125,0.6429443359375,0.7324218153953552,-0.1220703050494194,0.30517578125
632004,0.0123291015625,0.779296875,0.64208984375,0.7324218153953552,-0.1220703050494194,0.30517578125
632021,0.0128173828125,0.7786865234375,0.6427001953125,0.7934569716453552,-0.1831054538488388,0.3662109076976776
632054,0.0126953125,0.7779541015625,0.6424560546875,0.7934569716453552,-0.1831054538488388,0.30517578125
632119,0.0125732421875,0.7786865234375,0.6436767578125,0.7934569716453552,-0.1220703050494194,0.3662109076976776
632135,0.0123291015625,0.7781982421875,0.642822265625,0.7934569716453552,-0.1831054538488388,0.3662109076976776
632167,0.01220703125,0.7789306640625,0.64306640625,0.7934569716453552,-0.1220703050494194,0.2441406100988388
632189,0.011962890625,0.77685546875,0.642822265625,0.7934569716453552,-0.1831054538488388,0.2441406100988388
632206,0.0128173828125,0.778564453125,0.6429443359375,0.7934569716453552,-0.1831054538488388,0.30517578125
632223,0.01318359375,0.7796630859375,0.64306640625,0.7934569716453552,-0.2441406100988388,0.30517578125
632274,0.0126953125,0.7784423828125,0.642578125,0.7934569716453552,-0.1831054538488388,0.30517578125
632306,0.0126953125,0.7791748046875,0.6427001953125,0.7934569716453552,-0.1220703050494194,0.2441406100988388
632327,0.011962890625,0.7774658203125,0.64453125,0.7324218153953552,-0.1831054538488388,0.2441406100988388
632344,0.01171875,0.7783203125,0.642822265625,0.7934569716453552,-0.1220703050494194,0.2441406100988388
632364,0.01220703125,0.7783203125,0.6417236328125,0.7934569716453552,-0.1220703050494194,0.2441406100988388
632380,0.0118408203125,0.777587890625,0.642333984375,0.7934569716453552,-0.1831054538488388,0.30517578125
632396,0.012451171875,0.7783203125,0.642822265625,0.7934569716453552,-0.1220703050494194,0.30517578125
632413,0.012939453125,0.7786865234375,0.6427001953125,0.7934569716453552,-0.1831054538488388,0.2441406100988388
632429,0.01220703125,0.7781982421875,0.6424560546875,0.7934569716453552,-0.1831054538488388,0.30517578125
632445,0.0120849609375,0.7772216796875,0.6419677734375,0.7934569716453552,-0.1220703050494194,0.30517578125
632477,0.0128173828125,0.778076171875,0.6424560546875,0.7934569716453552,-0.1220703050494194,0.3662109076976776
632525,0.0130615234375,0.7779541015625,0.6422119140625,0.7934569716453552,-0.1831054538488388,0.30517578125
632547,0.0123291015625,0.7786865234375,0.642822265625,0.7934569716453552,-0.1831054538488388,0.30517578125
632564,0.0118408203125,0.7779541015625,0.6429443359375,0.7934569716453552,-0.1831054538488388,0.30517578125
632597,0.0128173828125,0.77783203125,0.64208984375,0.8544921278953552,-0.1220703050494194,0.30517578125
632614,0.0130615234375,0.777587890625,0.642578125,0.7934569716453552,-0.1220703050494194,0.2441406100988388
632631,0.0126953125,0.77685546875,0.6436767578125,0.7324218153953552,-0.1220703050494194,0.2441406100988388
632647,0.0125732421875,0.7774658203125,0.6429443359375,0.7934569716453552,-0.1831054538488388,0.2441406100988388
632667,0.011474609375,0.778564453125,0.64208984375,0.7934569716453552,-0.1831054538488388,0.30517578125
632683,0.01123046875,0.778564453125,0.6427001953125,0.7934569716453552,-0.1831054538488388,0.30517578125
632699,0.01220703125,0.7783203125,0.6424560546875,0.7934569716453552,-0.1831054538488388,0.30517578125
632715,0.011474609375,0.777099609375,0.642578125,0.6713866591453552,-0.1831054538488388,0.2441406100988388
632731,0.0123291015625,0.7781982421875,0.6419677734375,0.6713866591453552,-0.1831054538488388,0.2441406100988388
632779,0.0113525390625,0.777099609375,0.642822265625,0.7934569716453552,-0.1831054538488388,0.30517578125
632795,0.012451171875,0.7784423828125,0.6434326171875,0.7934569716453552,-0.1831054538488388,0.3662109076976776
632811,0.0128173828125,0.7789306640625,0.6431884765625,0.7934569716453552,-0.2441406100988388,0.3662109076976776
632827,0.0123291015625,0.778076171875,0.642333984375,0.7934569716453552,-0.1831054538488388,0.30517578125
632901,0.0118408203125,0.7781982421875,0.64306640625,0.7934569716453552,-0.2441406100988388,0.3662109076976776
632917,0.012451171875,0.7783203125,0.642578125,0.7934569716453552,-0.30517578125,0.3662109076976776
632934,0.0135498046875,0.7786865234375,0.643310546875,0.7934569716453552,-0.1831054538488388,0.3662109076976776
632951,0.0130615234375,0.779052734375,0.6429443359375,0.7934569716453552,-0.1220703050494194,0.2441406100988388
632967,0.0126953125,0.77880859375,0.6424560546875,0.7324218153953552,-0.1831054538488388,0.2441406100988388
632984,0.013427734375,0.77783203125,0.6419677734375,0.7934569716453552,-0.1831054538488388,0.30517578125
633015,0.01171875,0.778564453125,0.64306640625,0.7324218153953552,-0.1831054538488388,0.30517578125
633036,0.0118408203125,0.77880859375,0.642333984375,0.7934569716453552,-0.1831054538488388,0.30517578125
633052,0.011962890625,0.77734375,0.6412353515625,0.7934569716453552,-0.2441406100988388,0.30517578125
633069,0.0125732421875,0.7774658203125,0.6422119140625,0.7324218153953552,-0.1831054538488388,0.30517578125
633086,0.0125732421875,0.7777099609375,0.642822265625,0.7934569716453552,-0.1831054538488388,0.30517578125
633102,0.0128173828125,0.7784423828125,0.6427001953125,0.7934569716453552,-0.1831054538488388,0.3662109076976776
633134,0.0128173828125,0.7779541015625,0.6417236328125,0.7324218153953552,-0.2441406100988388,0.2441406100988388
633156,0.01318359375,0.7772216796875,0.6424560546875,0.7934569716453552,-0.1831054538488388,0.2441406100988388
633172,0.013916015625,0.77783203125,0.6431884765625,0.7934569716453552,-0.1831054538488388,0.30517578125
633189,0.0115966796875,0.77783203125,0.642822265625,0.7324218153953552,-0.1831054538488388,0.3662109076976776
633206,0.0118408203125,0.7781982421875,0.642578125,0.7324218153953552,-0.1831054538488388,0.30517578125
633222,0.0125732421875,0.77783203125,0.64208984375,0.7934569716453552,-0.2441406100988388,0.30517578125
633263,0.0120849609375,0.7786865234375,0.642333984375,0.8544921278953552,-0.1831054538488388,0.30517578125
633280,0.0123291015625,0.7789306640625,0.642333984375,0.7324218153953552,-0.1220703050494194,0.3662109076976776
633296,0.0120849609375,0.777587890625,0.6424560546875,0.7324218153953552,-0.1220703050494194,0.30517578125
633312,0.012451171875,0.77734375,0.6424560546875,0.7324218153953552,-0.1831054538488388,0.30517578125
633330,0.01220703125,0.7781982421875,0.6424560546875,0.7324218153953552,-0.1831054538488388,0.30517578125
633351,0.01171875,0.77880859375,0.6424560546875,0.7324218153953552,-0.1831054538488388,0.30517578125
633367,0.0120849609375,0.7783203125,0.64306640625,0.7324218153953552,-0.1831054538488388,0.3662109076976776
633384,0.0125732421875,0.779052734375,0.6434326171875,0.8544921278953552,-0.1831054538488388,0.30517578125
633401,0.0115966796875,0.778076171875,0.6436767578125,0.8544921278953552,-0.1831054538488388,0.30517578125
633430,0.0123291015625,0.7786865234375,0.6429443359375,0.7934569716453552,-0.1220703050494194,0.30517578125
633495,0.0120849609375,0.7786865234375,0.6424560546875,0.7934569716453552,-0.1831054538488388,0.30517578125
633511,0.0123291015625,0.7786865234375,0.6429443359375,0.7934569716453552,-0.1220703050494194,0.2441406100988388
633527,0.0125732421875,0.779052734375,0.6422119140625,0.8544921278953552,-0.1831054538488388,0.30517578125
633559,0.0123291015625,0.778076171875,0.642822265625,0.7934569716453552,-0.1831054538488388,0.2441406100988388
633591,0.0120849609375,0.777587890625,0.6422119140625,0.7324218153953552,-0.1831054538488388,0.30517578125
633633,0.0125732421875,0.7784423828125,0.6429443359375,0.7934569716453552,-0.2441406100988388,0.3662109076976776
633650,0.011962890625,0.77685546875,0.641845703125,0.7934569716453552,-0.2441406100988388,0.3662109076976776
633667,0.011962890625,0.77880859375,0.64208984375,0.7934569716453552,-0.1831054538488388,0.3662109076976776
633684,0.0120849609375,0.7789306640625,0.641845703125,0.8544921278953552,-0.1831054538488388,0.3662109076976776
633700,0.0120849609375,0.7777099609375,0.643310546875,0.7934569716453552,-0.1831054538488388,0.2441406100988388
633729,0.01220703125,0.7783203125,0.643310546875,0.7934569716453552,-0.1220703050494194,0.2441406100988388
633785,0.0128173828125,0.77880859375,0.6422119140625,0.7324218153953552,-0.1831054538488388,0.2441406100988388
633811,0.01123046875,0.7779541015625,0.6422119140625,0.7934569716453552,-0.2441406100988388,0.30517578125
633828,0.0118408203125,0.7777099609375,0.6416015625,0.7934569716453552,-0.1831054538488388,0.30517578125
633844,0.0115966796875,0.778076171875,0.641357421875,0.7934569716453552,-0.1220703050494194,0.2441406100988388
633864,0.0120849609375,0.7779541015625,0.642333984375,0.7934569716453552,-0.1831054538488388,0.30517578125
633881,0.012451171875,0.7774658203125,0.6429443359375,0.7934569716453552,-0.2441406100988388,0.30517578125
633897,0.012451171875,0.7777099609375,0.6429443359375,0.7934569716453552,-0.1220703050494194,0.3662109076976776
633913,0.0125732421875,0.7779541015625,0.642822265625,0.7934569716453552,-0.1220703050494194,0.30517578125
633929,0.012451171875,0.779052734375,0.6427001953125,0.7934569716453552,-0.1831054538488388,0.30517578125
633945,0.01220703125,0.7779541015625,0.6429443359375,0.8544921278953552,-0.2441406100988388,0.30517578125
633977,0.01220703125,0.779296875,0.642333984375,0.7934569716453552,-0.1831054538488388,0.30517578125
634025,0.0125732421875,0.777587890625,0.642333984375,0.8544921278953552,-0.2441406100988388,0.30517578125
634047,0.0125732421875,0.7774658203125,0.6431884765625,0.7934569716453552,-0.1831054538488388,0.30517578125
634064,0.0118408203125,0.77685546875,0.6434326171875,0.7934569716453552,-0.2441406100988388,0.30517578125
634097,0.01171875,0.779052734375,0.64208984375,0.7934569716453552,-0.1831054538488388,0.3662109076976776
634114,0.0115966796875,0.779541015625,0.6424560546875,0.7934569716453552,-0.1831054538488388,0.2441406100988388
634131,0.01220703125,0.7784423828125,0.6427001953125,0.7934569716453552,-0.1831054538488388,0.30517578125
634147,0.0128173828125,0.77880859375,0.6419677734375,0.8544921278953552,-0.1831054538488388,0.30517578125
634172,0.0128173828125,0.778076171875,0.6422119140625,0.8544921278953552,-0.1220703050494194,0.30517578125
634188,0.0118408203125,0.7783203125,0.6431884765625,0.7934569716453552,-0.1831054538488388,0.30517578125
634205,0.011474609375,0.778076171875,0.642822265625,0.7934569716453552,-0.1831054538488388,0.4272460639476776
634222,0.0118408203125,0.7779541015625,0.642578125,0.7934569716453552,-0.1831054538488388,0.3662109076976776
634268,0.011962890625,0.7777099609375,0.642333984375,0.7934569716453552,-0.1831054538488388,0.30517578125
634351,0.0128173828125,0.7791748046875,0.6429443359375,0.7934569716453552,-0.1831054538488388,0.3662109076976776
634368,0.0126953125,0.77880859375,0.643310546875,0.7934569716453552,-0.1831054538488388,0.3662109076976776
634384,0.0126953125,0.777587890625,0.64404296875,0.7934569716453552,-0.1831054538488388,0.2441406100988388
634405,0.012451171875,0.7779541015625,0.64306640625,0.7324218153953552,-0.1220703050494194,0.30517578125
634421,0.0126953125,0.7786865234375,0.6427001953125,0.7324218153953552,-0.1831054538488388,0.30517578125
634438,0.0128173828125,0.7783203125,0.6429443359375,0.7934569716453552,-0.2441406100988388,0.30517578125
634454,0.0123291015625,0.7784423828125,0.6427001953125,0.7934569716453552,-0.1831054538488388,0.30517578125
634470,0.0118408203125,0.7786865234375,0.6424560546875,0.7934569716453552,-0.1220703050494194,0.2441406100988388
634486,0.01220703125,0.779052734375,0.6419677734375,0.7934569716453552,-0.1831054538488388,0.2441406100988388
634518,0.0120849609375,0.7783203125,0.6429443359375,0.7934569716453552,-0.1831054538488388,0.30517578125
634534,0.0118408203125,0.7777099609375,0.6427001953125,0.7934569716453552,-0.1831054538488388,0.30517578125
634550,0.0113525390625,0.77783203125,0.64208984375,0.7324218153953552,-0.1831054538488388,0.30517578125
634566,0.011474609375,0.77783203125,0.6424560546875,0.7324218153953552,-0.1831054538488388,0.30517578125
634583,0.012451171875,0.77880859375,0.64306640625,0.7324218153953552,-0.1831054538488388,0.2441406100988388
634640,0.0118408203125,0.7794189453125,0.642578125,0.6713866591453552,-0.1220703050494194,0.2441406100988388
634656,0.01220703125,0.7784423828125,0.642333984375,0.7324218153953552,-0.1831054538488388,0.2441406100988388
634673,0.0115966796875,0.778076171875,0.6427001953125,0.7934569716453552,-0.1831054538488388,0.2441406100988388
634694,0.0126953125,0.778564453125,0.64208984375,0.7934569716453552,-0.1831054538488388,0.3662109076976776
634710,0.012451171875,0.7777099609375,0.642333984375,0.7934569716453552,-0.2441406100988388,0.3662109076976776
634731,0.0125732421875,0.77734375,0.6419677734375,0.7934569716453552,-0.1220703050494194,0.2441406100988388
634751,0.012451171875,0.779296875,0.6412353515625,0.7324218153953552,-0.1220703050494194,0.30517578125
634768,0.0120849609375,0.7779541015625,0.641845703125,0.7324218153953552,-0.1220703050494194,0.30517578125
634784,0.0123291015625,0.7772216796875,0.641845703125,0.7324218153953552,-0.1831054538488388,0.30517578125
634816,0.0123291015625,0.7781982421875,0.642578125,0.7324218153953552,-0.1831054538488388,0.2441406100988388
634836,0.0125732421875,0.7774658203125,0.6416015625,0.7934569716453552,-0.1831054538488388,0.30517578125
634852,0.0128173828125,0.77880859375,0.64208984375,0.7934569716453552,-0.1831054538488388,0.30517578125
634868,0.010986328125,0.778564453125,0.641845703125,0.7934569716453552,-0.1831054538488388,0.2441406100988388
634885,0.01171875,0.778076171875,0.6417236328125,0.7934569716453552,-0.1831054538488388,0.30517578125
634906,0.0126953125,0.779052734375,0.6435546875,0.7934569716453552,-0.1220703050494194,0.30517578125
634922,0.013671875,0.7779541015625,0.6419677734375,0.7324218153953552,-0.1831054538488388,0.30517578125
634943,0.013916015625,0.77783203125,0.6412353515625,0.7324218153953552,-0.2441406100988388,0.30517578125
634960,0.0130615234375,0.7783203125,0.641845703125,0.7324218153953552,-0.2441406100988388,0.3662109076976776
634976,0.01318359375,0.77880859375,0.642333984375,0.7324218153953552,-0.1831054538488388,0.30517578125
634993,0.01220703125,0.778076171875,0.6427001953125,0.7934569716453552,-0.1831054538488388,0.30517578125
635010,0.012939453125,0.778076171875,0.64306640625,0.7934569716453552,-0.1220703050494194,0.30517578125
635026,0.0123291015625,0.778076171875,0.6436767578125,0.7934569716453552,-0.1831054538488388,0.30517578125
635058,0.012939453125,0.7764892578125,0.6417236328125,0.7934569716453552,-0.1831054538488388,0.3662109076976776
635074,0.0125732421875,0.778564453125,0.6417236328125,0.7934569716453552,-0.1220703050494194,0.30517578125
635090,0.0108642578125,0.7781982421875,0.6412353515625,0.7934569716453552,-0.1831054538488388,0.30517578125
635106,0.01123046875,0.777587890625,0.6419677734375,0.7934569716453552,-0.1831054538488388,0.30517578125
635126,0.012451171875,0.77783203125,0.6416015625,0.7934569716453552,-0.1831054538488388,0.3662109076976776
635142,0.01220703125,0.7789306640625,0.6419677734375,0.7934569716453552,-0.1831054538488388,0.30517578125
635158,0.0123291015625,0.778076171875,0.642822265625,0.8544921278953552,-0.2441406100988388,0.30517578125
635174,0.0135498046875,0.778564453125,0.6427001953125,0.7934569716453552,-0.2441406100988388,0.2441406100988388
635190,0.0123291015625,0.77734375,0.641845703125,0.7934569716453552,-0.1831054538488388,0.2441406100988388
635206,0.0118408203125,0.7772216796875,0.6417236328125,0.7324218153953552,-0.1220703050494194,0.30517578125
635239,0.0133056640625,0.778564453125,0.6409912109375,0.7934569716453552,-0.2441406100988388,0.30517578125
635260,0.013671875,0.7783203125,0.6427001953125,0.7934569716453552,-0.2441406100988388,0.3662109076976776
635276,0.01220703125,0.7777099609375,0.641357421875,0.7324218153953552,-0.1831054538488388,0.30517578125
635293,0.0120849609375,0.7786865234375,0.6416015625,0.7324218153953552,-0.1831054538488388,0.30517578125
635310,0.0120849609375,0.7783203125,0.6419677734375,0.7324218153953552,-0.1220703050494194,0.30517578125
635326,0.01220703125,0.7779541015625,0.6416015625,0.7934569716453552,-0.1831054538488388,0.30517578125
635364,0.013427734375,0.7774658203125,0.642578125,0.7324218153953552,-0.1831054538488388,0.30517578125
635380,0.0125732421875,0.7783203125,0.641845703125,0.7324218153953552,-0.1831054538488388,0.30517578125
635396,0.01123046875,0.7786865234375,0.6412353515625,0.7934569716453552,-0.1220703050494194,0.2441406100988388
635409,0.0120849609375,0.7781982421875,0.64306640625,0.8544921278953552,-0.1831054538488388,0.2441406100988388
635433,0.0128173828125,0.77783203125,0.642578125,0.7934569716453552,-0.1831054538488388,0.3662109076976776
635449,0.011962890625,0.778076171875,0.642333984375,0.7934569716453552,-0.1831054538488388,0.3662109076976776
635466,0.01123046875,0.7784423828125,0.6424560546875,0.7934569716453552,-0.2441406100988388,0.3662109076976776
635483,0.01220703125,0.7781982421875,0.642578125,0.7934569716453552,-0.1831054538488388,0.3662109076976776
635499,0.0125732421875,0.77783203125,0.64208984375,0.7324218153953552,-0.1831054538488388,0.2441406100988388
635529,0.0123291015625,0.7783203125,0.6422119140625,0.8544921278953552,-0.1220703050494194,0.30517578125
635548,0.0115966796875,0.7783203125,0.6416015625,0.8544921278953552,-0.2441406100988388,0.30517578125
635569,0.0115966796875,0.7772216796875,0.6419677734375,0.7934569716453552,-0.2441406100988388,0.30517578125
635585,0.011474609375,0.77880859375,0.641357421875,0.7934569716453552,-0.1831054538488388,0.30517578125
635602,0.0125732421875,0.7781982421875,0.642333984375,0.7324218153953552,-0.1220703050494194,0.30517578125
635619,0.012939453125,0.778076171875,0.6424560546875,0.7934569716453552,-0.1831054538488388,0.30517578125
635652,0.013427734375,0.77685546875,0.6417236328125,0.7934569716453552,-0.1831054538488388,0.3662109076976776
635669,0.0135498046875,0.778076171875,0.6419677734375,0.7324218153953552,-0.1831054538488388,0.30517578125
635685,0.01171875,0.7784423828125,0.6424560546875,0.7324218153953552,-0.1831054538488388,0.2441406100988388
635715,0.012939453125,0.7791748046875,0.6414794921875,0.7934569716453552,-0.1831054538488388,0.3662109076976776
635737,0.0128173828125,0.7781982421875,0.6435546875,0.7934569716453552,-0.1831054538488388,0.2441406100988388
635753,0.0125732421875,0.7781982421875,0.6427001953125,0.7934569716453552,-0.1220703050494194,0.1831054538488388
635770,0.0128173828125,0.7789306640625,0.642578125,0.7324218153953552,-0.1831054538488388,0.2441406100988388
635787,0.0123291015625,0.779296875,0.6427001953125,0.7324218153953552,-0.2441406100988388,0.30517578125
635803,0.0123291015625,0.7791748046875,0.64208984375,0.8544921278953552,-0.1831054538488388,0.30517578125
635835,0.0111083984375,0.7786865234375,0.642822265625,0.7324218153953552,-0.1831054538488388,0.30517578125
635852,0.01220703125,0.7779541015625,0.642333984375,0.7934569716453552,-0.1831054538488388,0.30517578125
