tMillis,ax,ay,az,gx,gy,gz
16583,0.0399169921875,0.1510009765625,1.0128173828125,0.7324218153953552,-0.1831054538488388,0.30517578125
16600,0.039794921875,0.1510009765625,1.0133056640625,0.7324218153953552,-0.1831054538488388,0.30517578125
16618,0.040283203125,0.150634765625,1.0120849609375,0.7324218153953552,-0.1831054538488388,0.2441406100988388
16636,0.040283203125,0.15185546875,1.0130615234375,0.6713866591453552,-0.1831054538488388,0.30517578125
16654,0.0404052734375,0.151611328125,1.0147705078125,0.7324218153953552,-0.1831054538488388,0.2441406100988388
16673,0.0399169921875,0.1519775390625,1.0140380859375,0.7324218153953552,-0.1831054538488388,0.30517578125
16694,0.0401611328125,0.151611328125,1.012451171875,0.6713866591453552,-0.2441406100988388,0.30517578125
16711,0.0400390625,0.151123046875,1.013427734375,0.6713866591453552,-0.2441406100988388,0.30517578125
16730,0.0401611328125,0.1513671875,1.013671875,0.7324218153953552,-0.1831054538488388,0.30517578125
16749,0.0400390625,0.151611328125,1.0130615234375,0.6713866591453552,-0.1220703050494194,0.2441406100988388
16768,0.0411376953125,0.1510009765625,1.01416015625,0.6713866591453552,-0.1220703050494194,0.2441406100988388
16785,0.039794921875,0.1512451171875,1.01318359375,0.6713866591453552,-0.1831054538488388,0.2441406100988388
16805,0.039794921875,0.151611328125,1.01220703125,0.7324218153953552,-0.2441406100988388,0.2441406100988388
16824,0.03955078125,0.1522216796875,1.0133056640625,0.7324218153953552,-0.1220703050494194,0.30517578125
16842,0.041259765625,0.1510009765625,1.0126953125,0.7324218153953552,-0.2441406100988388,0.2441406100988388
16861,0.040771484375,0.1524658203125,1.0145263671875,0.7324218153953552,-0.2441406100988388,0.2441406100988388
16880,0.03955078125,0.151611328125,1.01318359375,0.7324218153953552,-0.1831054538488388,0.1831054538488388
16899,0.03955078125,0.1512451171875,1.013671875,0.7324218153953552,-0.2441406100988388,0.30517578125
16921,0.040283203125,0.150634765625,1.0133056640625,0.7934569716453552,-0.1831054538488388,0.30517578125
16938,0.0399169921875,0.1510009765625,1.013916015625,0.7324218153953552,-0.1831054538488388,0.30517578125
16955,0.0406494140625,0.1512451171875,1.01416015625,0.7324218153953552,-0.1831054538488388,0.2441406100988388
16974,0.040283203125,0.1514892578125,1.0135498046875,0.7324218153953552,-0.1831054538488388,0.2441406100988388
16993,0.0404052734375,0.1517333984375,1.0137939453125,0.7324218153953552,-0.1831054538488388,0.2441406100988388
17011,0.039794921875,0.15234375,1.0133056640625,0.7934569716453552,-0.1831054538488388,0.30517578125
17030,0.0401611328125,0.150634765625,1.0126953125,0.7324218153953552,-0.2441406100988388,0.2441406100988388
17054,0.039794921875,0.1507568359375,1.0123291015625,0.6713866591453552,-0.1831054538488388,0.30517578125
17070,0.0408935546875,0.15087890625,1.0146484375,0.7324218153953552,-0.1831054538488388,0.30517578125
17081,0.041015625,0.150634765625,1.0135498046875,0.7324218153953552,-0.1831054538488388,0.30517578125
17102,0.0400390625,0.1517333984375,1.0118408203125,0.6713866591453552,-0.1831054538488388,0.30517578125
17120,0.0396728515625,0.1522216796875,1.01318359375,0.7324218153953552,-0.1831054538488388,0.30517578125
17136,0.039306640625,0.1517333984375,1.0137939453125,0.6713866591453552,-0.1831054538488388,0.30517578125
17153,0.0400390625,0.15087890625,1.013427734375,0.7324218153953552,-0.1831054538488388,0.2441406100988388
17174,0.0411376953125,0.1522216796875,1.013671875,0.6713866591453552,-0.1220703050494194,0.30517578125
17190,0.0404052734375,0.151611328125,1.0123291015625,0.6713866591453552,-0.1220703050494194,0.30517578125
17207,0.040283203125,0.1513671875,1.0126953125,0.6713866591453552,-0.1831054538488388,0.30517578125
17223,0.0404052734375,0.1512451171875,1.012939453125,0.7324218153953552,-0.1220703050494194,0.30517578125
17239,0.040283203125,0.152587890625,1.013916015625,0.7934569716453552,-0.1831054538488388,0.30517578125
17258,0.040283203125,0.1517333984375,1.0125732421875,0.7324218153953552,-0.1831054538488388,0.30517578125
17277,0.04052734375,0.1514892578125,1.0123291015625,0.7324218153953552,-0.2441406100988388,0.30517578125
17300,0.0399169921875,0.151123046875,1.01318359375,0.7324218153953552,-0.2441406100988388,0.30517578125
17314,0.0404052734375,0.151611328125,1.0128173828125,0.6713866591453552,-0.1831054538488388,0.30517578125
17330,0.0411376953125,0.1517333984375,1.0128173828125,0.6713866591453552,-0.1220703050494194,0.30517578125
17349,0.040283203125,0.1513671875,1.0140380859375,0.7324218153953552,-0.1831054538488388,0.2441406100988388
17368,0.0384521484375,0.1507568359375,1.0133056640625,0.7324218153953552,-0.1831054538488388,0.1831054538488388
17387,0.039306640625,0.1505126953125,1.0140380859375,0.7324218153953552,-0.1831054538488388,0.2441406100988388
17405,0.0396728515625,0.1517333984375,1.0130615234375,0.7324218153953552,-0.1831054538488388,0.30517578125
17423,0.04052734375,0.151123046875,1.012451171875,0.7324218153953552,-0.1831054538488388,0.2441406100988388
17446,0.041259765625,0.1512451171875,1.0126953125,0.6713866591453552,-0.1220703050494194,0.2441406100988388
17462,0.0408935546875,0.151611328125,1.01318359375,0.6713866591453552,-0.1220703050494194,0.30517578125
17479,0.0404052734375,0.1502685546875,1.0126953125,0.7934569716453552,-0.1831054538488388,0.30517578125
17498,0.0400390625,0.1500244140625,1.011962890625,0.7934569716453552,-0.1831054538488388,0.30517578125
17519,0.0399169921875,0.1522216796875,1.0128173828125,0.7324218153953552,-0.1831054538488388,0.2441406100988388
17545,0.0406494140625,0.152099609375,1.011962890625,0.7324218153953552,-0.1831054538488388,0.2441406100988388
17558,0.039306640625,0.151611328125,1.01171875,0.7934569716453552,-0.1831054538488388,0.2441406100988388
17575,0.0396728515625,0.1517333984375,1.012451171875,0.7324218153953552,-0.1831054538488388,0.2441406100988388
17594,0.0401611328125,0.1510009765625,1.0150146484375,0.7324218153953552,-0.1831054538488388,0.2441406100988388
17612,0.038818359375,0.1507568359375,1.0133056640625,0.7324218153953552,-0.1831054538488388,0.2441406100988388
17632,0.039794921875,0.1512451171875,1.0137939453125,0.6713866591453552,-0.1220703050494194,0.30517578125
17653,0.0401611328125,0.1513671875,1.013916015625,0.6713866591453552,-0.1831054538488388,0.30517578125
17670,0.0400390625,0.151123046875,1.0126953125,0.6713866591453552,-0.1831054538488388,0.30517578125
17687,0.0396728515625,0.151123046875,1.012939453125,0.6713866591453552,-0.1831054538488388,0.30517578125
17703,0.0400390625,0.151611328125,1.0145263671875,0.7324218153953552,-0.1831054538488388,0.30517578125
17737,0.0401611328125,0.151123046875,1.0133056640625,0.6713866591453552,-0.1831054538488388,0.30517578125
17757,0.03955078125,0.1505126953125,1.012451171875,0.7324218153953552,-0.1220703050494194,0.30517578125
17779,0.0406494140625,0.1513671875,1.0130615234375,0.6713866591453552,-0.1220703050494194,0.30517578125
17795,0.0399169921875,0.1513671875,1.0123291015625,0.7934569716453552,-0.1831054538488388,0.30517578125
17809,0.0401611328125,0.1505126953125,1.0118408203125,0.7324218153953552,-0.2441406100988388,0.30517578125
17826,0.0404052734375,0.1505126953125,1.0123291015625,0.6713866591453552,-0.1831054538488388,0.30517578125
17859,0.0406494140625,0.151123046875,1.013427734375,0.7324218153953552,-0.2441406100988388,0.30517578125
17878,0.0408935546875,0.1510009765625,1.013671875,0.7934569716453552,-0.2441406100988388,0.30517578125
17894,0.04052734375,0.1512451171875,1.013671875,0.7324218153953552,-0.1220703050494194,0.30517578125
17930,0.03955078125,0.152099609375,1.0130615234375,0.7324218153953552,-0.2441406100988388,0.30517578125
17975,0.0401611328125,0.15087890625,1.0135498046875,0.7324218153953552,-0.1831054538488388,0.30517578125
17999,0.040771484375,0.1507568359375,1.0125732421875,0.7324218153953552,-0.1831054538488388,0.30517578125
18011,0.0404052734375,0.150634765625,1.0123291015625,0.7324218153953552,-0.1831054538488388,0.2441406100988388
18044,0.039794921875,0.15185546875,1.0118408203125,0.6713866591453552,-0.1220703050494194,0.2441406100988388
18061,0.0406494140625,0.1513671875,1.0130615234375,0.7324218153953552,-0.2441406100988388,0.2441406100988388
18078,0.0401611328125,0.1507568359375,1.0128173828125,0.7324218153953552,-0.2441406100988388,0.30517578125
18108,0.03955078125,0.150634765625,1.012451171875,0.7934569716453552,-0.2441406100988388,0.30517578125
18128,0.0389404296875,0.1500244140625,1.0125732421875,0.7324218153953552,-0.2441406100988388,0.2441406100988388
18144,0.03955078125,0.1514892578125,1.0147705078125,0.7324218153953552,-0.2441406100988388,0.2441406100988388
18156,0.0401611328125,0.1519775390625,1.014892578125,0.7324218153953552,-0.2441406100988388,0.2441406100988388
18175,0.0400390625,0.1510009765625,1.012451171875,0.7324218153953552,-0.2441406100988388,0.2441406100988388
18192,0.0399169921875,0.1514892578125,1.0135498046875,0.7934569716453552,-0.1831054538488388,0.30517578125
18209,0.0399169921875,0.1512451171875,1.0135498046875,0.7324218153953552,-0.1831054538488388,0.30517578125
18226,0.039794921875,0.150634765625,1.0130615234375,0.7324218153953552,-0.2441406100988388,0.30517578125
18242,0.0411376953125,0.150634765625,1.01220703125,0.7324218153953552,-0.1831054538488388,0.2441406100988388
18296,0.04052734375,0.1505126953125,1.01416015625,0.7324218153953552,-0.2441406100988388,0.30517578125
18313,0.0401611328125,0.1507568359375,1.0133056640625,0.7324218153953552,-0.2441406100988388,0.30517578125
18330,0.0399169921875,0.150634765625,1.013671875,0.6713866591453552,-0.1831054538488388,0.30517578125
18346,0.040283203125,0.1510009765625,1.0135498046875,0.7324218153953552,-0.1831054538488388,0.2441406100988388
18368,0.0399169921875,0.15087890625,1.013427734375,0.7324218153953552,-0.2441406100988388,0.2441406100988388
18384,0.0401611328125,0.15087890625,1.0130615234375,0.7324218153953552,-0.1831054538488388,0.2441406100988388
18401,0.0399169921875,0.1510009765625,1.013671875,0.7324218153953552,-0.1831054538488388,0.30517578125
18419,0.0400390625,0.15185546875,1.0137939453125,0.7934569716453552,-0.1831054538488388,0.30517578125
18436,0.0404052734375,0.15234375,1.0135498046875,0.6713866591453552,-0.1831054538488388,0.2441406100988388
18467,0.0396728515625,0.1517333984375,1.012451171875,0.7934569716453552,-0.1831054538488388,0.2441406100988388
18488,0.040771484375,0.151123046875,1.013671875,0.7324218153953552,-0.2441406100988388,0.30517578125
18504,0.0404052734375,0.150146484375,1.013671875,0.7324218153953552,-0.2441406100988388,0.30517578125
18516,0.0396728515625,0.15087890625,1.0137939453125,0.7324218153953552,-0.1831054538488388,0.2441406100988388
18536,0.0394287109375,0.1517333984375,1.014892578125,0.7324218153953552,-0.1831054538488388,0.2441406100988388
18586,0.0396728515625,0.15185546875,1.0128173828125,0.7324218153953552,-0.1831054538488388,0.30517578125
18603,0.0396728515625,0.150634765625,1.01318359375,0.7324218153953552,-0.1831054538488388,0.30517578125
18624,0.038818359375,0.15087890625,1.0130615234375,0.6713866591453552,-0.1831054538488388,0.2441406100988388
18640,0.03955078125,0.1517333984375,1.0128173828125,0.6713866591453552,-0.1831054538488388,0.30517578125
18659,0.0413818359375,0.149658203125,1.0120849609375,0.7934569716453552,-0.2441406100988388,0.30517578125
18676,0.0401611328125,0.1507568359375,1.013916015625,0.7934569716453552,-0.1831054538488388,0.2441406100988388
18707,0.040771484375,0.1512451171875,1.0126953125,0.7324218153953552,-0.2441406100988388,0.30517578125
18724,0.039794921875,0.1522216796875,1.013916015625,0.7324218153953552,-0.2441406100988388,0.2441406100988388
18740,0.0399169921875,0.15234375,1.0140380859375,0.7324218153953552,-0.2441406100988388,0.2441406100988388
18776,0.0399169921875,0.1513671875,1.0126953125,0.7324218153953552,-0.2441406100988388,0.2441406100988388
18824,0.040283203125,0.151123046875,1.013427734375,0.6713866591453552,-0.2441406100988388,0.30517578125
18842,0.0404052734375,0.1517333984375,1.0120849609375,0.6103515625,-0.2441406100988388,0.30517578125
18863,0.0399169921875,0.1510009765625,1.0130615234375,0.7324218153953552,-0.2441406100988388,0.30517578125
18879,0.039306640625,0.150390625,1.01318359375,0.7934569716453552,-0.1831054538488388,0.30517578125
18893,0.0404052734375,0.15185546875,1.0146484375,0.7324218153953552,-0.1831054538488388,0.2441406100988388
18910,0.0404052734375,0.1514892578125,1.013671875,0.7324218153953552,-0.1831054538488388,0.1831054538488388
18943,0.0391845703125,0.150634765625,1.0125732421875,0.7324218153953552,-0.1831054538488388,0.2441406100988388
18961,0.039306640625,0.1507568359375,1.0126953125,0.7324218153953552,-0.2441406100988388,0.30517578125
18983,0.0400390625,0.1517333984375,1.0142822265625,0.7324218153953552,-0.2441406100988388,0.30517578125
18999,0.04052734375,0.15087890625,1.013427734375,0.7324218153953552,-0.2441406100988388,0.30517578125
19016,0.0400390625,0.14990234375,1.013671875,0.7324218153953552,-0.2441406100988388,0.2441406100988388
19033,0.040771484375,0.14990234375,1.013671875,0.6713866591453552,-0.1831054538488388,0.30517578125
19066,0.040771484375,0.1522216796875,1.0130615234375,0.6713866591453552,-0.1831054538488388,0.30517578125
19083,0.0406494140625,0.1522216796875,1.01318359375,0.6713866591453552,-0.1831054538488388,0.2441406100988388
19099,0.038818359375,0.1513671875,1.0133056640625,0.6713866591453552,-0.1831054538488388,0.2441406100988388
19116,0.03857421875,0.15087890625,1.0128173828125,0.7324218153953552,-0.1831054538488388,0.30517578125
19185,0.041259765625,0.15087890625,1.014404296875,0.6713866591453552,-0.2441406100988388,0.2441406100988388
19217,0.0404052734375,0.150390625,1.01318359375,0.6713866591453552,-0.1831054538488388,0.2441406100988388
19280,0.041015625,0.1510009765625,1.01416015625,0.7324218153953552,-0.1220703050494194,0.2441406100988388
19320,0.040771484375,0.1512451171875,1.014892578125,0.7324218153953552,-0.2441406100988388,0.2441406100988388
19337,0.0399169921875,0.1502685546875,1.01123046875,0.7934569716453552,-0.2441406100988388,0.30517578125
19374,0.0404052734375,0.1502685546875,1.0140380859375,0.6713866591453552,-0.2441406100988388,0.30517578125
19391,0.04052734375,0.1512451171875,1.014404296875,0.7324218153953552,-0.1831054538488388,0.30517578125
19408,0.0404052734375,0.1527099609375,1.0137939453125,0.7934569716453552,-0.2441406100988388,0.30517578125
19424,0.0401611328125,0.1522216796875,1.013916015625,0.7324218153953552,-0.2441406100988388,0.30517578125
19443,0.040771484375,0.1507568359375,1.012451171875,0.7324218153953552,-0.2441406100988388,0.2441406100988388
19464,0.0390625,0.15087890625,1.0142822265625,0.7324218153953552,-0.1831054538488388,0.1831054538488388
19480,0.0396728515625,0.15185546875,1.0137939453125,0.7934569716453552,-0.1831054538488388,0.2441406100988388
19499,0.040283203125,0.1510009765625,1.0150146484375,0.7324218153953552,-0.2441406100988388,0.30517578125
19516,0.039794921875,0.1514892578125,1.0142822265625,0.7324218153953552,-0.1831054538488388,0.30517578125
19548,0.040283203125,0.151611328125,1.0123291015625,0.7324218153953552,-0.1831054538488388,0.2441406100988388
19565,0.04052734375,0.1517333984375,1.01318359375,0.7934569716453552,-0.1831054538488388,0.30517578125
19617,0.040771484375,0.1507568359375,1.012451171875,0.7324218153953552,-0.1220703050494194,0.2441406100988388
19639,0.0404052734375,0.150390625,1.0086669921875,0.7324218153953552,-0.1831054538488388,0.2441406100988388
19654,0.040283203125,0.15087890625,1.0123291015625,0.7324218153953552,-0.2441406100988388,0.30517578125
19673,0.040283203125,0.15087890625,1.01806640625,0.7324218153953552,-0.1831054538488388,0.30517578125
19722,0.0408935546875,0.150146484375,1.00341796875,0.7324218153953552,-0.1220703050494194,0.30517578125
19741,0.040283203125,0.1507568359375,1.0106201171875,0.6713866591453552,-0.1220703050494194,0.30517578125
19757,0.042236328125,0.151123046875,1.018310546875,0.7324218153953552,-0.2441406100988388,0.30517578125
19789,0.0389404296875,0.15185546875,1.0174560546875,0.7324218153953552,-0.1831054538488388,0.2441406100988388
19805,0.0390625,0.1512451171875,1.0150146484375,0.7324218153953552,-0.2441406100988388,0.30517578125
19857,0.039794921875,0.15185546875,1.0194091796875,0.7934569716453552,-0.2441406100988388,0.30517578125
19879,0.0389404296875,0.1513671875,1.0211181640625,0.7934569716453552,-0.1831054538488388,0.30517578125
19895,0.0401611328125,0.150634765625,1.0133056640625,0.7324218153953552,-0.1220703050494194,0.2441406100988388
19914,0.0423583984375,0.152099609375,1.0106201171875,0.7324218153953552,-0.2441406100988388,0.30517578125
19964,0.040771484375,0.1497802734375,1.010986328125,0.7324218153953552,-0.2441406100988388,0.2441406100988388
19982,0.0404052734375,0.1519775390625,1.0218505859375,0.7324218153953552,-0.1220703050494194,0.2441406100988388
20004,0.040771484375,0.152099609375,1.016845703125,0.7324218153953552,-0.2441406100988388,0.30517578125
20020,0.03955078125,0.150634765625,1.0106201171875,0.7324218153953552,-0.2441406100988388,0.30517578125
20039,0.03955078125,0.1502685546875,1.0089111328125,0.7324218153953552,-0.1831054538488388,0.30517578125
20056,0.04052734375,0.1502685546875,1.00927734375,0.6713866591453552,-0.1831054538488388,0.30517578125
20087,0.039306640625,0.15087890625,1.0174560546875,0.7934569716453552,-0.1831054538488388,0.30517578125
20104,0.03955078125,0.150634765625,1.0164794921875,0.6713866591453552,-0.1831054538488388,0.2441406100988388
20120,0.0394287109375,0.1512451171875,1.010986328125,0.7324218153953552,-0.2441406100988388,0.30517578125
20155,0.0396728515625,0.15087890625,1.0081787109375,0.7934569716453552,-0.1831054538488388,0.2441406100988388
20175,0.040771484375,0.1514892578125,1.0135498046875,0.7934569716453552,-0.1220703050494194,0.2441406100988388
20191,0.040771484375,0.1512451171875,1.0159912109375,0.7934569716453552,-0.1831054538488388,0.2441406100988388
20208,0.0404052734375,0.151123046875,1.0167236328125,0.7324218153953552,-0.1831054538488388,0.30517578125
20225,0.0404052734375,0.150146484375,1.013671875,0.7934569716453552,-0.1831054538488388,0.30517578125
20241,0.0404052734375,0.151123046875,1.0125732421875,0.7934569716453552,-0.1831054538488388,0.2441406100988388
20257,0.0400390625,0.150634765625,1.0128173828125,0.7324218153953552,-0.1831054538488388,0.2441406100988388
20278,0.038818359375,0.15087890625,1.01220703125,0.7934569716453552,-0.1831054538488388,0.30517578125
20295,0.03955078125,0.1505126953125,1.0115966796875,0.6713866591453552,-0.1831054538488388,0.2441406100988388
20316,0.0406494140625,0.1513671875,1.015625,0.6713866591453552,-0.1831054538488388,0.30517578125
20335,0.0399169921875,0.151611328125,1.0152587890625,0.7324218153953552,-0.2441406100988388,0.2441406100988388
20351,0.040771484375,0.1513671875,1.0096435546875,0.7324218153953552,-0.1831054538488388,0.2441406100988388
20384,0.04052734375,0.1497802734375,1.01416015625,0.7324218153953552,-0.1831054538488388,0.3662109076976776
20401,0.0406494140625,0.1514892578125,1.016357421875,0.7324218153953552,-0.1831054538488388,0.30517578125
20418,0.0406494140625,0.1519775390625,1.0157470703125,0.7324218153953552,-0.2441406100988388,0.2441406100988388
20447,0.0401611328125,0.15234375,1.013916015625,1.220703125,-0.1831054538488388,0.3662109076976776
20468,0.0400390625,0.150390625,1.0115966796875,1.4038084745407104,-0.1831054538488388,0.30517578125
20483,0.040283203125,0.1507568359375,1.0126953125,1.5258787870407104,-0.2441406100988388,0.2441406100988388
20495,0.0406494140625,0.153564453125,1.01318359375,1.5258787870407104,-0.2441406100988388,0.2441406100988388
20516,0.039306640625,0.153564453125,1.0135498046875,1.5869139432907104,-0.1831054538488388,0.30517578125
20531,0.039306640625,0.153076171875,1.01513671875,1.6479490995407104,-0.2441406100988388,0.2441406100988388
20548,0.0411376953125,0.158935546875,1.0133056640625,2.01416015625,-0.1831054538488388,0.1220703050494194
20565,0.041748046875,0.1590576171875,1.00537109375,2.807616949081421,-0.1220703050494194,0.30517578125
20582,0.0386962890625,0.15185546875,1.0087890625,3.356933355331421,0.2441406100988388,0.0610351525247097
20603,0.0396728515625,0.1600341796875,1.01171875,3.601073980331421,0.54931640625,0.0
20619,0.0408935546875,0.150634765625,1.009765625,4.33349609375,1.6479490995407104,-0.30517578125
20638,0.032470703125,0.1630859375,1.0108642578125,5.493163585662842,3.784179449081421,-0.9155272841453552
20655,0.049072265625,0.173828125,1.0418701171875,6.469726085662842,5.126952648162842,-1.15966796875
20688,0.0994873046875,0.27001953125,1.3458251953125,11.474608421325684,2.3193359375,-1.15966796875
20705,0.0894775390625,0.2117919921875,1.44287109375,15.258788108825684,-0.1831054538488388,-0.9155272841453552
20721,0.0863037109375,0.2684326171875,1.51318359375,19.34814453125,-2.197265625,-0.7934569716453552
20738,0.07470703125,0.21923828125,1.5189208984375,21.423337936401367,-2.563476324081421,-0.9765624403953552
20763,0.06005859375,0.19921875,1.4869384765625,24.291990280151367,-4.2724609375,-1.0986328125
20779,0.05029296875,0.161865234375,1.402099609375,25.878904342651367,-4.69970703125,-1.6479490995407104
20796,0.046875,0.148193359375,1.3525390625,26.245115280151367,-4.39453125,-1.7089842557907104
20816,0.03759765625,0.1424560546875,1.3642578125,26.123044967651367,-4.57763671875,-1.7089842557907104
20833,0.0286865234375,0.123779296875,1.3834228515625,25.512693405151367,-5.065917491912842,-1.9531248807907104
20866,0.024169921875,0.106689453125,1.3642578125,24.963376998901367,-6.103515148162842,-1.7089842557907104
20882,0.0184326171875,0.0780029296875,1.3367919921875,23.864744186401367,-5.920409679412842,-1.7089842557907104
20898,0.016357421875,0.06787109375,1.342529296875,23.498533248901367,-5.920409679412842,-1.7700194120407104
20934,0.0048828125,0.0478515625,1.3326416015625,21.728513717651367,-5.798339366912842,-2.0751953125
20950,0.004638671875,0.0421142578125,1.3284912109375,20.751951217651367,-5.798339366912842,-2.0751953125
20967,0.00537109375,0.0384521484375,1.2928466796875,19.1650390625,-5.676269054412842,-1.9531248807907104
21017,0.00537109375,0.01904296875,1.2457275390625,15.075682640075684,-4.57763671875,-1.9531248807907104
21060,0.013427734375,0.01416015625,1.1829833984375,11.291502952575684,-3.967284917831421,-1.8920897245407104
21072,0.01318359375,0.0118408203125,1.1436767578125,8.85009765625,-3.479003667831421,-1.8920897245407104
21105,0.017333984375,0.0206298828125,1.1138916015625,5.859374523162842,-3.479003667831421,-1.7700194120407104
21122,0.016845703125,0.020751953125,1.0467529296875,3.906249761581421,-3.601073980331421,-1.6479490995407104
21139,0.0164794921875,0.0186767578125,1.005859375,2.990722417831421,-3.417968511581421,-1.6479490995407104
21160,0.01904296875,0.0203857421875,0.9644775390625,0.9155272841453552,-2.929687261581421,-1.6479490995407104
21179,0.0184326171875,0.0333251953125,0.930908203125,-0.8544921278953552,-2.929687261581421,-1.5869139432907104
21195,0.018310546875,0.036865234375,0.88916015625,-1.7089842557907104,-2.868652105331421,-1.5258787870407104
21228,0.0203857421875,0.0372314453125,0.824462890625,-4.69970703125,-3.051757574081421,-1.220703125
21298,0.0186767578125,0.0487060546875,0.7005615234375,-7.873534679412842,-3.112792730331421,-0.9155272841453552
21320,0.01708984375,0.0516357421875,0.6534423828125,-8.48388671875,-3.112792730331421,-0.6103515625
21336,0.0157470703125,0.048828125,0.5941162109375,-8.72802734375,-3.173827886581421,-0.4882812201976776
21355,0.0150146484375,0.0443115234375,0.5426025390625,-9.3994140625,-2.990722417831421,-0.2441406100988388
21372,0.0157470703125,0.0382080078125,0.5234375,-9.94873046875,-2.746581792831421,0.0
21405,0.0101318359375,0.019775390625,0.47021484375,-11.474608421325684,-2.13623046875,0.1220703050494194
21422,0.0067138671875,0.01708984375,0.4796142578125,-11.901854515075684,-1.7700194120407104,0.2441406100988388
21438,0.0048828125,0.018798828125,0.4974365234375,-12.817381858825684,-1.3427733182907104,0.4882812201976776
21471,-0.0009765625,0.0137939453125,0.5595703125,-14.038084983825684,-0.6103515625,0.54931640625
21487,0.0052490234375,0.03369140625,0.6387939453125,-14.465331077575684,-0.1220703050494194,0.4882812201976776
21521,0.015625,0.0755615234375,0.7744140625,-13.977049827575684,0.30517578125,1.0986328125
21540,0.01513671875,0.0799560546875,0.875,-13.305663108825684,0.3662109076976776,1.3427733182907104
21556,0.0128173828125,0.07568359375,0.9461669921875,-12.268065452575684,0.1831054538488388,1.4648436307907104
21589,0.010986328125,0.0892333984375,0.99755859375,-10.681151390075684,0.3662109076976776,1.5258787870407104
21637,0.0028076171875,0.06689453125,1.0455322265625,-8.6669921875,0.6713866591453552,1.5869139432907104
21721,0.00341796875,0.0635986328125,0.9967041015625,-6.958007335662842,1.7089842557907104,1.8310545682907104
21738,-0.00048828125,0.048583984375,0.9859619140625,-6.896972179412842,1.8920897245407104,1.8310545682907104
21775,0.0035400390625,0.05908203125,0.9901123046875,-6.591796398162842,2.50244140625,1.6479490995407104
21791,0.0059814453125,0.0611572265625,0.9891357421875,-6.469726085662842,2.50244140625,1.7089842557907104
21808,0.0059814453125,0.06103515625,0.982177734375,-6.164550304412842,2.685546636581421,1.7700194120407104
21829,0.0089111328125,0.0679931640625,1.0023193359375,-5.493163585662842,2.929687261581421,1.8310545682907104
21846,0.01171875,0.0745849609375,1.0166015625,-5.126952648162842,2.929687261581421,1.7089842557907104
21863,0.0113525390625,0.07666015625,1.0174560546875,-4.33349609375,2.929687261581421,1.7089842557907104
21879,0.0142822265625,0.0902099609375,1.0223388671875,-3.234863042831421,3.051757574081421,1.7089842557907104
21898,0.0196533203125,0.094970703125,1.0416259765625,-1.9531248807907104,2.868652105331421,1.8920897245407104
21915,0.02197265625,0.0946044921875,1.039306640625,-0.6713866591453552,2.50244140625,1.8310545682907104
21953,0.025146484375,0.099365234375,1.0477294921875,1.4038084745407104,2.3193359375,1.8310545682907104
21970,0.027099609375,0.102783203125,1.0531005859375,2.929687261581421,1.8920897245407104,1.8310545682907104
21986,0.0244140625,0.10009765625,1.03662109375,3.662109136581421,1.6479490995407104,1.8310545682907104
22003,0.022216796875,0.0950927734375,1.0262451171875,4.94384765625,1.2817381620407104,1.7700194120407104
22022,0.02099609375,0.09033203125,1.018798828125,6.103515148162842,1.15966796875,1.7700194120407104
22038,0.0174560546875,0.0843505859375,1.010986328125,7.141112804412842,0.7934569716453552,1.6479490995407104
22073,0.018798828125,0.0794677734375,1.0001220703125,8.7890625,0.4272460639476776,1.5869139432907104
22089,0.0177001953125,0.0765380859375,0.988037109375,9.82666015625,0.0,1.4648436307907104
22106,0.0164794921875,0.0692138671875,0.9613037109375,10.253905296325684,-0.1831054538488388,1.4038084745407104
22123,0.01611328125,0.06640625,0.947265625,10.925292015075684,-0.4272460639476776,1.3427733182907104
22139,0.012939453125,0.0546875,0.9210205078125,11.169432640075684,-0.54931640625,1.3427733182907104
22156,0.0091552734375,0.0443115234375,0.8924560546875,11.413573265075684,-0.6103515625,1.15966796875
22192,0.0067138671875,0.0369873046875,0.8673095703125,11.291502952575684,-0.6103515625,0.9155272841453552
22207,0.0059814453125,0.03125,0.841796875,11.230467796325684,-0.6103515625,0.8544921278953552
22224,0.006591796875,0.027099609375,0.827392578125,10.742186546325684,-0.4272460639476776,0.7934569716453552
22241,0.0067138671875,0.0205078125,0.809814453125,9.8876953125,-0.0610351525247097,0.6103515625
22259,0.0093994140625,0.0179443359375,0.8203125,9.3994140625,0.1220703050494194,0.54931640625
22275,0.012939453125,0.0245361328125,0.8408203125,8.4228515625,0.1831054538488388,0.3662109076976776
22308,0.0125732421875,0.02294921875,0.8067626953125,7.507323741912842,-0.4272460639476776,0.3662109076976776
22330,0.004638671875,0.0087890625,0.7342529296875,7.080077648162842,-0.3662109076976776,0.30517578125
22346,0.0078125,0.0062255859375,0.73046875,5.798339366912842,0.4882812201976776,0.1220703050494194
22363,0.011962890625,0.00732421875,0.7618408203125,4.57763671875,1.220703125,0.0610351525247097
22380,0.019287109375,0.02001953125,0.8167724609375,4.08935546875,1.15966796875,-0.0610351525247097
22396,0.0213623046875,0.030517578125,0.7984619140625,3.234863042831421,0.4272460639476776,-0.1220703050494194
22427,0.0162353515625,0.027587890625,0.7381591796875,1.15966796875,1.5869139432907104,0.0
22443,0.0211181640625,0.0318603515625,0.7816162109375,0.6103515625,2.13623046875,-0.0610351525247097
22459,0.0296630859375,0.051513671875,0.89599609375,0.0610351525247097,2.197265625,-0.0610351525247097
22497,0.036865234375,0.078369140625,1.0074462890625,0.6103515625,0.0,0.1831054538488388
22547,0.027099609375,0.0657958984375,0.9276123046875,0.6103515625,1.4038084745407104,0.1220703050494194
22580,0.048095703125,0.1326904296875,1.1163330078125,1.8920897245407104,0.3662109076976776,0.0
22640,0.0279541015625,0.1087646484375,0.936767578125,4.8828125,-0.6713866591453552,0.8544921278953552
22684,0.0399169921875,0.12353515625,1.150146484375,6.347655773162842,-0.6103515625,1.2817381620407104
22701,0.0313720703125,0.122314453125,1.1455078125,7.080077648162842,-1.4038084745407104,1.4648436307907104
22718,0.016357421875,0.1085205078125,1.041015625,8.4228515625,-2.50244140625,1.7089842557907104
22737,0.01416015625,0.1029052734375,1.0201416015625,9.1552734375,-1.4648436307907104,1.7089842557907104
22753,0.0201416015625,0.1063232421875,1.066650390625,9.521484375,-0.30517578125,1.7089842557907104
22786,0.02978515625,0.1065673828125,1.209716796875,10.681151390075684,-0.9765624403953552,2.01416015625
22831,0.005126953125,0.07177734375,1.16748046875,12.878417015075684,-2.44140625,2.0751953125
22861,0.002197265625,0.0755615234375,1.103271484375,12.512206077575684,-1.7700194120407104,1.8920897245407104
22878,0.0096435546875,0.076416015625,1.1480712890625,11.901854515075684,-1.03759765625,2.13623046875
22915,0.0037841796875,0.046630859375,1.14208984375,11.047362327575684,-1.6479490995407104,2.44140625
22932,-0.006591796875,0.0240478515625,1.0755615234375,10.070799827575684,-0.7934569716453552,2.38037109375
22949,-0.006591796875,0.01220703125,1.085205078125,8.72802734375,0.3662109076976776,2.197265625
22970,-0.0057373046875,0.01171875,1.095703125,8.056640625,0.6103515625,2.01416015625
22987,-0.000732421875,0.02099609375,1.1019287109375,6.835937023162842,0.7934569716453552,2.01416015625
23004,0.0015869140625,0.0196533203125,1.0833740234375,5.615233898162842,1.03759765625,2.0751953125
23020,-0.001708984375,0.0103759765625,1.0421142578125,4.8828125,1.220703125,2.13623046875
23039,0.0029296875,0.0010986328125,1.0733642578125,2.38037109375,2.685546636581421,2.01416015625
23056,0.004638671875,-0.002197265625,1.0916748046875,1.6479490995407104,2.685546636581421,2.01416015625
23087,0.001953125,-0.0032958984375,1.1036376953125,-0.3662109076976776,2.50244140625,1.8920897245407104
23104,0.0009765625,-0.003662109375,1.0980224609375,-1.6479490995407104,2.929687261581421,1.7700194120407104
23115,0.0054931640625,-0.0081787109375,1.1298828125,-2.197265625,3.234863042831421,1.8310545682907104
23149,0.019287109375,-0.0015869140625,1.151123046875,-4.08935546875,2.624511480331421,1.6479490995407104
23196,0.015869140625,-0.0059814453125,1.0447998046875,-6.408690929412842,3.234863042831421,1.7700194120407104
23218,0.02001953125,-0.0103759765625,1.111328125,-7.629394054412842,4.0283203125,1.7089842557907104
23235,0.026611328125,-0.0064697265625,1.135498046875,-8.72802734375,3.601073980331421,1.6479490995407104
23267,0.04248046875,0.0081787109375,1.1312255859375,-9.3994140625,2.868652105331421,1.8920897245407104
23283,0.044189453125,0.0035400390625,1.0985107421875,-10.070799827575684,2.685546636581421,2.01416015625
23300,0.0443115234375,-0.002197265625,1.0885009765625,-10.681151390075684,2.807616949081421,1.9531248807907104
23336,0.052490234375,0.0113525390625,1.1202392578125,-11.535643577575684,2.197265625,1.9531248807907104
23357,0.050537109375,0.0150146484375,1.10400390625,-11.962889671325684,1.220703125,2.13623046875
23373,0.044189453125,0.014892578125,1.0576171875,-12.145995140075684,0.9155272841453552,2.0751953125
23392,0.0479736328125,0.0167236328125,1.0743408203125,-12.329100608825684,1.0986328125,2.01416015625
23409,0.0517578125,0.0250244140625,1.094970703125,-12.268065452575684,0.7324218153953552,1.8310545682907104
23475,0.035888671875,0.0384521484375,1.0301513671875,-10.437010765075684,-0.7934569716453552,1.5869139432907104
23520,0.0423583984375,0.0672607421875,1.1016845703125,-8.6669921875,-0.54931640625,0.9765624403953552
23536,0.040771484375,0.0816650390625,1.115234375,-6.774901866912842,-1.03759765625,0.8544921278953552
23569,0.0303955078125,0.0650634765625,1.04296875,-4.638671875,-0.9155272841453552,0.4882812201976776
23619,-0.0504150390625,0.05029296875,0.917236328125,-3.906249761581421,2.3193359375,-0.6103515625
23644,0.025146484375,0.09375,0.917236328125,-10.253905296325684,7.751464366912842,-1.3427733182907104
23660,0.053955078125,0.0826416015625,1.02294921875,-6.835937023162842,8.97216796875,-1.5258787870407104
23677,0.0487060546875,0.0723876953125,1.020263671875,-7.202147960662842,7.446288585662842,-1.5869139432907104
23696,0.050048828125,0.0946044921875,1.0052490234375,-4.94384765625,7.385253429412842,-2.0751953125
23746,0.03515625,0.08935546875,0.8128662109375,-11.535643577575684,-4.08935546875,-0.1220703050494194
23763,0.0355224609375,0.0584716796875,0.8187255859375,-13.732909202575684,-1.7089842557907104,-0.1220703050494194
23784,0.046630859375,0.136474609375,1.016845703125,-12.817381858825684,-2.624511480331421,-0.4272460639476776
23800,0.009765625,0.114501953125,0.91064453125,-9.1552734375,-4.33349609375,-0.0610351525247097
23819,-0.013916015625,0.1424560546875,0.7779541015625,-3.784179449081421,-1.15966796875,-0.1831054538488388
23836,0.024658203125,0.1077880859375,0.822509765625,1.9531248807907104,3.967284917831421,-0.4882812201976776
23866,0.117919921875,0.1610107421875,1.35986328125,-6.225585460662842,-4.2724609375,1.03759765625
23883,0.003662109375,0.0789794921875,0.5926513671875,-4.39453125,-0.6713866591453552,1.03759765625
23899,0.0084228515625,0.0855712890625,0.8970947265625,-2.868652105331421,1.0986328125,0.7324218153953552
23932,0.045166015625,0.084716796875,0.874755859375,-5.615233898162842,-0.9765624403953552,0.4272460639476776
23951,0.046630859375,0.1243896484375,0.9620361328125,-5.493163585662842,-0.30517578125,0.4272460639476776
23967,0.0447998046875,0.1331787109375,1.079833984375,-5.676269054412842,-1.15966796875,0.54931640625
23984,0.0303955078125,0.1312255859375,0.9549560546875,-5.676269054412842,-1.03759765625,0.6713866591453552
24050,0.046142578125,0.1400146484375,1.0205078125,-7.507323741912842,-0.2441406100988388,0.4882812201976776
24066,0.0367431640625,0.136474609375,1.0216064453125,-7.812499523162842,-0.1831054538488388,0.7324218153953552
24083,0.0389404296875,0.139892578125,1.0086669921875,-8.11767578125,-0.1220703050494194,0.8544921278953552
24104,0.0404052734375,0.129638671875,1.0091552734375,-8.30078125,-0.1220703050494194,0.8544921278953552
24120,0.0419921875,0.1416015625,1.019775390625,-8.72802734375,-0.1220703050494194,0.6713866591453552
24174,0.0396728515625,0.1630859375,1.01123046875,-7.934569835662842,0.0610351525247097,0.6713866591453552
24191,0.041748046875,0.1630859375,1.00732421875,-7.446288585662842,0.0,0.6103515625
24208,0.0426025390625,0.165283203125,1.0135498046875,-6.713866710662842,-0.0610351525247097,0.54931640625
24225,0.042724609375,0.178466796875,1.0042724609375,-5.798339366912842,-0.0610351525247097,0.54931640625
24248,0.0430908203125,0.188720703125,1.010498046875,-4.45556640625,-0.1831054538488388,0.4272460639476776
24264,0.042236328125,0.1884765625,1.0052490234375,-3.601073980331421,-0.1831054538488388,0.4882812201976776
24276,0.0416259765625,0.18798828125,1.0037841796875,-1.8920897245407104,-0.2441406100988388,0.4272460639476776
24296,0.04248046875,0.187255859375,1.0093994140625,-1.0986328125,-0.3662109076976776,0.4272460639476776
24313,0.041015625,0.1881103515625,1.00439453125,1.2817381620407104,-0.30517578125,0.2441406100988388
24330,0.04052734375,0.1871337890625,1.001708984375,2.0751953125,-0.30517578125,0.2441406100988388
24346,0.04150390625,0.1824951171875,1.01611328125,3.356933355331421,-0.3662109076976776,0.1831054538488388
24408,0.0401611328125,0.1700439453125,1.009765625,5.859374523162842,-0.4882812201976776,0.0610351525247097
24424,0.0419921875,0.1669921875,1.0062255859375,6.103515148162842,-0.54931640625,0.0610351525247097
24441,0.0416259765625,0.1624755859375,1.0135498046875,6.469726085662842,-0.4882812201976776,0.1220703050494194
24458,0.041259765625,0.1541748046875,1.0086669921875,6.469726085662842,-0.4272460639476776,0.1220703050494194
24483,0.0401611328125,0.1488037109375,1.0142822265625,6.225585460662842,-0.4272460639476776,0.1220703050494194
24499,0.0404052734375,0.150390625,1.0133056640625,5.798339366912842,-0.4272460639476776,0.1220703050494194
24516,0.0386962890625,0.14404296875,1.0125732421875,5.615233898162842,-0.3662109076976776,0.1831054538488388
24535,0.038330078125,0.1412353515625,1.015869140625,4.94384765625,-0.30517578125,0.1831054538488388
24552,0.041015625,0.133056640625,1.01513671875,3.967284917831421,-0.2441406100988388,0.1220703050494194
24585,0.0389404296875,0.1356201171875,1.013916015625,1.9531248807907104,-0.30517578125,0.1831054538488388
24604,0.038330078125,0.1373291015625,1.013916015625,1.0986328125,-0.2441406100988388,0.2441406100988388
24620,0.0389404296875,0.1365966796875,1.014892578125,0.7324218153953552,-0.1831054538488388,0.30517578125
24649,0.0401611328125,0.1392822265625,1.0166015625,-0.2441406100988388,-0.1831054538488388,0.3662109076976776
24665,0.0411376953125,0.1441650390625,1.014892578125,-0.4882812201976776,-0.1831054538488388,0.30517578125
24682,0.04150390625,0.146240234375,1.01416015625,-0.7934569716453552,-0.1831054538488388,0.3662109076976776
24731,0.0399169921875,0.1474609375,1.0128173828125,-1.4038084745407104,-0.1831054538488388,0.3662109076976776
24783,0.0400390625,0.15966796875,1.010498046875,-1.4648436307907104,-0.1220703050494194,0.4882812201976776
24795,0.0399169921875,0.1541748046875,1.01318359375,-1.3427733182907104,-0.2441406100988388,0.30517578125
24827,0.0421142578125,0.154296875,1.0133056640625,-0.9155272841453552,-0.1831054538488388,0.2441406100988388
24843,0.0411376953125,0.16064453125,1.0120849609375,-0.7934569716453552,-0.30517578125,0.30517578125
24859,0.0390625,0.1561279296875,1.0115966796875,-0.54931640625,-0.3662109076976776,0.3662109076976776
24897,0.0413818359375,0.158447265625,1.0126953125,-0.0610351525247097,-0.3662109076976776,0.4272460639476776
24913,0.0400390625,0.16064453125,1.0098876953125,0.1220703050494194,-0.3662109076976776,0.3662109076976776
24930,0.03759765625,0.1575927734375,1.0113525390625,0.4272460639476776,-0.3662109076976776,0.30517578125
24947,0.04150390625,0.165771484375,1.01123046875,0.6713866591453552,-0.3662109076976776,0.2441406100988388
24963,0.042236328125,0.1668701171875,1.01220703125,1.220703125,-0.30517578125,0.2441406100988388
24980,0.04052734375,0.1702880859375,1.0103759765625,2.01416015625,-0.3662109076976776,0.2441406100988388
25017,0.0394287109375,0.1680908203125,1.012939453125,3.540038824081421,-0.4882812201976776,0.1220703050494194
25039,0.04296875,0.1614990234375,1.01025390625,3.967284917831421,-0.4272460639476776,0.2441406100988388
25055,0.0389404296875,0.158203125,1.013916015625,4.57763671875,-0.4272460639476776,0.1831054538488388
25075,0.0377197265625,0.15087890625,1.013916015625,4.94384765625,-0.4882812201976776,0.1831054538488388
25092,0.03857421875,0.1527099609375,1.013671875,5.0048828125,-0.3662109076976776,0.0610351525247097
25125,0.0379638671875,0.1439208984375,1.01220703125,4.94384765625,-0.4882812201976776,0.1220703050494194
25142,0.038330078125,0.1414794921875,1.0164794921875,4.82177734375,-0.4882812201976776,0.1220703050494194
25158,0.040283203125,0.14111328125,1.0167236328125,4.5166015625,-0.3662109076976776,0.1220703050494194
25188,0.039306640625,0.1387939453125,1.015380859375,4.08935546875,-0.3662109076976776,0.2441406100988388
25207,0.0377197265625,0.1351318359375,1.016357421875,3.906249761581421,-0.3662109076976776,0.2441406100988388
25223,0.037841796875,0.1339111328125,1.0147705078125,3.417968511581421,-0.3662109076976776,0.1831054538488388
25240,0.0390625,0.1337890625,1.015869140625,2.929687261581421,-0.3662109076976776,0.30517578125
25259,0.03857421875,0.132080078125,1.017578125,2.624511480331421,-0.30517578125,0.30517578125
25276,0.039306640625,0.1337890625,1.015869140625,1.8310545682907104,-0.4272460639476776,0.1831054538488388
25309,0.0390625,0.131591796875,1.016357421875,1.2817381620407104,-0.1831054538488388,0.30517578125
25325,0.0380859375,0.131103515625,1.015625,0.9765624403953552,-0.1831054538488388,0.30517578125
25363,0.039794921875,0.1343994140625,1.018310546875,0.1220703050494194,-0.1831054538488388,0.2441406100988388
25379,0.0382080078125,0.1375732421875,1.0147705078125,0.0,-0.2441406100988388,0.30517578125
25429,0.039794921875,0.1427001953125,1.0145263671875,0.0610351525247097,-0.1831054538488388,0.2441406100988388
25479,0.038330078125,0.1402587890625,1.01513671875,0.30517578125,-0.1220703050494194,0.2441406100988388
25501,0.037841796875,0.139892578125,1.0157470703125,0.30517578125,-0.1220703050494194,0.2441406100988388
25518,0.039794921875,0.1416015625,1.0146484375,0.30517578125,-0.1831054538488388,0.1831054538488388
25553,0.0367431640625,0.14794921875,1.0142822265625,0.7324218153953552,-0.2441406100988388,0.2441406100988388
25570,0.0379638671875,0.1474609375,1.0125732421875,1.2817381620407104,-0.1831054538488388,0.2441406100988388
25587,0.0408935546875,0.1439208984375,1.0152587890625,1.6479490995407104,-0.1831054538488388,0.2441406100988388
25603,0.041015625,0.142578125,1.0166015625,1.7700194120407104,-0.1220703050494194,0.2441406100988388
25626,0.036376953125,0.140380859375,1.013916015625,1.8920897245407104,-0.1220703050494194,0.2441406100988388
25672,0.0430908203125,0.1412353515625,1.0142822265625,2.197265625,-0.30517578125,0.2441406100988388
25746,0.0423583984375,0.134765625,1.0145263671875,2.624511480331421,-0.30517578125,0.1831054538488388
25763,0.0377197265625,0.13427734375,1.0145263671875,2.50244140625,-0.2441406100988388,0.1831054538488388
25780,0.0360107421875,0.133544921875,1.017333984375,2.38037109375,-0.1831054538488388,0.1831054538488388
25799,0.03955078125,0.1317138671875,1.0164794921875,2.197265625,-0.1220703050494194,0.30517578125
25815,0.0400390625,0.131591796875,1.0164794921875,1.9531248807907104,-0.1831054538488388,0.30517578125
25847,0.0377197265625,0.1334228515625,1.017333984375,1.7700194120407104,-0.2441406100988388,0.1831054538488388
25868,0.0377197265625,0.13330078125,1.0164794921875,1.5869139432907104,-0.1831054538488388,0.2441406100988388
25884,0.03857421875,0.12890625,1.0159912109375,1.4038084745407104,-0.1831054538488388,0.30517578125
25901,0.037841796875,0.128173828125,1.0166015625,1.15966796875,-0.2441406100988388,0.30517578125
25920,0.037841796875,0.129150390625,1.0169677734375,0.7324218153953552,-0.2441406100988388,0.2441406100988388
25967,0.037841796875,0.1309814453125,1.014892578125,-0.1220703050494194,-0.2441406100988388,0.2441406100988388
25988,0.03857421875,0.1317138671875,1.0159912109375,-0.2441406100988388,-0.1220703050494194,0.30517578125
26021,0.0386962890625,0.1348876953125,1.0157470703125,-0.30517578125,-0.0610351525247097,0.30517578125
26040,0.037109375,0.1357421875,1.013916015625,-0.30517578125,-0.1220703050494194,0.30517578125
26057,0.0391845703125,0.1361083984375,1.012939453125,-0.3662109076976776,-0.0610351525247097,0.3662109076976776
26090,0.0382080078125,0.1339111328125,1.017333984375,-0.4882812201976776,0.0,0.2441406100988388
26106,0.0372314453125,0.1353759765625,1.0150146484375,-0.4882812201976776,0.0,0.30517578125
26122,0.0390625,0.136474609375,1.0155029296875,-0.54931640625,0.1220703050494194,0.3662109076976776
26139,0.041259765625,0.1357421875,1.01513671875,-0.6713866591453552,0.0610351525247097,0.3662109076976776
26164,0.0369873046875,0.132080078125,1.016357421875,-0.8544921278953552,0.1831054538488388,0.3662109076976776
26180,0.0372314453125,0.132568359375,1.014892578125,-1.03759765625,0.30517578125,0.30517578125
26197,0.038330078125,0.1337890625,1.01513671875,-1.4038084745407104,0.4272460639476776,0.30517578125
26216,0.0394287109375,0.13720703125,1.011962890625,-1.6479490995407104,0.4882812201976776,0.30517578125
26233,0.04052734375,0.1427001953125,1.0159912109375,-1.7089842557907104,0.54931640625,0.3662109076976776
26266,0.0404052734375,0.138427734375,1.010009765625,-1.6479490995407104,1.4648436307907104,0.0610351525247097
26282,0.041748046875,0.15087890625,1.00927734375,-1.220703125,2.624511480331421,-0.30517578125
26299,0.041259765625,0.168212890625,1.0208740234375,-0.7324218153953552,3.234863042831421,-0.4882812201976776
26320,0.042236328125,0.1790771484375,1.0264892578125,0.9765624403953552,4.0283203125,-0.54931640625
26339,0.0657958984375,0.1715087890625,1.029296875,2.563476324081421,5.187987804412842,-0.3662109076976776
26354,0.1134033203125,0.2047119140625,1.2906494140625,3.356933355331421,3.295898199081421,-0.8544921278953552
26386,0.1112060546875,0.2283935546875,1.4486083984375,6.408690929412842,-0.1220703050494194,-0.6713866591453552
26402,0.113525390625,0.246337890625,1.4520263671875,7.629394054412842,-0.8544921278953552,-0.6713866591453552
26419,0.11083984375,0.2471923828125,1.448974609375,8.544921875,-1.4648436307907104,-0.8544921278953552
26457,0.0982666015625,0.24462890625,1.407470703125,11.413573265075684,-2.3193359375,-1.4038084745407104
26473,0.1031494140625,0.265869140625,1.4569091796875,12.512206077575684,-2.197265625,-1.4038084745407104
26490,0.097412109375,0.252197265625,1.47265625,14.709471702575684,-3.173827886581421,-1.15966796875
26506,0.0882568359375,0.232177734375,1.443115234375,16.357421875,-4.08935546875,-1.03759765625
26523,0.076416015625,0.1962890625,1.4127197265625,16.78466796875,-3.906249761581421,-1.3427733182907104
26540,0.068359375,0.18603515625,1.418701171875,16.9677734375,-3.906249761581421,-1.5869139432907104
26576,0.0589599609375,0.18359375,1.3990478515625,17.15087890625,-3.906249761581421,-1.5258787870407104
26592,0.0672607421875,0.158935546875,1.428955078125,17.02880859375,-3.784179449081421,-1.4038084745407104
26609,0.064453125,0.1337890625,1.4136962890625,16.05224609375,-4.638671875,-1.2817381620407104
26626,0.04443359375,0.104248046875,1.34130859375,14.343260765075684,-4.638671875,-1.6479490995407104
26642,0.0294189453125,0.097412109375,1.3155517578125,13.366698265075684,-4.33349609375,-1.7089842557907104
26659,0.029296875,0.1082763671875,1.331787109375,11.657713890075684,-3.906249761581421,-1.7700194120407104
26692,0.0321044921875,0.0966796875,1.26318359375,7.995604991912842,-4.69970703125,-1.4648436307907104
26708,0.02685546875,0.0931396484375,1.2294921875,6.835937023162842,-4.39453125,-1.4038084745407104
26725,0.0230712890625,0.0941162109375,1.2294921875,4.69970703125,-4.21142578125,-1.220703125
26746,0.0191650390625,0.0885009765625,1.188232421875,2.624511480331421,-4.7607421875,-0.9155272841453552
26758,0.0155029296875,0.076171875,1.110595703125,1.5258787870407104,-4.94384765625,-0.7934569716453552
26775,0.0135498046875,0.0660400390625,1.0667724609375,0.4272460639476776,-5.0048828125,-0.6713866591453552
26807,0.0030517578125,0.0506591796875,0.9595947265625,-4.8828125,-4.0283203125,-0.54931640625
26823,-0.0028076171875,0.048583984375,0.9141845703125,-7.141112804412842,-3.662109136581421,-0.3662109076976776
26839,-0.003662109375,0.05078125,0.889404296875,-8.1787109375,-3.601073980331421,-0.2441406100988388
26872,-0.0054931640625,0.04296875,0.746337890625,-11.779784202575684,-3.845214605331421,0.1220703050494194
26893,-0.0054931640625,0.0338134765625,0.700439453125,-12.695311546325684,-3.784179449081421,0.1220703050494194
26909,-0.0072021484375,0.0355224609375,0.6087646484375,-14.282225608825684,-3.540038824081421,0.4272460639476776
26925,-0.0098876953125,0.0252685546875,0.525146484375,-15.624999046325684,-3.051757574081421,0.4272460639476776
26941,-0.0079345703125,0.0264892578125,0.4716796875,-16.2353515625,-2.624511480331421,0.54931640625
26958,-0.008056640625,0.0235595703125,0.4544677734375,-17.2119140625,-2.25830078125,0.7324218153953552
26992,-0.011962890625,0.0198974609375,0.3714599609375,-18.37158203125,-1.5258787870407104,1.0986328125
27013,-0.0108642578125,0.019287109375,0.36181640625,-18.5546875,-1.15966796875,1.15966796875
27025,-0.010498046875,0.0089111328125,0.364501953125,-18.73779296875,-0.6713866591453552,1.03759765625
27042,-0.0164794921875,0.0062255859375,0.383056640625,-18.73779296875,-0.3662109076976776,0.9765624403953552
27061,-0.013427734375,0.0213623046875,0.455078125,-18.6767578125,0.3662109076976776,0.7934569716453552
27077,-0.00927734375,0.030517578125,0.5030517578125,-18.12744140625,1.03759765625,0.6713866591453552
27107,0.005859375,0.0758056640625,0.707763671875,-16.90673828125,0.6713866591453552,0.7324218153953552
27129,-0.001708984375,0.087646484375,0.7757568359375,-15.930174827575684,0.4272460639476776,0.8544921278953552
27145,-0.003662109375,0.107177734375,0.873291015625,-15.380858421325684,0.54931640625,0.8544921278953552
27162,-0.00048828125,0.124267578125,0.941650390625,-14.221190452575684,0.1220703050494194,0.7934569716453552
27180,0.0013427734375,0.130859375,0.95263671875,-12.695311546325684,-0.30517578125,0.7324218153953552
27197,0.004638671875,0.1475830078125,0.97314453125,-10.986327171325684,-0.1831054538488388,0.6713866591453552
27230,0.000732421875,0.1614990234375,1.020263671875,-7.995604991912842,-0.30517578125,0.7324218153953552
27247,0.000732421875,0.1588134765625,1.003662109375,-6.286620616912842,-0.3662109076976776,0.6713866591453552
27280,0.009765625,0.1712646484375,1.0164794921875,-3.723144292831421,-0.30517578125,0.54931640625
27298,0.0067138671875,0.172607421875,1.0009765625,-1.9531248807907104,-0.3662109076976776,0.6713866591453552
27315,0.0054931640625,0.1724853515625,1.0103759765625,-0.3662109076976776,-0.30517578125,0.54931640625
27347,0.0089111328125,0.177490234375,1.0130615234375,1.8920897245407104,-0.6713866591453552,0.6713866591453552
27364,0.0126953125,0.1739501953125,1.0009765625,3.417968511581421,-0.7934569716453552,0.7324218153953552
27384,0.01416015625,0.1768798828125,1.0074462890625,4.21142578125,-0.7934569716453552,0.7934569716453552
27396,0.01513671875,0.17822265625,1.0289306640625,5.920409679412842,-1.2817381620407104,0.9765624403953552
27417,0.011474609375,0.1759033203125,1.0257568359375,6.774901866912842,-1.5258787870407104,1.03759765625
27433,0.0113525390625,0.1717529296875,1.0174560546875,8.36181640625,-1.7700194120407104,1.0986328125
27450,0.01220703125,0.1715087890625,1.0169677734375,9.6435546875,-1.9531248807907104,1.15966796875
27467,0.0130615234375,0.1697998046875,1.0274658203125,10.803221702575684,-2.38037109375,1.220703125
27484,0.0140380859375,0.1640625,1.0301513671875,11.718749046325684,-2.868652105331421,1.4038084745407104
27503,0.0126953125,0.162353515625,1.0238037109375,12.145995140075684,-3.051757574081421,1.4648436307907104
27519,0.0118408203125,0.1602783203125,1.0142822265625,12.695311546325684,-3.173827886581421,1.4038084745407104
27538,0.009033203125,0.1583251953125,1.0140380859375,13.183592796325684,-3.356933355331421,1.4648436307907104
27555,0.003173828125,0.1524658203125,1.008544921875,13.366698265075684,-3.479003667831421,1.4648436307907104
27588,0.001953125,0.136962890625,0.9853515625,13.305663108825684,-3.540038824081421,1.4648436307907104
27605,-0.00048828125,0.1239013671875,0.9625244140625,13.061522483825684,-3.356933355331421,1.2817381620407104
27622,-0.0001220703125,0.122314453125,0.959716796875,12.939452171325684,-3.295898199081421,1.220703125
27642,-0.00244140625,0.1134033203125,0.9346923828125,12.512206077575684,-3.112792730331421,1.0986328125
27659,-0.0030517578125,0.102294921875,0.916259765625,12.023924827575684,-2.685546636581421,0.9765624403953552
27676,-0.0052490234375,0.0909423828125,0.9031982421875,11.718749046325684,-2.563476324081421,0.9155272841453552
27706,-0.0096435546875,0.0914306640625,0.8814697265625,10.742186546325684,-1.8920897245407104,0.54931640625
27723,-0.0103759765625,0.093017578125,0.8756103515625,10.437010765075684,-1.7089842557907104,0.4882812201976776
27739,-0.011474609375,0.0888671875,0.8695068359375,9.70458984375,-1.3427733182907104,0.4882812201976776
27777,-0.0147705078125,0.0819091796875,0.8662109375,8.30078125,-0.7934569716453552,0.3662109076976776
27788,-0.0145263671875,0.08349609375,0.8663330078125,7.019042491912842,-0.1831054538488388,0.2441406100988388
27805,-0.0111083984375,0.091064453125,0.8951416015625,6.408690929412842,0.0,0.30517578125
27822,-0.011474609375,0.095703125,0.904541015625,5.065917491912842,0.2441406100988388,0.3662109076976776
27839,-0.0137939453125,0.0966796875,0.917236328125,3.906249761581421,0.4272460639476776,0.4882812201976776
27855,-0.0174560546875,0.0875244140625,0.916748046875,2.624511480331421,0.7934569716453552,0.6103515625
27891,-0.012451171875,0.0819091796875,0.9271240234375,0.7324218153953552,1.03759765625,0.6103515625
27908,-0.008056640625,0.0789794921875,0.9256591796875,-0.4272460639476776,1.3427733182907104,0.6103515625
27944,-0.0009765625,0.06494140625,0.908935546875,-2.38037109375,0.9765624403953552,0.6713866591453552
27956,-0.001220703125,0.0635986328125,0.8984375,-3.784179449081421,0.9155272841453552,0.6103515625
27972,-0.002685546875,0.0621337890625,0.885986328125,-4.57763671875,1.03759765625,0.6103515625
28006,0.0003662109375,0.083984375,0.9366455078125,-6.225585460662842,1.2817381620407104,0.1831054538488388
28023,0.0009765625,0.1009521484375,0.950439453125,-6.164550304412842,0.8544921278953552,0.1831054538488388
28044,0.0,0.120849609375,0.9324951171875,-5.615233898162842,-0.0610351525247097,0.2441406100988388
28060,-0.0059814453125,0.1187744140625,0.8472900390625,-5.310058116912842,-0.1831054538488388,0.3662109076976776
28074,-0.00390625,0.0997314453125,0.815185546875,-5.310058116912842,0.4882812201976776,0.1831054538488388
28091,0.0013427734375,0.0994873046875,0.858154296875,-5.371093273162842,1.8920897245407104,-0.0610351525247097
28124,0.0062255859375,0.1229248046875,1.073486328125,-4.33349609375,1.5869139432907104,-0.54931640625
28143,0.0037841796875,0.135009765625,1.0606689453125,-2.929687261581421,-0.1220703050494194,-0.7324218153953552
28159,0.0030517578125,0.1357421875,0.954833984375,-1.4648436307907104,-0.30517578125,-0.6103515625
28180,0.01123046875,0.13427734375,0.919921875,-0.4882812201976776,0.9155272841453552,-0.7324218153953552
28199,0.0123291015625,0.12890625,0.97900390625,-0.0610351525247097,1.220703125,-0.7934569716453552
28215,0.0120849609375,0.136474609375,1.001220703125,0.7934569716453552,0.7934569716453552,-1.03759765625
28247,0.0157470703125,0.1456298828125,0.9345703125,2.3193359375,-0.2441406100988388,-1.0986328125
28312,0.01611328125,0.1622314453125,0.9971923828125,4.33349609375,0.6713866591453552,-1.220703125
28380,0.00830078125,0.148681640625,0.9820556640625,6.835937023162842,0.8544921278953552,-1.2817381620407104
28392,0.0059814453125,0.1346435546875,0.9375,7.141112804412842,0.9155272841453552,-1.2817381620407104
28425,0.019775390625,0.1361083984375,1.0042724609375,7.263183116912842,2.685546636581421,-1.5869139432907104
28442,0.020263671875,0.142333984375,1.03271484375,7.507323741912842,2.868652105331421,-1.7089842557907104
28459,0.0196533203125,0.1488037109375,1.06640625,8.36181640625,2.44140625,-1.5869139432907104
28478,0.0218505859375,0.1453857421875,1.0625,8.7890625,2.44140625,-1.5258787870407104
28497,0.026611328125,0.14111328125,1.06640625,9.521484375,2.990722417831421,-1.4038084745407104
28508,0.0419921875,0.140869140625,1.1387939453125,10.253905296325684,2.990722417831421,-1.4648436307907104
28542,0.0335693359375,0.1328125,1.132568359375,11.596678733825684,1.8310545682907104,-1.4648436307907104
28560,0.02197265625,0.1263427734375,1.0760498046875,12.023924827575684,1.4648436307907104,-1.3427733182907104
28576,0.0228271484375,0.11865234375,1.018310546875,12.023924827575684,1.7089842557907104,-1.4038084745407104
28609,0.0406494140625,0.097900390625,1.0635986328125,10.681151390075684,2.929687261581421,-1.220703125
28628,0.0443115234375,0.09423828125,1.0947265625,10.375975608825684,2.929687261581421,-1.15966796875
28644,0.0460205078125,0.089599609375,1.1422119140625,9.6435546875,2.3193359375,-0.9155272841453552
28661,0.03857421875,0.08056640625,1.1346435546875,9.33837890625,2.13623046875,-0.8544921278953552
28680,0.0233154296875,0.0748291015625,1.0830078125,8.36181640625,1.8310545682907104,-0.7324218153953552
28697,0.014892578125,0.068359375,1.0784912109375,6.530761241912842,3.051757574081421,-0.6713866591453552
28730,0.03271484375,0.0745849609375,1.18115234375,5.249022960662842,3.112792730331421,-0.30517578125
28747,0.036376953125,0.07177734375,1.176513671875,4.94384765625,2.38037109375,-0.1831054538488388
28763,0.0302734375,0.0635986328125,1.1307373046875,3.967284917831421,1.5869139432907104,0.0
28780,0.020751953125,0.0645751953125,1.0621337890625,3.479003667831421,1.7089842557907104,0.0610351525247097
28799,0.01611328125,0.061279296875,1.0477294921875,2.197265625,2.746581792831421,0.1220703050494194
28816,0.019287109375,0.0689697265625,1.11767578125,1.2817381620407104,3.356933355331421,0.30517578125
28849,0.014404296875,0.0633544921875,1.097412109375,0.3662109076976776,2.197265625,0.30517578125
28914,0.028564453125,0.0621337890625,1.070556640625,-0.9765624403953552,3.479003667831421,-0.0610351525247097
28935,0.0335693359375,0.060546875,1.0880126953125,-1.220703125,3.112792730331421,-0.1220703050494194
28951,0.0283203125,0.06787109375,1.0784912109375,-1.3427733182907104,3.112792730331421,-0.2441406100988388
28968,0.0252685546875,0.0703125,1.072021484375,-1.3427733182907104,3.112792730331421,-0.3662109076976776
28985,0.029052734375,0.071044921875,1.089111328125,-1.2817381620407104,3.784179449081421,-0.3662109076976776
29001,0.0477294921875,0.071044921875,1.1727294921875,-1.15966796875,3.723144292831421,-0.4272460639476776
29018,0.05322265625,0.0740966796875,1.1510009765625,-0.4272460639476776,1.8310545682907104,-0.6713866591453552
29038,0.0479736328125,0.0751953125,1.080078125,0.1220703050494194,1.7700194120407104,-0.7324218153953552
29054,0.043701171875,0.072509765625,1.0562744140625,0.1831054538488388,2.13623046875,-0.6713866591453552
29071,0.0460205078125,0.0716552734375,1.1038818359375,0.4272460639476776,2.685546636581421,-0.8544921278953552
29092,0.05078125,0.07568359375,1.1605224609375,0.6103515625,2.197265625,-0.9765624403953552
29107,0.053955078125,0.0938720703125,1.14599609375,1.220703125,1.0986328125,-1.15966796875
29124,0.05126953125,0.09375,1.112060546875,2.197265625,0.30517578125,-1.03759765625
29141,0.0455322265625,0.0897216796875,1.0716552734375,2.44140625,0.4882812201976776,-0.9765624403953552
29159,0.047119140625,0.073974609375,1.09619140625,2.929687261581421,0.8544921278953552,-0.9155272841453552
29209,0.0469970703125,0.093994140625,1.093994140625,4.45556640625,-1.03759765625,-0.9155272841453552
29229,0.0428466796875,0.09033203125,1.0611572265625,4.638671875,-1.0986328125,-0.7934569716453552
29245,0.0360107421875,0.0731201171875,1.028076171875,4.638671875,-0.4882812201976776,-0.7324218153953552
29262,0.0433349609375,0.0623779296875,1.0792236328125,4.5166015625,-0.4272460639476776,-0.6713866591453552
29281,0.0433349609375,0.0623779296875,1.0743408203125,4.2724609375,-1.2817381620407104,-0.6103515625
29298,0.040771484375,0.0712890625,1.02197265625,3.784179449081421,-1.5258787870407104,-0.6103515625
29331,0.03564453125,0.076416015625,1.0211181640625,3.112792730331421,-0.8544921278953552,-0.2441406100988388
29347,0.0352783203125,0.0760498046875,1.0325927734375,3.051757574081421,-0.9155272841453552,-0.1831054538488388
29364,0.0345458984375,0.0791015625,1.035888671875,2.685546636581421,-1.2817381620407104,-0.0610351525247097
29384,0.0341796875,0.0811767578125,1.012451171875,2.50244140625,-1.2817381620407104,0.1831054538488388
29401,0.032470703125,0.0711669921875,0.9959716796875,2.25830078125,-1.15966796875,0.30517578125
29418,0.033203125,0.0667724609375,1.0032958984375,1.8310545682907104,-0.6103515625,0.30517578125
29451,0.038330078125,0.079833984375,1.0328369140625,1.3427733182907104,-0.9765624403953552,0.4882812201976776
29499,0.06201171875,0.0484619140625,1.2447509765625,-6.958007335662842,4.5166015625,0.3662109076976776
29521,0.1309814453125,0.1168212890625,1.6724853515625,-7.202147960662842,2.685546636581421,-0.1831054538488388
29537,0.0732421875,0.100830078125,1.10400390625,-6.530761241912842,-3.540038824081421,0.2441406100988388
29567,0.034912109375,0.09716796875,0.8626708984375,-6.225585460662842,-1.03759765625,0.7934569716453552
29583,0.02880859375,0.1148681640625,0.8287353515625,-1.9531248807907104,0.54931640625,1.15966796875
29616,0.114013671875,0.071044921875,1.431884765625,2.3193359375,-1.9531248807907104,1.0986328125
29701,0.052734375,0.08642578125,1.0125732421875,-1.7089842557907104,-0.9765624403953552,0.7324218153953552
29718,0.0570068359375,0.0838623046875,1.083251953125,-1.5258787870407104,-1.0986328125,0.7934569716453552
29751,0.027099609375,0.057373046875,1.02001953125,-3.967284917831421,-1.0986328125,0.4272460639476776
29768,0.0291748046875,0.06396484375,1.0538330078125,-4.638671875,-1.0986328125,0.4882812201976776
29788,0.0382080078125,0.084228515625,1.0013427734375,-5.676269054412842,-0.7934569716453552,0.4272460639476776
29804,0.0435791015625,0.0728759765625,1.0296630859375,-6.286620616912842,-0.6713866591453552,0.8544921278953552
29821,0.0372314453125,0.06103515625,1.02294921875,-7.629394054412842,-0.6713866591453552,0.8544921278953552
29858,0.031982421875,0.0767822265625,1.0303955078125,-9.521484375,-0.30517578125,0.6103515625
29875,0.03955078125,0.09375,1.02099609375,-10.131834983825684,-0.0610351525247097,0.7324218153953552
29892,0.0396728515625,0.0986328125,1.0146484375,-10.314940452575684,-0.1220703050494194,0.7934569716453552
29924,0.0364990234375,0.0931396484375,1.0179443359375,-11.047362327575684,0.0,0.8544921278953552
29943,0.0360107421875,0.103271484375,1.0169677734375,-11.535643577575684,0.0610351525247097,0.9765624403953552
29959,0.036865234375,0.1058349609375,1.02294921875,-11.718749046325684,0.1220703050494194,0.9155272841453552
29997,0.037109375,0.1107177734375,1.01513671875,-12.634276390075684,0.0610351525247097,1.03759765625
30013,0.0355224609375,0.1087646484375,1.019775390625,-12.878417015075684,0.0,1.03759765625
30030,0.0364990234375,0.116943359375,1.0150146484375,-13.427733421325684,0.1220703050494194,0.8544921278953552
30047,0.0401611328125,0.1331787109375,1.018310546875,-13.610838890075684,0.3662109076976776,0.9765624403953552
30063,0.0400390625,0.1427001953125,1.0162353515625,-13.488768577575684,0.3662109076976776,0.9155272841453552
30080,0.0399169921875,0.1473388671875,1.0118408203125,-13.061522483825684,0.3662109076976776,0.9155272841453552
30134,0.0389404296875,0.177001953125,1.0052490234375,-9.6435546875,0.2441406100988388,0.6713866591453552
30180,0.0419921875,0.1898193359375,1.0059814453125,-3.479003667831421,0.0610351525247097,0.3662109076976776
30197,0.0347900390625,0.1978759765625,1.00927734375,-0.4882812201976776,-0.1220703050494194,0.1220703050494194
30230,0.044677734375,0.2069091796875,1.0057373046875,4.638671875,-0.4882812201976776,0.0610351525247097
30247,0.0458984375,0.195556640625,1.0054931640625,7.934569835662842,-0.54931640625,0.0
30264,0.037353515625,0.1767578125,1.0087890625,10.498045921325684,-0.54931640625,-0.1220703050494194
30280,0.0379638671875,0.17578125,1.0106201171875,11.535643577575684,-0.54931640625,-0.1831054538488388
30305,0.042236328125,0.1624755859375,1.0087890625,13.122557640075684,-0.6103515625,-0.2441406100988388
30321,0.0391845703125,0.1531982421875,1.014404296875,14.099120140075684,-0.7324218153953552,-0.1831054538488388
30338,0.0347900390625,0.13134765625,1.015869140625,14.221190452575684,-0.8544921278953552,-0.2441406100988388
30356,0.0360107421875,0.1224365234375,1.0181884765625,14.038084983825684,-0.7934569716453552,-0.3662109076976776
30373,0.03955078125,0.1187744140625,1.017333984375,13.183592796325684,-0.7324218153953552,-0.4272460639476776
30406,0.0369873046875,0.1119384765625,1.0179443359375,12.145995140075684,-0.6713866591453552,-0.3662109076976776
30423,0.0355224609375,0.11083984375,1.0179443359375,11.901854515075684,-0.7324218153953552,-0.30517578125
30444,0.03564453125,0.106201171875,1.0177001953125,11.413573265075684,-0.7324218153953552,-0.1220703050494194
30461,0.036865234375,0.102783203125,1.0216064453125,10.742186546325684,-0.6103515625,0.0
30479,0.0362548828125,0.0936279296875,1.0205078125,9.82666015625,-0.54931640625,0.0
30496,0.036376953125,0.0909423828125,1.0216064453125,8.6669921875,-0.4272460639476776,-0.0610351525247097
30529,0.0369873046875,0.0926513671875,1.0206298828125,7.324218273162842,-0.3662109076976776,-0.0610351525247097
30545,0.037353515625,0.09423828125,1.021728515625,6.713866710662842,-0.4882812201976776,0.0610351525247097
30561,0.0372314453125,0.0947265625,1.020751953125,6.530761241912842,-0.54931640625,0.1220703050494194
30582,0.0364990234375,0.0921630859375,1.0203857421875,6.225585460662842,-0.54931640625,0.1220703050494194
30598,0.037109375,0.0875244140625,1.021240234375,5.737304210662842,-0.4272460639476776,0.0610351525247097
30615,0.03662109375,0.0849609375,1.0211181640625,5.432128429412842,-0.3662109076976776,0.0
30648,0.0360107421875,0.0870361328125,1.02197265625,4.5166015625,-0.1220703050494194,0.0610351525247097
30663,0.037841796875,0.0877685546875,1.023193359375,4.39453125,-0.1831054538488388,0.1220703050494194
30680,0.037353515625,0.08544921875,1.020751953125,4.08935546875,-0.2441406100988388,0.1831054538488388
30712,0.03564453125,0.0809326171875,1.0230712890625,3.417968511581421,-0.2441406100988388,0.1831054538488388
30764,0.036376953125,0.0823974609375,1.0234375,2.197265625,-0.2441406100988388,0.1220703050494194
30781,0.0362548828125,0.08056640625,1.0228271484375,1.8310545682907104,-0.2441406100988388,0.2441406100988388
30797,0.0350341796875,0.0777587890625,1.0211181640625,1.6479490995407104,-0.2441406100988388,0.2441406100988388
30831,0.037841796875,0.0780029296875,1.0196533203125,0.6103515625,-0.2441406100988388,0.2441406100988388
30847,0.0377197265625,0.0821533203125,1.0234375,0.1831054538488388,-0.2441406100988388,0.3662109076976776
30863,0.0357666015625,0.0810546875,1.0205078125,-0.0610351525247097,-0.1831054538488388,0.3662109076976776
30884,0.03662109375,0.0826416015625,1.02197265625,-0.30517578125,-0.1831054538488388,0.30517578125
30901,0.03759765625,0.0865478515625,1.02197265625,-0.3662109076976776,-0.2441406100988388,0.3662109076976776
30917,0.035400390625,0.0897216796875,1.020751953125,-0.30517578125,-0.2441406100988388,0.4272460639476776
30948,0.03564453125,0.0897216796875,1.0208740234375,-0.1831054538488388,-0.1831054538488388,0.30517578125
30964,0.037841796875,0.087890625,1.0218505859375,-0.1220703050494194,-0.1831054538488388,0.30517578125
30980,0.0374755859375,0.089111328125,1.0223388671875,0.0,-0.1831054538488388,0.3662109076976776
31018,0.0367431640625,0.0928955078125,1.021240234375,0.30517578125,-0.1831054538488388,0.2441406100988388
31065,0.03955078125,0.0911865234375,1.0228271484375,1.15966796875,-0.1831054538488388,0.3662109076976776
31098,0.0343017578125,0.0887451171875,1.0201416015625,1.4648436307907104,-0.1831054538488388,0.2441406100988388
31138,0.037109375,0.087890625,1.01904296875,1.5869139432907104,-0.1220703050494194,0.2441406100988388
31155,0.0364990234375,0.09033203125,1.0218505859375,1.7700194120407104,-0.1831054538488388,0.2441406100988388
31184,0.0362548828125,0.08935546875,1.0203857421875,2.0751953125,-0.30517578125,0.2441406100988388
31217,0.037353515625,0.0860595703125,1.0223388671875,2.197265625,-0.1831054538488388,0.2441406100988388
31260,0.036376953125,0.082763671875,1.0235595703125,2.13623046875,-0.30517578125,0.2441406100988388
31272,0.034423828125,0.0809326171875,1.0191650390625,2.01416015625,-0.2441406100988388,0.2441406100988388
31305,0.0384521484375,0.0841064453125,1.0218505859375,1.9531248807907104,-0.1831054538488388,0.1831054538488388
31322,0.0382080078125,0.0843505859375,1.020751953125,2.01416015625,-0.2441406100988388,0.2441406100988388
31338,0.034423828125,0.0810546875,1.021240234375,2.0751953125,-0.2441406100988388,0.1831054538488388
31374,0.0361328125,0.0816650390625,1.0218505859375,1.9531248807907104,-0.1831054538488388,0.2441406100988388
31390,0.0374755859375,0.0802001953125,1.0216064453125,1.9531248807907104,-0.1831054538488388,0.1831054538488388
31406,0.0355224609375,0.0804443359375,1.021484375,1.9531248807907104,-0.1831054538488388,0.2441406100988388
31422,0.0369873046875,0.0816650390625,1.0220947265625,2.01416015625,-0.30517578125,0.2441406100988388
31440,0.0372314453125,0.0806884765625,1.0213623046875,2.0751953125,-0.30517578125,0.1831054538488388
31457,0.0345458984375,0.078125,1.0225830078125,2.01416015625,-0.1831054538488388,0.2441406100988388
31489,0.0360107421875,0.07666015625,1.02294921875,1.8310545682907104,-0.2441406100988388,0.2441406100988388
31541,0.037109375,0.0782470703125,1.0211181640625,1.8310545682907104,-0.2441406100988388,0.2441406100988388
31560,0.0372314453125,0.079345703125,1.022216796875,1.8310545682907104,-0.2441406100988388,0.1831054538488388
31577,0.0350341796875,0.0771484375,1.023681640625,1.7700194120407104,-0.2441406100988388,0.2441406100988388
31610,0.03662109375,0.0755615234375,1.0213623046875,1.7089842557907104,-0.2441406100988388,0.2441406100988388
31627,0.037841796875,0.0792236328125,1.02197265625,1.7089842557907104,-0.1831054538488388,0.2441406100988388
31644,0.0372314453125,0.0787353515625,1.0228271484375,1.7089842557907104,-0.2441406100988388,0.2441406100988388
31664,0.036376953125,0.0787353515625,1.0225830078125,1.8310545682907104,-0.2441406100988388,0.2441406100988388
31681,0.0362548828125,0.0745849609375,1.0245361328125,1.8310545682907104,-0.2441406100988388,0.2441406100988388
31698,0.035888671875,0.07568359375,1.021484375,1.8920897245407104,-0.1220703050494194,0.1831054538488388
31731,0.0372314453125,0.078125,1.0220947265625,2.0751953125,-0.1220703050494194,0.1831054538488388
31785,0.0357666015625,0.0748291015625,1.021728515625,2.624511480331421,-0.0610351525247097,0.1220703050494194
31801,0.03662109375,0.0758056640625,1.0233154296875,2.685546636581421,-0.0610351525247097,0.1831054538488388
31813,0.035888671875,0.0753173828125,1.01904296875,2.807616949081421,-0.0610351525247097,0.1831054538488388
31846,0.036865234375,0.0701904296875,1.0228271484375,2.990722417831421,0.0,0.1831054538488388
31861,0.0361328125,0.0714111328125,1.01953125,3.051757574081421,0.30517578125,0.0610351525247097
31878,0.0291748046875,0.0711669921875,1.019287109375,3.112792730331421,0.4882812201976776,0.1220703050494194
31910,0.0399169921875,0.074951171875,1.02099609375,3.417968511581421,0.54931640625,0.1220703050494194
31926,0.041259765625,0.0714111328125,1.0218505859375,3.662109136581421,0.7324218153953552,0.1220703050494194
31942,0.03955078125,0.0748291015625,1.0189208984375,3.967284917831421,1.3427733182907104,0.1220703050494194
31958,0.0361328125,0.06103515625,1.015869140625,3.784179449081421,2.01416015625,0.1831054538488388
31977,0.032958984375,0.0545654296875,1.03515625,3.540038824081421,2.685546636581421,0.0610351525247097
31998,0.0391845703125,0.0596923828125,1.0479736328125,2.746581792831421,3.662109136581421,-0.2441406100988388
32010,0.0465087890625,0.06982421875,1.0048828125,2.50244140625,4.69970703125,-0.4882812201976776
32026,0.053466796875,0.0889892578125,1.042724609375,2.563476324081421,5.432128429412842,-0.4882812201976776
32076,0.0966796875,0.1492919921875,1.4737548828125,3.356933355331421,-0.0610351525247097,-0.2441406100988388
32101,0.100830078125,0.14599609375,1.431884765625,4.21142578125,-1.0986328125,0.0
32112,0.092041015625,0.14697265625,1.3878173828125,4.150390625,-1.3427733182907104,0.1220703050494194
32145,0.079833984375,0.1304931640625,1.4139404296875,3.845214605331421,-0.4882812201976776,0.0610351525247097
32162,0.080810546875,0.135498046875,1.47802734375,4.33349609375,-0.1831054538488388,0.0
32200,0.07666015625,0.1163330078125,1.478759765625,5.249022960662842,-2.25830078125,0.4882812201976776
32218,0.073486328125,0.0709228515625,1.411865234375,4.638671875,-1.15966796875,0.4882812201976776
32234,0.08203125,0.053466796875,1.44287109375,2.990722417831421,-0.8544921278953552,0.1220703050494194
32267,0.0689697265625,0.0882568359375,1.427001953125,1.8920897245407104,-1.03759765625,0.1831054538488388
32283,0.0574951171875,0.0887451171875,1.3961181640625,1.4038084745407104,-1.220703125,0.6713866591453552
32300,0.0565185546875,0.0545654296875,1.3421630859375,0.1220703050494194,-0.9765624403953552,0.8544921278953552
32333,0.0599365234375,0.0264892578125,1.2874755859375,-3.295898199081421,-0.8544921278953552,0.7934569716453552
32352,0.053466796875,0.0450439453125,1.2437744140625,-5.493163585662842,-0.1220703050494194,0.9155272841453552
32368,0.0504150390625,0.0526123046875,1.2501220703125,-6.286620616912842,0.1220703050494194,1.03759765625
32385,0.04638671875,0.0634765625,1.2537841796875,-7.690429210662842,-0.2441406100988388,1.4038084745407104
32402,0.044189453125,0.051513671875,1.20458984375,-8.30078125,-0.30517578125,1.5258787870407104
32418,0.0457763671875,0.0496826171875,1.1922607421875,-9.58251953125,-0.1831054538488388,1.4648436307907104
32452,0.0411376953125,0.0592041015625,1.0992431640625,-12.329100608825684,-0.7934569716453552,1.5869139432907104
32468,0.036376953125,0.0611572265625,1.0458984375,-13.000487327575684,-0.9155272841453552,1.6479490995407104
32483,0.0281982421875,0.066650390625,0.94873046875,-14.038084983825684,-0.6713866591453552,1.7089842557907104
32505,0.02197265625,0.0677490234375,0.8834228515625,-15.014647483825684,-0.2441406100988388,1.7700194120407104
32521,0.021728515625,0.0753173828125,0.86572265625,-15.319823265075684,-0.0610351525247097,1.7700194120407104
32533,0.022216796875,0.0721435546875,0.854736328125,-15.502928733825684,-0.54931640625,1.8920897245407104
32566,0.0123291015625,0.059814453125,0.7177734375,-15.869139671325684,-1.5258787870407104,1.7700194120407104
32583,0.006103515625,0.0523681640625,0.62451171875,-16.29638671875,-0.8544921278953552,1.8310545682907104
32600,0.00439453125,0.0572509765625,0.5916748046875,-16.41845703125,-0.6713866591453552,1.8310545682907104
32638,0.0069580078125,0.0689697265625,0.5855712890625,-15.686034202575684,-1.03759765625,1.8310545682907104
32654,0.005615234375,0.0706787109375,0.542236328125,-15.258788108825684,-1.3427733182907104,1.8920897245407104
32666,-0.0006103515625,0.0740966796875,0.4820556640625,-14.282225608825684,-1.5869139432907104,1.8920897245407104
32683,-0.0029296875,0.0732421875,0.4693603515625,-13.671874046325684,-1.2817381620407104,1.9531248807907104
32702,-0.0029296875,0.07470703125,0.4727783203125,-12.390135765075684,-0.8544921278953552,2.01416015625
32718,-0.00390625,0.0750732421875,0.4835205078125,-10.986327171325684,-0.4272460639476776,2.0751953125
32752,-0.0009765625,0.088134765625,0.5596923828125,-7.019042491912842,-0.2441406100988388,1.7700194120407104
32773,-0.00244140625,0.0955810546875,0.5657958984375,-5.859374523162842,-0.2441406100988388,1.7089842557907104
32789,-0.0068359375,0.103271484375,0.5743408203125,-3.723144292831421,0.30517578125,1.6479490995407104
32803,-0.0030517578125,0.116455078125,0.6214599609375,-1.4038084745407104,0.8544921278953552,1.4648436307907104
32820,0.0037841796875,0.1275634765625,0.6915283203125,-0.30517578125,1.0986328125,1.3427733182907104
32870,0.0130615234375,0.1453857421875,0.84423828125,6.896972179412842,1.7089842557907104,0.7324218153953552
32886,0.0167236328125,0.1558837890625,0.91015625,10.559081077575684,1.8920897245407104,0.3662109076976776
32903,0.021728515625,0.1676025390625,0.9891357421875,14.526366233825684,1.7700194120407104,0.1220703050494194
32919,0.024169921875,0.16748046875,1.0242919921875,16.6015625,1.5869139432907104,0.1220703050494194
32932,0.027099609375,0.1588134765625,1.0650634765625,20.507810592651367,1.0986328125,0.0
32949,0.0291748046875,0.15087890625,1.078125,22.399900436401367,0.9765624403953552,0.0
32981,0.0377197265625,0.0802001953125,1.1053466796875,27.282712936401367,0.1831054538488388,0.1831054538488388
33000,0.0380859375,0.0582275390625,1.1009521484375,29.235837936401367,-0.1220703050494194,0.30517578125
33048,0.033447265625,-0.045654296875,1.02978515625,29.907224655151367,-1.03759765625,0.7934569716453552
33069,0.039794921875,-0.058349609375,0.998291015625,28.991697311401367,-1.220703125,0.6713866591453552
33086,0.0498046875,-0.029052734375,0.9742431640625,28.320310592651367,-1.2817381620407104,0.6103515625
33103,0.0523681640625,0.0045166015625,0.9716796875,26.916501998901367,-1.3427733182907104,0.8544921278953552
33122,0.0557861328125,0.03125,0.99755859375,25.756834030151367,-1.3427733182907104,1.15966796875
33138,0.0587158203125,0.046875,1.0106201171875,25.329587936401367,-1.7700194120407104,1.5258787870407104
33172,0.0614013671875,0.038818359375,1.034423828125,24.841306686401367,-2.746581792831421,1.8310545682907104
33192,0.0601806640625,0.0345458984375,1.033935546875,23.864744186401367,-2.990722417831421,1.5869139432907104
33208,0.0545654296875,0.0400390625,1.0509033203125,22.521970748901367,-3.173827886581421,1.6479490995407104
33225,0.04443359375,0.03857421875,1.0579833984375,21.972654342651367,-3.295898199081421,1.5258787870407104
33292,0.030029296875,-0.0098876953125,1.0146484375,16.845703125,-3.784179449081421,1.0986328125
33311,0.02685546875,-0.0194091796875,1.009033203125,14.587401390075684,-3.295898199081421,1.15966796875
33327,0.0224609375,-0.0421142578125,1.005126953125,11.901854515075684,-2.990722417831421,1.15966796875
33344,0.0196533203125,-0.0623779296875,0.9952392578125,10.620116233825684,-2.868652105331421,1.0986328125
33361,0.01806640625,-0.0692138671875,0.9892578125,7.629394054412842,-2.624511480331421,0.9155272841453552
33376,0.018310546875,-0.074462890625,0.97802734375,6.225585460662842,-2.44140625,0.9155272841453552
33410,0.0189208984375,-0.06005859375,0.9658203125,0.3662109076976776,-1.3427733182907104,0.6103515625
33426,0.02099609375,-0.049072265625,0.9713134765625,-2.50244140625,-0.9155272841453552,0.6713866591453552
33442,0.021240234375,-0.04296875,0.967529296875,-3.906249761581421,-0.7324218153953552,0.6713866591453552
33458,0.0224609375,-0.0426025390625,0.9652099609375,-6.530761241912842,-0.2441406100988388,0.7324218153953552
33477,0.02734375,-0.033203125,0.9674072265625,-9.1552734375,0.0610351525247097,0.7324218153953552
33536,0.0361328125,-0.0185546875,0.93994140625,-14.221190452575684,0.1220703050494194,0.8544921278953552
33552,0.0335693359375,-0.0018310546875,0.931640625,-15.869139671325684,0.2441406100988388,0.9155272841453552
33569,0.03271484375,0.004638671875,0.93359375,-16.90673828125,0.2441406100988388,0.9765624403953552
33586,0.029541015625,0.0106201171875,0.93896484375,-17.7001953125,0.0610351525247097,1.03759765625
33603,0.0264892578125,0.013427734375,0.9288330078125,-18.00537109375,-0.1220703050494194,0.9765624403953552
33624,0.0242919921875,0.0130615234375,0.91650390625,-18.310546875,-0.2441406100988388,0.9765624403953552
33640,0.0224609375,0.0186767578125,0.9100341796875,-18.5546875,-0.1831054538488388,0.8544921278953552
33658,0.01953125,0.0206298828125,0.897705078125,-18.6767578125,-0.54931640625,0.8544921278953552
33675,0.0135498046875,0.0185546875,0.84521484375,-18.6767578125,-0.7324218153953552,0.8544921278953552
33708,0.010986328125,0.0137939453125,0.7901611328125,-19.34814453125,-0.0610351525247097,0.6713866591453552
33725,0.0120849609375,0.0172119140625,0.781982421875,-19.83642578125,0.30517578125,0.4882812201976776
33742,0.012451171875,0.0247802734375,0.78515625,-20.080564498901367,0.4272460639476776,0.4272460639476776
33763,0.014892578125,0.0389404296875,0.816650390625,-20.202634811401367,0.6103515625,0.30517578125
33779,0.01708984375,0.0579833984375,0.837646484375,-20.202634811401367,0.0610351525247097,0.4882812201976776
33791,0.015869140625,0.0616455078125,0.819580078125,-20.202634811401367,-0.0610351525247097,0.6103515625
33824,0.021240234375,0.068115234375,0.8597412109375,-20.202634811401367,0.3662109076976776,0.54931640625
33843,0.018798828125,0.067138671875,0.8707275390625,-19.775390625,0.30517578125,0.54931640625
33859,0.0157470703125,0.0645751953125,0.8853759765625,-19.1650390625,0.1831054538488388,0.3662109076976776
33897,0.022705078125,0.0804443359375,0.9217529296875,-18.06640625,0.30517578125,0.1220703050494194
33947,0.0093994140625,0.1197509765625,0.8822021484375,-14.709471702575684,-0.9155272841453552,0.1831054538488388
33963,0.0074462890625,0.113037109375,0.858642578125,-13.671874046325684,-0.2441406100988388,0.30517578125
33980,0.0130615234375,0.104736328125,0.9049072265625,-12.756346702575684,1.3427733182907104,0.0
34015,0.0255126953125,0.1500244140625,1.068115234375,-10.375975608825684,-0.0610351525247097,-0.30517578125
34069,0.012451171875,0.1202392578125,0.8992919921875,-6.469726085662842,0.0,-0.30517578125
34085,0.0279541015625,0.135986328125,1.0028076171875,-5.554198741912842,1.15966796875,-0.6103515625
34102,0.0311279296875,0.1461181640625,1.0294189453125,-4.150390625,0.3662109076976776,-0.6713866591453552
34119,0.03125,0.160888671875,1.0286865234375,-2.0751953125,-0.30517578125,-0.6103515625
34139,0.0220947265625,0.1663818359375,0.994384765625,-0.0610351525247097,-0.0610351525247097,-0.54931640625
34160,0.0224609375,0.1695556640625,1.0013427734375,0.8544921278953552,0.1831054538488388,-0.54931640625
34176,0.0218505859375,0.1695556640625,1.01611328125,2.44140625,0.54931640625,-0.4882812201976776
34195,0.02392578125,0.1751708984375,1.0460205078125,4.45556640625,1.0986328125,-0.54931640625
34212,0.0335693359375,0.183349609375,1.1143798828125,6.591796398162842,0.9155272841453552,-0.3662109076976776
34245,0.0579833984375,0.19921875,1.1861572265625,10.131834983825684,0.3662109076976776,-0.4272460639476776
34262,0.0570068359375,0.2056884765625,1.178466796875,12.756346702575684,-0.6713866591453552,-0.3662109076976776
34278,0.04052734375,0.1943359375,1.1024169921875,14.831542015075684,-0.9765624403953552,-0.0610351525247097
34313,0.03173828125,0.176513671875,1.0894775390625,16.845703125,-0.3662109076976776,0.0
34330,0.040283203125,0.16162109375,1.1112060546875,17.08984375,-0.3662109076976776,0.1220703050494194
34347,0.0538330078125,0.1591796875,1.1402587890625,17.822265625,-0.7324218153953552,0.1831054538488388
34363,0.053466796875,0.1619873046875,1.128662109375,18.37158203125,-1.6479490995407104,0.4272460639476776
34428,0.03125,0.0914306640625,1.083740234375,17.15087890625,0.0610351525247097,0.9765624403953552
34449,0.0379638671875,0.0908203125,1.1317138671875,16.6015625,-0.1220703050494194,0.9765624403953552
34482,0.0396728515625,0.0946044921875,1.15087890625,15.319823265075684,-0.9765624403953552,1.220703125
34501,0.0316162109375,0.088134765625,1.086181640625,14.770506858825684,-1.03759765625,1.4038084745407104
34518,0.0272216796875,0.0660400390625,1.0640869140625,12.756346702575684,0.30517578125,1.7089842557907104
34548,0.0345458984375,0.05517578125,1.1077880859375,10.681151390075684,0.7324218153953552,1.9531248807907104
34562,0.0350341796875,0.0517578125,1.1038818359375,10.009765625,0.7934569716453552,2.01416015625
34584,0.0372314453125,0.0469970703125,1.0919189453125,8.60595703125,0.9765624403953552,2.01416015625
34600,0.0369873046875,0.0352783203125,1.0831298828125,7.812499523162842,1.4038084745407104,2.01416015625
34618,0.0455322265625,0.0430908203125,1.1707763671875,6.469726085662842,2.38037109375,1.8920897245407104
34668,0.024658203125,0.04150390625,1.1005859375,4.82177734375,0.9765624403953552,1.9531248807907104
34684,0.0252685546875,0.042724609375,1.087890625,4.39453125,1.4648436307907104,1.8310545682907104
34700,0.0355224609375,0.0462646484375,1.1246337890625,3.845214605331421,1.5869139432907104,1.7700194120407104
34738,0.049560546875,0.0472412109375,1.15625,2.929687261581421,0.3662109076976776,1.6479490995407104
34754,0.04638671875,0.0457763671875,1.1148681640625,2.25830078125,-0.0610351525247097,1.5258787870407104
34766,0.0433349609375,0.0576171875,1.0780029296875,1.9531248807907104,-0.1220703050494194,1.4648436307907104
34783,0.039794921875,0.059814453125,1.060546875,1.5258787870407104,0.0610351525247097,1.4648436307907104
34802,0.0367431640625,0.071044921875,1.07177734375,1.220703125,0.3662109076976776,1.4038084745407104
34818,0.03759765625,0.0701904296875,1.0887451171875,1.15966796875,0.3662109076976776,1.4648436307907104
34851,0.044921875,0.059814453125,1.1004638671875,1.2817381620407104,-0.0610351525247097,1.4038084745407104
34905,0.038818359375,0.0653076171875,1.0804443359375,1.0986328125,0.6103515625,0.9155272841453552
34955,0.04052734375,0.075927734375,1.0751953125,2.25830078125,0.2441406100988388,0.7324218153953552
34979,0.035400390625,0.0677490234375,1.0504150390625,2.563476324081421,0.4882812201976776,0.6103515625
34996,0.03466796875,0.0672607421875,1.0543212890625,2.44140625,0.7934569716453552,0.4882812201976776
35029,0.0377197265625,0.0650634765625,1.04248046875,2.50244140625,0.54931640625,0.3662109076976776
35046,0.0390625,0.065673828125,1.0394287109375,2.563476324081421,0.6103515625,0.4272460639476776
35063,0.0357666015625,0.06298828125,1.021240234375,2.44140625,0.6103515625,0.3662109076976776
35079,0.0338134765625,0.0579833984375,1.03076171875,2.25830078125,0.9155272841453552,0.30517578125
35100,0.0321044921875,0.0533447265625,1.0394287109375,1.9531248807907104,0.4882812201976776,0.3662109076976776
35121,0.02880859375,0.0528564453125,1.0047607421875,1.8310545682907104,0.30517578125,0.3662109076976776
35138,0.0281982421875,0.0533447265625,0.9912109375,1.7089842557907104,0.6103515625,0.30517578125
35156,0.033203125,0.051513671875,1.0098876953125,1.4038084745407104,1.15966796875,0.30517578125
35173,0.03759765625,0.0467529296875,1.0372314453125,1.0986328125,0.7324218153953552,0.30517578125
35210,0.0313720703125,0.03955078125,1.01025390625,0.7324218153953552,0.8544921278953552,0.4272460639476776
35226,0.0294189453125,0.0384521484375,1.0152587890625,0.4882812201976776,0.9765624403953552,0.4272460639476776
35243,0.03125,0.038818359375,1.045166015625,0.54931640625,0.8544921278953552,0.3662109076976776
35259,0.0340576171875,0.041748046875,1.0560302734375,0.54931640625,0.6713866591453552,0.3662109076976776
35327,0.0372314453125,0.0208740234375,0.9742431640625,8.72802734375,5.798339366912842,1.03759765625
35343,0.1275634765625,0.0263671875,1.8662109375,9.33837890625,-0.9155272841453552,0.9155272841453552
35359,0.0582275390625,0.0125732421875,1.0335693359375,9.3994140625,-4.45556640625,0.8544921278953552
35397,0.019775390625,-0.000732421875,0.8182373046875,3.723144292831421,-0.7324218153953552,0.7934569716453552
35413,0.0220947265625,0.0081787109375,0.8504638671875,0.30517578125,0.7934569716453552,0.7934569716453552
35425,0.067138671875,0.010498046875,1.4156494140625,1.5258787870407104,2.01416015625,0.4272460639476776
35442,0.07373046875,-0.0013427734375,1.344970703125,4.150390625,-0.1831054538488388,0.3662109076976776
35461,0.0281982421875,-0.0035400390625,0.7662353515625,4.08935546875,-2.624511480331421,0.2441406100988388
35477,0.02783203125,0.00732421875,0.86767578125,0.30517578125,0.1220703050494194,0.0
35507,0.0380859375,0.02294921875,0.9383544921875,-0.6103515625,-1.7089842557907104,0.2441406100988388
35529,0.033447265625,0.0230712890625,0.9510498046875,-1.2817381620407104,-1.03759765625,0.4272460639476776
35545,0.0396728515625,0.0140380859375,1.083984375,-2.197265625,-0.8544921278953552,0.6713866591453552
35562,0.0369873046875,0.007568359375,0.9912109375,-2.929687261581421,-0.9765624403953552,0.4882812201976776
35581,0.034912109375,0.0101318359375,0.9951171875,-4.08935546875,-0.7324218153953552,0.54931640625
35598,0.035888671875,0.021240234375,1.052978515625,-5.0048828125,-0.9155272841453552,0.3662109076976776
35627,0.0426025390625,0.04296875,1.03955078125,-5.615233898162842,-0.4272460639476776,0.54931640625
35644,0.0396728515625,0.0367431640625,1.04052734375,-5.920409679412842,-0.7324218153953552,0.7934569716453552
35681,0.0340576171875,0.040771484375,1.0318603515625,-6.103515148162842,-0.6713866591453552,0.6103515625
35700,0.0364990234375,0.0450439453125,1.0325927734375,-5.859374523162842,-0.7324218153953552,0.4882812201976776
35717,0.037841796875,0.0526123046875,1.0150146484375,-5.493163585662842,-0.54931640625,0.6103515625
35749,0.0369873046875,0.0394287109375,1.0235595703125,-5.249022960662842,-0.4272460639476776,0.7324218153953552
35765,0.036376953125,0.0411376953125,1.0234375,-5.615233898162842,-0.30517578125,0.54931640625
35782,0.0347900390625,0.049560546875,1.0247802734375,-5.798339366912842,-0.2441406100988388,0.6103515625
35803,0.0350341796875,0.048095703125,1.026123046875,-5.920409679412842,-0.2441406100988388,0.54931640625
35819,0.0382080078125,0.056884765625,1.0218505859375,-6.225585460662842,-0.1831054538488388,0.6103515625
35836,0.0372314453125,0.0511474609375,1.0286865234375,-6.652831554412842,-0.2441406100988388,0.6103515625
35869,0.0355224609375,0.0555419921875,1.017578125,-7.263183116912842,-0.0610351525247097,0.6103515625
35886,0.0377197265625,0.06591796875,1.02783203125,-7.324218273162842,-0.0610351525247097,0.54931640625
35903,0.037109375,0.0743408203125,1.021240234375,-7.019042491912842,-0.0610351525247097,0.54931640625
35920,0.0379638671875,0.0784912109375,1.0220947265625,-6.713866710662842,-0.1220703050494194,0.6103515625
35940,0.0386962890625,0.080322265625,1.025390625,-6.225585460662842,-0.3662109076976776,0.6103515625
35952,0.0343017578125,0.082275390625,1.015380859375,-5.798339366912842,-0.30517578125,0.6713866591453552
35968,0.0350341796875,0.0802001953125,1.025146484375,-5.554198741912842,-0.1831054538488388,0.7324218153953552
35985,0.037109375,0.0772705078125,1.0238037109375,-5.432128429412842,-0.1220703050494194,0.6713866591453552
36002,0.038330078125,0.07568359375,1.019287109375,-5.432128429412842,-0.1220703050494194,0.6103515625
36019,0.0382080078125,0.0775146484375,1.0238037109375,-5.432128429412842,-0.0610351525247097,0.4882812201976776
36039,0.03857421875,0.0909423828125,1.0185546875,-5.187987804412842,0.0,0.4272460639476776
36058,0.0372314453125,0.0958251953125,1.023681640625,-4.57763671875,-0.1220703050494194,0.4882812201976776
36075,0.0360107421875,0.09521484375,1.0225830078125,-4.2724609375,-0.1831054538488388,0.54931640625
36107,0.036376953125,0.094970703125,1.0218505859375,-2.990722417831421,-0.0610351525247097,0.4272460639476776
36123,0.0369873046875,0.0947265625,1.02001953125,-2.624511480331421,0.0,0.4272460639476776
36140,0.0382080078125,0.0958251953125,1.0186767578125,-2.44140625,0.0,0.4272460639476776
36156,0.038330078125,0.0960693359375,1.022705078125,-2.25830078125,-0.0610351525247097,0.4272460639476776
36175,0.03564453125,0.10009765625,1.01806640625,-1.8310545682907104,-0.1220703050494194,0.3662109076976776
36192,0.035888671875,0.1024169921875,1.0198974609375,-1.220703125,-0.2441406100988388,0.30517578125
36208,0.0374755859375,0.1072998046875,1.0205078125,-0.30517578125,-0.2441406100988388,0.3662109076976776
36225,0.0364990234375,0.1031494140625,1.0179443359375,0.6103515625,-0.1831054538488388,0.3662109076976776
36242,0.0374755859375,0.0985107421875,1.019775390625,0.9155272841453552,-0.2441406100988388,0.30517578125
36258,0.0377197265625,0.1026611328125,1.0206298828125,1.5258787870407104,-0.30517578125,0.2441406100988388
36288,0.03662109375,0.0980224609375,1.020751953125,2.3193359375,-0.2441406100988388,0.30517578125
36310,0.03759765625,0.0936279296875,1.0218505859375,2.685546636581421,-0.2441406100988388,0.2441406100988388
36326,0.03759765625,0.0960693359375,1.02099609375,2.746581792831421,-0.2441406100988388,0.1831054538488388
36376,0.0364990234375,0.0924072265625,1.019775390625,3.540038824081421,-0.3662109076976776,0.1831054538488388
36420,0.0377197265625,0.0887451171875,1.0225830078125,3.967284917831421,-0.30517578125,0.1220703050494194
36432,0.0372314453125,0.0869140625,1.0189208984375,4.08935546875,-0.3662109076976776,0.1220703050494194
36460,0.035400390625,0.08544921875,1.0208740234375,4.150390625,-0.30517578125,0.1220703050494194
36500,0.0391845703125,0.0838623046875,1.0238037109375,4.33349609375,-0.2441406100988388,0.1220703050494194
36540,0.0347900390625,0.082275390625,1.0220947265625,4.57763671875,-0.4272460639476776,0.1220703050494194
36557,0.0390625,0.080078125,1.020263671875,4.638671875,-0.4272460639476776,0.1220703050494194
36590,0.0352783203125,0.07568359375,1.0228271484375,4.8828125,-0.1831054538488388,0.0610351525247097
36607,0.0355224609375,0.0748291015625,1.0216064453125,4.94384765625,-0.30517578125,0.1220703050494194
36624,0.0352783203125,0.072998046875,1.0216064453125,5.0048828125,-0.4272460639476776,0.0610351525247097
36640,0.0360107421875,0.07275390625,1.0233154296875,5.0048828125,-0.3662109076976776,0.0610351525247097
36664,0.036865234375,0.0706787109375,1.021240234375,5.065917491912842,-0.30517578125,0.1220703050494194
36680,0.0362548828125,0.06689453125,1.0252685546875,4.94384765625,-0.3662109076976776,0.1220703050494194
36697,0.035888671875,0.064208984375,1.023193359375,4.82177734375,-0.3662109076976776,0.1220703050494194
36716,0.0357666015625,0.0648193359375,1.0216064453125,4.69970703125,-0.4272460639476776,0.1220703050494194
36733,0.0350341796875,0.0618896484375,1.02490234375,4.5166015625,-0.30517578125,0.1831054538488388
36764,0.0350341796875,0.0584716796875,1.0238037109375,3.845214605331421,-0.4272460639476776,0.1220703050494194
36817,0.035888671875,0.0592041015625,1.0255126953125,3.234863042831421,-0.1831054538488388,0.1220703050494194
36852,0.03564453125,0.0599365234375,1.0240478515625,2.929687261581421,-0.30517578125,0.1831054538488388
36901,0.035888671875,0.056640625,1.025146484375,2.807616949081421,-0.1831054538488388,0.1220703050494194
36918,0.0352783203125,0.0548095703125,1.0235595703125,2.685546636581421,-0.2441406100988388,0.1220703050494194
36951,0.0362548828125,0.0531005859375,1.0257568359375,2.25830078125,-0.30517578125,0.2441406100988388
36967,0.036376953125,0.0521240234375,1.0230712890625,2.01416015625,-0.2441406100988388,0.30517578125
36983,0.0357666015625,0.0521240234375,1.02392578125,1.8310545682907104,-0.1220703050494194,0.2441406100988388
37001,0.03466796875,0.0535888671875,1.023193359375,1.5258787870407104,-0.1220703050494194,0.1831054538488388
37049,0.0357666015625,0.0526123046875,1.0223388671875,1.15966796875,-0.2441406100988388,0.2441406100988388
37081,0.03564453125,0.0538330078125,1.0245361328125,0.8544921278953552,-0.1831054538488388,0.2441406100988388
37098,0.03662109375,0.0546875,1.023681640625,0.7934569716453552,-0.1831054538488388,0.2441406100988388
37131,0.0341796875,0.0548095703125,1.025146484375,0.7324218153953552,-0.2441406100988388,0.2441406100988388
37148,0.0357666015625,0.0540771484375,1.023193359375,0.6713866591453552,-0.1220703050494194,0.30517578125
37165,0.03662109375,0.05322265625,1.023681640625,0.6713866591453552,-0.1220703050494194,0.2441406100988388
37186,0.0367431640625,0.052490234375,1.0242919921875,0.54931640625,-0.1220703050494194,0.2441406100988388
37197,0.0338134765625,0.054931640625,1.02392578125,0.4272460639476776,-0.1831054538488388,0.30517578125
37214,0.0338134765625,0.0556640625,1.0250244140625,0.4272460639476776,-0.1831054538488388,0.3662109076976776
37247,0.0360107421875,0.0531005859375,1.0235595703125,0.54931640625,-0.1220703050494194,0.2441406100988388
37264,0.03515625,0.05419921875,1.024169921875,0.4272460639476776,-0.1220703050494194,0.2441406100988388
37301,0.03662109375,0.053955078125,1.0240478515625,0.2441406100988388,-0.1831054538488388,0.30517578125
37320,0.0347900390625,0.0533447265625,1.0245361328125,0.1831054538488388,-0.1831054538488388,0.30517578125
37336,0.0343017578125,0.05517578125,1.023681640625,0.0,-0.1220703050494194,0.30517578125
37369,0.037841796875,0.0582275390625,1.0223388671875,0.0610351525247097,-0.0610351525247097,0.1831054538488388
37386,0.03515625,0.05908203125,1.0233154296875,0.2441406100988388,-0.2441406100988388,0.2441406100988388
37403,0.034423828125,0.0594482421875,1.0240478515625,0.4272460639476776,-0.1831054538488388,0.30517578125
37420,0.0362548828125,0.0579833984375,1.0223388671875,0.4882812201976776,-0.1831054538488388,0.2441406100988388
37445,0.036376953125,0.057861328125,1.0240478515625,0.54931640625,-0.1831054538488388,0.2441406100988388
37461,0.0357666015625,0.057373046875,1.02294921875,0.6103515625,-0.2441406100988388,0.2441406100988388
37478,0.037353515625,0.05810546875,1.0252685546875,0.7324218153953552,-0.1831054538488388,0.2441406100988388
37496,0.0369873046875,0.0579833984375,1.0247802734375,0.8544921278953552,-0.1831054538488388,0.30517578125
37513,0.0345458984375,0.0572509765625,1.0242919921875,0.9155272841453552,-0.1831054538488388,0.2441406100988388
37545,0.0367431640625,0.0577392578125,1.0225830078125,0.8544921278953552,-0.1831054538488388,0.2441406100988388
37563,0.0361328125,0.057373046875,1.0244140625,0.9155272841453552,-0.1831054538488388,0.2441406100988388
37582,0.0367431640625,0.0562744140625,1.0234375,0.9155272841453552,-0.1831054538488388,0.2441406100988388
37598,0.035888671875,0.0562744140625,1.023681640625,0.8544921278953552,-0.1831054538488388,0.2441406100988388
37616,0.0362548828125,0.0555419921875,1.0235595703125,0.8544921278953552,-0.2441406100988388,0.30517578125
37633,0.035400390625,0.0548095703125,1.024169921875,0.7324218153953552,-0.1831054538488388,0.30517578125
37663,0.035888671875,0.0562744140625,1.0238037109375,0.7324218153953552,-0.2441406100988388,0.2441406100988388
37728,0.0364990234375,0.055419921875,1.023681640625,0.6103515625,-0.1220703050494194,0.30517578125
37748,0.0361328125,0.0550537109375,1.0230712890625,0.6103515625,-0.0610351525247097,0.2441406100988388
37764,0.03515625,0.0565185546875,1.0235595703125,0.6103515625,-0.1220703050494194,0.2441406100988388
37781,0.036376953125,0.0582275390625,1.0250244140625,0.6713866591453552,-0.1831054538488388,0.2441406100988388
37800,0.0355224609375,0.058349609375,1.0242919921875,0.6103515625,-0.1220703050494194,0.30517578125
37817,0.03564453125,0.05615234375,1.0238037109375,0.7324218153953552,-0.1831054538488388,0.30517578125
37847,0.0369873046875,0.0557861328125,1.0233154296875,0.7934569716453552,-0.1831054538488388,0.2441406100988388
37900,0.0340576171875,0.0572509765625,1.0238037109375,0.7324218153953552,-0.1831054538488388,0.30517578125
37920,0.03515625,0.0552978515625,1.0238037109375,0.7324218153953552,-0.2441406100988388,0.30517578125
37937,0.0364990234375,0.053955078125,1.02490234375,0.6103515625,-0.1220703050494194,0.30517578125
37971,0.0340576171875,0.0552978515625,1.0238037109375,0.4272460639476776,-0.2441406100988388,0.3662109076976776
37992,0.0345458984375,0.05712890625,1.0235595703125,0.3662109076976776,-0.1831054538488388,0.30517578125
38008,0.0377197265625,0.0556640625,1.0245361328125,0.30517578125,-0.1220703050494194,0.2441406100988388
38025,0.0382080078125,0.0555419921875,1.024169921875,0.2441406100988388,-0.1831054538488388,0.2441406100988388
38041,0.034912109375,0.055908203125,1.0234375,0.2441406100988388,-0.1220703050494194,0.30517578125
38058,0.0347900390625,0.0582275390625,1.025146484375,0.2441406100988388,-0.1220703050494194,0.2441406100988388
38104,0.035400390625,0.056884765625,1.022705078125,0.2441406100988388,-0.2441406100988388,0.30517578125
38165,0.03759765625,0.0592041015625,1.0245361328125,0.30517578125,-0.1831054538488388,0.30517578125
38181,0.0355224609375,0.0582275390625,1.0228271484375,0.3662109076976776,-0.1220703050494194,0.30517578125
38198,0.0347900390625,0.058349609375,1.023193359375,0.3662109076976776,-0.1220703050494194,0.3662109076976776
38218,0.03759765625,0.0579833984375,1.0238037109375,0.3662109076976776,-0.1831054538488388,0.30517578125
38235,0.0380859375,0.0582275390625,1.024169921875,0.4272460639476776,-0.2441406100988388,0.3662109076976776
38252,0.035400390625,0.0576171875,1.0223388671875,0.4882812201976776,-0.2441406100988388,0.30517578125
38269,0.034423828125,0.05908203125,1.0238037109375,0.4272460639476776,-0.1220703050494194,0.30517578125
38289,0.03515625,0.0595703125,1.0245361328125,0.4272460639476776,-0.1220703050494194,0.2441406100988388
38301,0.0379638671875,0.05908203125,1.0240478515625,0.4882812201976776,-0.2441406100988388,0.2441406100988388
38318,0.0374755859375,0.058837890625,1.0235595703125,0.4882812201976776,-0.2441406100988388,0.2441406100988388
38386,0.0369873046875,0.06005859375,1.0234375,0.4882812201976776,-0.1220703050494194,0.30517578125
38408,0.03515625,0.06005859375,1.0230712890625,0.4882812201976776,-0.1220703050494194,0.30517578125
38424,0.0350341796875,0.060302734375,1.0233154296875,0.54931640625,-0.1220703050494194,0.30517578125
38441,0.037109375,0.060302734375,1.0230712890625,0.6103515625,-0.0610351525247097,0.2441406100988388
38460,0.0369873046875,0.0604248046875,1.0223388671875,0.6713866591453552,0.0,0.2441406100988388
38477,0.0369873046875,0.06201171875,1.013916015625,0.8544921278953552,0.2441406100988388,0.1831054538488388
38510,0.028564453125,0.0928955078125,1.014892578125,2.3193359375,2.0751953125,-0.1220703050494194
38527,0.0289306640625,0.109130859375,1.0267333984375,4.5166015625,4.39453125,-0.1831054538488388
38548,0.029052734375,0.07763671875,1.03076171875,7.141112804412842,5.554198741912842,-0.4272460639476776
38561,0.0325927734375,0.0816650390625,1.050537109375,8.1787109375,5.615233898162842,-0.54931640625
38627,0.09033203125,0.1451416015625,1.521728515625,13.366698265075684,0.9765624403953552,-1.15966796875
38644,0.0870361328125,0.134521484375,1.52294921875,14.404295921325684,0.2441406100988388,-1.0986328125
38660,0.091796875,0.15576171875,1.4964599609375,14.648436546325684,0.1831054538488388,-1.2817381620407104
38681,0.0989990234375,0.14599609375,1.5074462890625,14.465331077575684,0.4272460639476776,-0.9155272841453552
38731,0.1075439453125,0.086669921875,1.5538330078125,13.244627952575684,-0.4272460639476776,-0.54931640625
38824,0.0819091796875,-0.0184326171875,1.407470703125,0.7934569716453552,-0.7934569716453552,-0.2441406100988388
38836,0.077880859375,-0.025634765625,1.390869140625,-2.868652105331421,-0.9765624403953552,-0.0610351525247097
38867,0.072509765625,-0.0472412109375,1.30908203125,-9.33837890625,-1.3427733182907104,-0.2441406100988388
38884,0.068603515625,-0.02783203125,1.270263671875,-13.000487327575684,-1.4648436307907104,-0.2441406100988388
38900,0.0614013671875,-0.001220703125,1.244140625,-14.526366233825684,-1.5258787870407104,-0.0610351525247097
38934,0.0484619140625,-0.001708984375,1.13232421875,-19.71435546875,-2.3193359375,0.6103515625
38956,0.0396728515625,-0.0045166015625,1.048583984375,-21.118162155151367,-2.44140625,0.6103515625
38972,0.032958984375,0.0015869140625,0.970458984375,-23.803709030151367,-2.3193359375,0.6103515625
38989,0.03076171875,0.0118408203125,0.9447021484375,-26.000974655151367,-1.8310545682907104,0.6713866591453552
39006,0.02783203125,0.01806640625,0.91845703125,-26.855466842651367,-1.7089842557907104,0.7324218153953552
39022,0.0281982421875,0.0323486328125,0.900390625,-28.137205123901367,-1.6479490995407104,0.8544921278953552
39039,0.027587890625,0.03515625,0.8887939453125,-28.869626998901367,-2.197265625,1.03759765625
39058,0.021240234375,0.033935546875,0.8211669921875,-29.113767623901367,-2.929687261581421,1.03759765625
39075,0.011962890625,0.027587890625,0.7109375,-29.479978561401367,-3.295898199081421,1.15966796875
39096,0.010009765625,0.0335693359375,0.6187744140625,-29.724119186401367,-3.051757574081421,1.15966796875
39115,0.0098876953125,0.03466796875,0.5889892578125,-29.907224655151367,-2.3193359375,1.220703125
39131,0.0111083984375,0.0472412109375,0.5872802734375,-29.541013717651367,-2.197265625,1.220703125
39164,0.0068359375,0.0584716796875,0.5101318359375,-28.137205123901367,-2.563476324081421,1.2817381620407104
39181,0.006103515625,0.0576171875,0.497314453125,-26.794431686401367,-2.3193359375,1.4038084745407104
39198,0.00732421875,0.0670166015625,0.4942626953125,-25.268552780151367,-2.01416015625,1.3427733182907104
39228,0.01513671875,0.093994140625,0.5841064453125,-22.216794967651367,-1.5258787870407104,1.15966796875
39245,0.0152587890625,0.1126708984375,0.636474609375,-20.935056686401367,-1.8310545682907104,1.15966796875
39262,0.010986328125,0.123046875,0.6416015625,-17.9443359375,-2.50244140625,1.03759765625
39279,0.001953125,0.1331787109375,0.6337890625,-14.892577171325684,-2.44140625,0.9155272841453552
39297,0.0057373046875,0.1544189453125,0.6650390625,-13.488768577575684,-2.197265625,0.7324218153953552
39313,0.0137939453125,0.174072265625,0.7169189453125,-8.97216796875,-2.0751953125,0.6713866591453552
39346,0.0172119140625,0.1842041015625,0.7403564453125,-4.150390625,-2.38037109375,0.4882812201976776
39368,0.02001953125,0.19970703125,0.7611083984375,-0.7934569716453552,-2.25830078125,0.2441406100988388
39384,0.0205078125,0.207275390625,0.7943115234375,0.9765624403953552,-2.25830078125,0.30517578125
39401,0.0194091796875,0.2000732421875,0.8118896484375,4.45556640625,-2.01416015625,0.30517578125
39419,0.0198974609375,0.1868896484375,0.8900146484375,8.056640625,-1.7700194120407104,0.54931640625
39436,0.0152587890625,0.14599609375,0.9620361328125,11.596678733825684,-2.13623046875,0.7934569716453552
39467,0.0130615234375,0.074951171875,1.0045166015625,16.78466796875,-2.624511480331421,0.30517578125
39488,0.0216064453125,0.0718994140625,1.0277099609375,18.4326171875,-2.50244140625,0.1220703050494194
39504,0.027587890625,0.083984375,1.03125,21.850584030151367,-2.624511480331421,-0.0610351525247097
39521,0.0284423828125,0.097900390625,1.0321044921875,25.207517623901367,-2.624511480331421,-0.1831054538488388
39540,0.026611328125,0.12646484375,1.02685546875,29.052732467651367,-2.807616949081421,-0.30517578125
39590,0.0179443359375,0.176513671875,0.974609375,36.68212890625,-2.197265625,-0.54931640625
39606,0.015380859375,0.1800537109375,0.982177734375,38.9404296875,-1.8920897245407104,-0.30517578125
39622,0.0140380859375,0.16650390625,0.98828125,39.73388671875,-1.7700194120407104,-0.2441406100988388
39639,0.010009765625,0.130859375,0.9947509765625,41.015621185302734,-1.7700194120407104,-0.30517578125
39664,0.0107421875,0.0985107421875,0.9935302734375,41.625972747802734,-1.7089842557907104,-0.3662109076976776
39680,0.0125732421875,0.08154296875,0.995361328125,41.381832122802734,-1.5869139432907104,-0.4272460639476776
39692,0.0101318359375,0.059326171875,0.990234375,41.198726654052734,-1.5258787870407104,-0.3662109076976776
39709,0.0091552734375,0.046630859375,0.9981689453125,40.161128997802734,-1.15966796875,-0.2441406100988388
39725,0.0086669921875,0.0233154296875,1.0323486328125,39.61181640625,-1.0986328125,-0.1831054538488388
39742,0.0087890625,0.0111083984375,1.0413818359375,38.14697265625,-1.4038084745407104,-0.1220703050494194
39778,0.0120849609375,0.0025634765625,1.0155029296875,33.69140625,-1.2817381620407104,-0.1831054538488388
39795,0.0098876953125,0.010498046875,1.029296875,31.249998092651367,-1.0986328125,0.1220703050494194
39815,0.0072021484375,0.0052490234375,1.0341796875,29.907224655151367,-1.0986328125,0.30517578125
39829,0.005615234375,-0.0133056640625,1.03759765625,26.855466842651367,-1.0986328125,0.54931640625
39878,0.0067138671875,-0.0357666015625,1.0263671875,18.37158203125,-0.9765624403953552,0.6713866591453552
39895,0.00634765625,-0.0443115234375,1.0218505859375,14.526366233825684,-0.7324218153953552,0.7934569716453552
39950,0.00439453125,-0.0631103515625,1.0272216796875,4.69970703125,-0.4882812201976776,1.03759765625
39967,0.00537109375,-0.048828125,1.031005859375,3.173827886581421,-0.4882812201976776,1.0986328125
39983,0.0052490234375,-0.05810546875,1.0264892578125,-0.1220703050494194,-0.30517578125,1.2817381620407104
40000,0.0037841796875,-0.061767578125,1.024169921875,-3.173827886581421,-0.1220703050494194,1.2817381620407104
40021,0.0032958984375,-0.055908203125,1.0322265625,-6.469726085662842,-0.0610351525247097,1.4038084745407104
40037,0.00390625,-0.050537109375,1.033203125,-8.9111328125,-0.0610351525247097,1.4038084745407104
40070,0.0029296875,-0.0357666015625,1.0263671875,-12.451170921325684,0.0,1.5869139432907104
40086,0.003173828125,-0.029296875,1.0235595703125,-13.366698265075684,0.0610351525247097,1.6479490995407104
40103,0.005126953125,-0.0257568359375,1.02294921875,-15.380858421325684,0.1831054538488388,1.6479490995407104
40120,0.0050048828125,-0.0185546875,1.01513671875,-16.05224609375,0.1831054538488388,1.6479490995407104
40139,0.003173828125,-0.0157470703125,1.01904296875,-17.51708984375,0.30517578125,1.7700194120407104
40155,0.0028076171875,-0.0081787109375,1.0260009765625,-18.61572265625,0.3662109076976776,1.7700194120407104
40188,0.0093994140625,0.00146484375,1.0216064453125,-19.6533203125,0.1831054538488388,1.7700194120407104
40209,0.010498046875,0.0050048828125,1.017822265625,-19.6533203125,0.2441406100988388,1.7700194120407104
40226,0.009521484375,0.0113525390625,1.01904296875,-19.8974609375,0.30517578125,1.7089842557907104
40243,0.0096435546875,0.01611328125,1.0234375,-19.53125,0.3662109076976776,1.5869139432907104
40263,0.011474609375,0.0235595703125,1.02685546875,-19.10400390625,0.3662109076976776,1.4648436307907104
40279,0.011962890625,0.0338134765625,1.0201416015625,-18.310546875,0.1220703050494194,1.4648436307907104
40312,0.009521484375,0.048095703125,1.01025390625,-16.90673828125,0.54931640625,1.4038084745407104
40329,0.0091552734375,0.04248046875,1.018310546875,-16.05224609375,0.4272460639476776,1.3427733182907104
40366,0.0068359375,0.0455322265625,1.0084228515625,-14.343260765075684,0.4882812201976776,1.220703125
40383,0.00830078125,0.0455322265625,1.0064697265625,-13.305663108825684,0.6713866591453552,1.0986328125
40400,0.01171875,0.04833984375,1.0040283203125,-12.573241233825684,0.6713866591453552,0.9765624403953552
40416,0.01171875,0.0537109375,1.0025634765625,-11.657713890075684,0.7934569716453552,0.8544921278953552
40435,0.0140380859375,0.058837890625,1.0054931640625,-10.192870140075684,0.9155272841453552,0.7324218153953552
40452,0.0152587890625,0.062255859375,1.0029296875,-8.97216796875,0.7934569716453552,0.54931640625
40468,0.017333984375,0.0706787109375,0.9945068359375,-7.385253429412842,0.7324218153953552,0.30517578125
40484,0.0184326171875,0.0745849609375,0.9908447265625,-6.774901866912842,0.7324218153953552,0.30517578125
40503,0.02197265625,0.0849609375,0.9783935546875,-5.493163585662842,0.3662109076976776,0.2441406100988388
40524,0.0244140625,0.08251953125,0.9320068359375,-4.69970703125,0.2441406100988388,0.2441406100988388
40540,0.0279541015625,0.0833740234375,0.90673828125,-4.45556640625,0.3662109076976776,0.30517578125
40558,0.0322265625,0.0849609375,0.90625,-3.845214605331421,0.4882812201976776,0.3662109076976776
40608,0.0302734375,0.089599609375,0.9437255859375,-1.8920897245407104,0.30517578125,0.4272460639476776
40625,0.031005859375,0.091064453125,0.9537353515625,-1.4038084745407104,0.1220703050494194,0.4272460639476776
40641,0.03076171875,0.0855712890625,0.9581298828125,-0.7324218153953552,0.0,0.4272460639476776
40677,0.0257568359375,0.0810546875,0.9744873046875,0.7934569716453552,-0.0610351525247097,0.4882812201976776
40693,0.0264892578125,0.07958984375,0.9805908203125,1.5869139432907104,-0.1220703050494194,0.4272460639476776
40725,0.0240478515625,0.0638427734375,0.9515380859375,2.563476324081421,-0.3662109076976776,0.3662109076976776
40742,0.02392578125,0.0570068359375,0.9464111328125,3.051757574081421,-0.1220703050494194,0.1831054538488388
40779,0.0152587890625,0.0523681640625,0.968994140625,3.234863042831421,0.0610351525247097,0.1220703050494194
40798,0.015380859375,0.0506591796875,0.97998046875,3.479003667831421,0.0,0.1220703050494194
40815,0.015869140625,0.0528564453125,0.9930419921875,3.601073980331421,-0.4882812201976776,0.1831054538488388
40848,0.0093994140625,0.0379638671875,0.9525146484375,3.051757574081421,-0.4882812201976776,0.2441406100988388
40910,-0.001953125,0.016845703125,0.830810546875,0.0,-0.4882812201976776,0.3662109076976776
40931,0.0006103515625,0.017578125,0.832275390625,-0.9155272841453552,-0.0610351525247097,0.3662109076976776
40943,0.0015869140625,0.0177001953125,0.8409423828125,-2.50244140625,0.1831054538488388,0.4272460639476776
40959,-0.001953125,0.0186767578125,0.8507080078125,-3.356933355331421,0.4272460639476776,0.4882812201976776
40978,0.001220703125,0.02978515625,0.9447021484375,-4.57763671875,1.2817381620407104,0.3662109076976776
40995,0.005126953125,0.039794921875,0.99267578125,-5.065917491912842,0.54931640625,0.2441406100988388
41028,-0.0003662109375,0.05615234375,0.8958740234375,-5.187987804412842,-0.4272460639476776,0.30517578125
41045,0.0001220703125,0.0565185546875,0.9007568359375,-5.371093273162842,0.8544921278953552,0.1831054538488388
41066,0.0030517578125,0.05810546875,0.973876953125,-5.187987804412842,1.3427733182907104,-0.0610351525247097
41082,0.0087890625,0.0712890625,1.01953125,-5.065917491912842,0.9155272841453552,-0.1831054538488388
41094,0.007568359375,0.076171875,0.9390869140625,-4.5166015625,-0.30517578125,-0.30517578125
41111,0.0076904296875,0.080322265625,0.90771484375,-4.2724609375,-0.30517578125,-0.4272460639476776
41143,0.0150146484375,0.0853271484375,0.9581298828125,-3.112792730331421,1.4648436307907104,-0.6713866591453552
41162,0.0181884765625,0.0899658203125,1.025634765625,-2.25830078125,0.9765624403953552,-0.8544921278953552
41178,0.019775390625,0.103271484375,1.0426025390625,-1.5258787870407104,0.4882812201976776,-0.9765624403953552
41216,0.0050048828125,0.1004638671875,0.8948974609375,0.9765624403953552,0.54931640625,-1.220703125
41266,0.020263671875,0.1094970703125,1.01953125,3.601073980331421,1.9531248807907104,-1.8920897245407104
41281,0.0286865234375,0.1187744140625,1.0347900390625,4.39453125,1.5869139432907104,-2.01416015625
41298,0.0250244140625,0.118896484375,0.9952392578125,6.042479991912842,0.9155272841453552,-1.9531248807907104
41331,0.022705078125,0.111083984375,0.9761962890625,8.056640625,3.417968511581421,-2.44140625
41384,0.048828125,0.1353759765625,1.1219482421875,10.986327171325684,2.685546636581421,-2.44140625
41400,0.0401611328125,0.1234130859375,1.0667724609375,12.573241233825684,2.0751953125,-2.3193359375
41417,0.0396728515625,0.12109375,1.0606689453125,13.732909202575684,2.50244140625,-2.44140625
41449,0.046875,0.1103515625,1.0423583984375,14.526366233825684,2.197265625,-2.13623046875
41466,0.0484619140625,0.1058349609375,1.03759765625,14.892577171325684,2.44140625,-2.01416015625
41482,0.0550537109375,0.0887451171875,1.070556640625,14.892577171325684,2.990722417831421,-2.0751953125
41498,0.0595703125,0.0858154296875,1.10888671875,14.892577171325684,2.929687261581421,-2.0751953125
41523,0.0657958984375,0.0845947265625,1.1864013671875,14.953612327575684,1.8310545682907104,-2.0751953125
41539,0.06640625,0.0877685546875,1.1822509765625,15.319823265075684,0.4272460639476776,-1.8310545682907104
41551,0.0567626953125,0.0775146484375,1.1103515625,15.075682640075684,-0.1831054538488388,-1.5869139432907104
41568,0.05224609375,0.066650390625,1.07763671875,14.770506858825684,0.0,-1.5258787870407104
41617,0.046875,0.0301513671875,1.0858154296875,11.779784202575684,-0.4272460639476776,-1.6479490995407104
41639,0.0423583984375,0.0386962890625,1.069580078125,10.498045921325684,-0.6103515625,-1.4648436307907104
41651,0.03955078125,0.0379638671875,1.06787109375,9.21630859375,-0.2441406100988388,-1.4038084745407104
41684,0.038330078125,0.0382080078125,1.0877685546875,7.873534679412842,-0.4272460639476776,-1.15966796875
41701,0.039306640625,0.0386962890625,1.0860595703125,6.164550304412842,-0.3662109076976776,-0.9765624403953552
41718,0.0384521484375,0.0361328125,1.0794677734375,5.432128429412842,-0.3662109076976776,-0.8544921278953552
41750,0.035400390625,0.02490234375,1.071533203125,3.295898199081421,0.30517578125,-0.7324218153953552
41769,0.036376953125,0.028076171875,1.087158203125,1.8920897245407104,0.6713866591453552,-0.7324218153953552
41786,0.04150390625,0.0413818359375,1.123779296875,0.9765624403953552,0.4882812201976776,-0.6713866591453552
41803,0.0377197265625,0.04296875,1.0955810546875,0.54931640625,0.2441406100988388,-0.4882812201976776
41820,0.0325927734375,0.03564453125,1.057861328125,-0.0610351525247097,0.30517578125,-0.30517578125
41837,0.031982421875,0.026611328125,1.0616455078125,-0.9765624403953552,1.2817381620407104,-0.30517578125
41868,0.0400390625,0.0394287109375,1.1136474609375,-1.8920897245407104,0.9155272841453552,-0.3662109076976776
41889,0.0406494140625,0.047119140625,1.10498046875,-2.197265625,0.6713866591453552,-0.2441406100988388
41904,0.03662109375,0.0430908203125,1.06396484375,-2.25830078125,0.6103515625,-0.0610351525247097
41921,0.034912109375,0.038818359375,1.0543212890625,-2.746581792831421,1.15966796875,0.0
41988,0.041259765625,0.0489501953125,1.070556640625,-3.601073980331421,1.4648436307907104,0.2441406100988388
42008,0.0394287109375,0.0380859375,1.0687255859375,-3.662109136581421,1.5869139432907104,0.3662109076976776
42025,0.037841796875,0.037109375,1.0789794921875,-3.662109136581421,1.8310545682907104,0.2441406100988388
42042,0.0428466796875,0.0426025390625,1.10693359375,-3.601073980331421,2.0751953125,0.1831054538488388
42060,0.0478515625,0.0533447265625,1.126220703125,-2.990722417831421,1.4648436307907104,0.30517578125
42076,0.046142578125,0.058349609375,1.1038818359375,-2.38037109375,0.9155272841453552,0.3662109076976776
42108,0.03857421875,0.049072265625,1.0457763671875,-1.6479490995407104,1.3427733182907104,0.4272460639476776
42128,0.042236328125,0.049072265625,1.0687255859375,-1.4038084745407104,1.4038084745407104,0.4272460639476776
42144,0.049072265625,0.048583984375,1.0924072265625,-1.220703125,1.3427733182907104,0.4272460639476776
42156,0.052978515625,0.0513916015625,1.111083984375,-0.6103515625,0.9155272841453552,0.4272460639476776
42177,0.0494384765625,0.052001953125,1.093017578125,-0.2441406100988388,0.54931640625,0.4272460639476776
42193,0.048828125,0.0584716796875,1.0849609375,0.54931640625,0.54931640625,0.4272460639476776
42210,0.048095703125,0.0576171875,1.08642578125,1.3427733182907104,0.54931640625,0.4882812201976776
42227,0.0439453125,0.0516357421875,1.0810546875,1.9531248807907104,0.6103515625,0.54931640625
42243,0.0450439453125,0.048583984375,1.0902099609375,2.746581792831421,0.2441406100988388,0.4882812201976776
42259,0.0452880859375,0.0472412109375,1.078125,2.990722417831421,0.0610351525247097,0.4882812201976776
42312,0.0523681640625,0.0386962890625,1.0504150390625,3.845214605331421,0.3662109076976776,0.4882812201976776
42360,0.127685546875,0.0076904296875,1.4935302734375,8.23974609375,-7.263183116912842,0.0
42375,0.027099609375,0.0323486328125,0.85546875,7.873534679412842,-7.995604991912842,0.0
