tMillis,ax,ay,az,gx,gy,gz
301062,0.0302734375,0.0145263671875,1.024658203125,0.7324218153953552,-0.30517578125,0.30517578125
301078,0.0301513671875,0.0146484375,1.025390625,0.6713866591453552,-0.2441406100988388,0.2441406100988388
301094,0.0299072265625,0.0135498046875,1.0274658203125,0.6713866591453552,-0.2441406100988388,0.1831054538488388
301110,0.030029296875,0.0130615234375,1.0245361328125,0.7324218153953552,-0.2441406100988388,0.2441406100988388
301126,0.02978515625,0.012939453125,1.024658203125,0.7324218153953552,-0.2441406100988388,0.30517578125
301158,0.029541015625,0.0140380859375,1.0252685546875,0.7324218153953552,-0.30517578125,0.3662109076976776
301174,0.030517578125,0.0142822265625,1.0238037109375,0.7324218153953552,-0.2441406100988388,0.3662109076976776
301190,0.03173828125,0.013671875,1.0257568359375,0.7324218153953552,-0.2441406100988388,0.3662109076976776
301206,0.03076171875,0.0135498046875,1.02587890625,0.7324218153953552,-0.30517578125,0.2441406100988388
301226,0.030029296875,0.013916015625,1.02490234375,0.6713866591453552,-0.2441406100988388,0.2441406100988388
301248,0.03076171875,0.013916015625,1.02587890625,0.6713866591453552,-0.30517578125,0.2441406100988388
301264,0.0311279296875,0.01318359375,1.0247802734375,0.6713866591453552,-0.30517578125,0.2441406100988388
301281,0.031494140625,0.0128173828125,1.0247802734375,0.7324218153953552,-0.2441406100988388,0.3662109076976776
301298,0.030029296875,0.0135498046875,1.024658203125,0.6713866591453552,-0.30517578125,0.30517578125
301331,0.0303955078125,0.013671875,1.0218505859375,0.6713866591453552,-0.2441406100988388,0.30517578125
301348,0.03125,0.0137939453125,1.022705078125,0.6713866591453552,-0.2441406100988388,0.30517578125
301364,0.03076171875,0.013916015625,1.02685546875,0.6103515625,-0.2441406100988388,0.30517578125
301396,0.02978515625,0.012939453125,1.0257568359375,0.6713866591453552,-0.2441406100988388,0.30517578125
301412,0.03076171875,0.013671875,1.0244140625,0.6713866591453552,-0.2441406100988388,0.30517578125
301428,0.0316162109375,0.0128173828125,1.0233154296875,0.6713866591453552,-0.2441406100988388,0.2441406100988388
301461,0.0294189453125,0.01416015625,1.02587890625,0.7324218153953552,-0.2441406100988388,0.30517578125
301482,0.030029296875,0.0146484375,1.0228271484375,0.7324218153953552,-0.2441406100988388,0.30517578125
301498,0.031005859375,0.0142822265625,1.0272216796875,0.6713866591453552,-0.30517578125,0.3662109076976776
301515,0.0313720703125,0.0128173828125,1.0250244140625,0.6713866591453552,-0.30517578125,0.3662109076976776
301532,0.0311279296875,0.0128173828125,1.0223388671875,0.7324218153953552,-0.30517578125,0.2441406100988388
301548,0.0303955078125,0.014404296875,1.02490234375,0.6713866591453552,-0.2441406100988388,0.30517578125
301565,0.0299072265625,0.013427734375,1.0269775390625,0.6713866591453552,-0.30517578125,0.2441406100988388
301585,0.031005859375,0.0126953125,1.0223388671875,0.7324218153953552,-0.2441406100988388,0.30517578125
301602,0.0325927734375,0.0137939453125,1.025634765625,0.7324218153953552,-0.2441406100988388,0.30517578125
301618,0.0316162109375,0.013916015625,1.0262451171875,0.6713866591453552,-0.30517578125,0.2441406100988388
301634,0.029541015625,0.0133056640625,1.0267333984375,0.7324218153953552,-0.2441406100988388,0.2441406100988388
301650,0.030029296875,0.0133056640625,1.02490234375,0.7324218153953552,-0.2441406100988388,0.30517578125
301666,0.031494140625,0.0126953125,1.0247802734375,0.6103515625,-0.2441406100988388,0.3662109076976776
301698,0.0311279296875,0.013427734375,1.025146484375,0.7324218153953552,-0.2441406100988388,0.30517578125
301714,0.0286865234375,0.013427734375,1.02685546875,0.7324218153953552,-0.2441406100988388,0.30517578125
301730,0.0294189453125,0.0128173828125,1.028076171875,0.7934569716453552,-0.30517578125,0.30517578125
301746,0.0318603515625,0.0133056640625,1.0242919921875,0.7324218153953552,-0.30517578125,0.2441406100988388
301766,0.0321044921875,0.0137939453125,1.0263671875,0.7324218153953552,-0.3662109076976776,0.30517578125
301788,0.0294189453125,0.0137939453125,1.0225830078125,0.6713866591453552,-0.30517578125,0.30517578125
301804,0.029296875,0.013427734375,1.02783203125,0.6713866591453552,-0.30517578125,0.2441406100988388
301821,0.030517578125,0.013671875,1.02294921875,0.7324218153953552,-0.2441406100988388,0.2441406100988388
301838,0.0321044921875,0.0135498046875,1.026123046875,0.7324218153953552,-0.1831054538488388,0.2441406100988388
301871,0.0303955078125,0.013427734375,1.0220947265625,0.6713866591453552,-0.2441406100988388,0.30517578125
301888,0.0303955078125,0.01318359375,1.02294921875,0.7324218153953552,-0.2441406100988388,0.30517578125
301904,0.03173828125,0.0135498046875,1.0247802734375,0.7324218153953552,-0.30517578125,0.2441406100988388
301936,0.0299072265625,0.01318359375,1.0240478515625,0.6713866591453552,-0.2441406100988388,0.30517578125
301952,0.029296875,0.013671875,1.023193359375,0.6713866591453552,-0.2441406100988388,0.30517578125
301968,0.0323486328125,0.013427734375,1.028564453125,0.7324218153953552,-0.30517578125,0.30517578125
302001,0.0299072265625,0.013671875,1.0257568359375,0.6713866591453552,-0.2441406100988388,0.30517578125
302022,0.0301513671875,0.0137939453125,1.0240478515625,0.7324218153953552,-0.30517578125,0.30517578125
302038,0.0308837890625,0.01318359375,1.0250244140625,0.6713866591453552,-0.2441406100988388,0.30517578125
302055,0.0321044921875,0.01220703125,1.0260009765625,0.7324218153953552,-0.30517578125,0.30517578125
302072,0.031005859375,0.0125732421875,1.0208740234375,0.7324218153953552,-0.2441406100988388,0.2441406100988388
302088,0.0303955078125,0.0140380859375,1.0294189453125,0.6713866591453552,-0.2441406100988388,0.30517578125
302105,0.0311279296875,0.0125732421875,1.025146484375,0.7324218153953552,-0.30517578125,0.30517578125
302126,0.0302734375,0.01318359375,1.021728515625,0.7324218153953552,-0.2441406100988388,0.30517578125
302142,0.0306396484375,0.013671875,1.0245361328125,0.7324218153953552,-0.2441406100988388,0.30517578125
302158,0.031005859375,0.0133056640625,1.0294189453125,0.7934569716453552,-0.2441406100988388,0.30517578125
302174,0.0308837890625,0.0133056640625,1.0220947265625,0.7934569716453552,-0.30517578125,0.30517578125
302191,0.0302734375,0.012939453125,1.0201416015625,0.6713866591453552,-0.30517578125,0.2441406100988388
302212,0.03076171875,0.0142822265625,1.03173828125,0.6103515625,-0.2441406100988388,0.2441406100988388
302228,0.029541015625,0.0133056640625,1.023193359375,0.6713866591453552,-0.30517578125,0.2441406100988388
302245,0.0302734375,0.0126953125,1.0228271484375,0.7324218153953552,-0.30517578125,0.3662109076976776
302262,0.0308837890625,0.0120849609375,1.027099609375,0.6713866591453552,-0.2441406100988388,0.30517578125
302295,0.0289306640625,0.014404296875,1.020751953125,0.6713866591453552,-0.30517578125,0.30517578125
302312,0.028564453125,0.0145263671875,1.0223388671875,0.6713866591453552,-0.30517578125,0.30517578125
302328,0.03076171875,0.013671875,1.0255126953125,0.7324218153953552,-0.30517578125,0.30517578125
302360,0.03125,0.013427734375,1.02685546875,0.6713866591453552,-0.1831054538488388,0.30517578125
302376,0.030517578125,0.013916015625,1.0284423828125,0.6713866591453552,-0.2441406100988388,0.30517578125
302392,0.029541015625,0.0137939453125,1.026123046875,0.6713866591453552,-0.2441406100988388,0.3662109076976776
302408,0.031005859375,0.0133056640625,1.0272216796875,0.6713866591453552,-0.2441406100988388,0.30517578125
302428,0.031005859375,0.0128173828125,1.0263671875,0.6713866591453552,-0.30517578125,0.30517578125
302444,0.0303955078125,0.013671875,1.0247802734375,0.7324218153953552,-0.30517578125,0.3662109076976776
302460,0.029541015625,0.01318359375,1.024658203125,0.6103515625,-0.2441406100988388,0.30517578125
302476,0.030029296875,0.013427734375,1.0263671875,0.6713866591453552,-0.2441406100988388,0.30517578125
302492,0.031005859375,0.01318359375,1.0244140625,0.7324218153953552,-0.2441406100988388,0.30517578125
302508,0.0311279296875,0.0125732421875,1.0257568359375,0.7324218153953552,-0.30517578125,0.3662109076976776
302541,0.0294189453125,0.0133056640625,1.023193359375,0.6103515625,-0.2441406100988388,0.30517578125
302562,0.0299072265625,0.012939453125,1.025146484375,0.7324218153953552,-0.2441406100988388,0.3662109076976776
302578,0.031005859375,0.013916015625,1.0263671875,0.7324218153953552,-0.2441406100988388,0.30517578125
302595,0.03076171875,0.013671875,1.0252685546875,0.7324218153953552,-0.30517578125,0.4272460639476776
302612,0.0299072265625,0.0142822265625,1.0247802734375,0.7324218153953552,-0.30517578125,0.3662109076976776
302628,0.0289306640625,0.0146484375,1.018310546875,0.7324218153953552,-0.2441406100988388,0.30517578125
302645,0.031982421875,0.0146484375,1.02978515625,0.6713866591453552,-0.1831054538488388,0.1831054538488388
302666,0.0321044921875,0.0137939453125,1.0294189453125,0.6713866591453552,-0.2441406100988388,0.2441406100988388
302682,0.02978515625,0.0126953125,1.01416015625,0.6713866591453552,-0.30517578125,0.30517578125
302698,0.0301513671875,0.013427734375,1.03271484375,0.7324218153953552,-0.2441406100988388,0.3662109076976776
302714,0.0321044921875,0.0142822265625,1.04248046875,0.7324218153953552,-0.3662109076976776,0.30517578125
302736,0.0299072265625,0.0135498046875,1.0159912109375,0.7324218153953552,-0.30517578125,0.30517578125
302752,0.0318603515625,0.0142822265625,1.0269775390625,0.6713866591453552,-0.2441406100988388,0.30517578125
302769,0.0322265625,0.0133056640625,1.035888671875,0.6713866591453552,-0.3662109076976776,0.3662109076976776
302786,0.02978515625,0.011962890625,1.0181884765625,0.7324218153953552,-0.30517578125,0.3662109076976776
302802,0.0279541015625,0.0130615234375,1.0096435546875,0.6713866591453552,-0.1831054538488388,0.30517578125
302836,0.031005859375,0.013427734375,1.0250244140625,0.6103515625,-0.30517578125,0.2441406100988388
302852,0.0289306640625,0.0135498046875,1.022705078125,0.6713866591453552,-0.30517578125,0.30517578125
302868,0.0291748046875,0.013427734375,1.02587890625,0.6713866591453552,-0.30517578125,0.30517578125
302900,0.0318603515625,0.014404296875,1.0245361328125,0.6103515625,-0.30517578125,0.3662109076976776
302916,0.029052734375,0.0146484375,1.0235595703125,0.54931640625,-0.30517578125,0.3662109076976776
302932,0.0289306640625,0.013671875,1.02294921875,0.4882812201976776,-0.30517578125,0.2441406100988388
302948,0.0306396484375,0.013427734375,1.0262451171875,0.6103515625,-0.30517578125,0.2441406100988388
303022,0.0296630859375,0.013427734375,1.0234375,0.6713866591453552,-0.2441406100988388,0.2441406100988388
303038,0.0302734375,0.0147705078125,1.022705078125,0.6713866591453552,-0.2441406100988388,0.30517578125
303055,0.0316162109375,0.01513671875,1.0257568359375,0.6103515625,-0.2441406100988388,0.30517578125
303072,0.03125,0.01416015625,1.0272216796875,0.6103515625,-0.1831054538488388,0.30517578125
303088,0.0302734375,0.0140380859375,1.025146484375,0.6713866591453552,-0.2441406100988388,0.2441406100988388
303105,0.030517578125,0.0142822265625,1.0244140625,0.6713866591453552,-0.30517578125,0.30517578125
303138,0.031494140625,0.013671875,1.025390625,0.7324218153953552,-0.2441406100988388,0.3662109076976776
303154,0.0308837890625,0.01416015625,1.025634765625,0.7324218153953552,-0.2441406100988388,0.30517578125
303170,0.029541015625,0.0142822265625,1.0255126953125,0.7324218153953552,-0.1831054538488388,0.2441406100988388
303186,0.0301513671875,0.014404296875,1.0267333984375,0.7324218153953552,-0.1831054538488388,0.30517578125
303204,0.031005859375,0.0133056640625,1.0247802734375,0.7934569716453552,-0.30517578125,0.30517578125
303226,0.031005859375,0.0137939453125,1.023681640625,0.7324218153953552,-0.1831054538488388,0.2441406100988388
303242,0.0308837890625,0.0145263671875,1.0296630859375,0.7934569716453552,-0.1831054538488388,0.30517578125
303263,0.030029296875,0.013916015625,1.025146484375,0.7324218153953552,-0.2441406100988388,0.30517578125
303280,0.030517578125,0.0137939453125,1.028076171875,0.7934569716453552,-0.1831054538488388,0.30517578125
303296,0.03076171875,0.0140380859375,1.028076171875,0.7934569716453552,-0.30517578125,0.30517578125
303313,0.0308837890625,0.0137939453125,1.027099609375,0.7934569716453552,-0.30517578125,0.30517578125
303333,0.0296630859375,0.0133056640625,1.021728515625,0.7934569716453552,-0.30517578125,0.30517578125
303354,0.0303955078125,0.0133056640625,1.010498046875,0.7934569716453552,-0.3662109076976776,0.30517578125
303370,0.0347900390625,0.014892578125,1.0531005859375,0.8544921278953552,-0.30517578125,0.30517578125
303387,0.0338134765625,0.015380859375,1.0870361328125,0.7934569716453552,-0.30517578125,0.30517578125
303408,0.0191650390625,0.0107421875,0.9827880859375,0.7324218153953552,-0.4882812201976776,0.30517578125
303424,0.0335693359375,0.01416015625,1.004150390625,0.6713866591453552,-0.2441406100988388,0.2441406100988388
303445,0.0401611328125,0.017333984375,1.0517578125,0.7324218153953552,-0.3662109076976776,0.3662109076976776
303462,0.021728515625,0.0123291015625,1.00732421875,0.7324218153953552,-0.30517578125,0.3662109076976776
303478,0.0267333984375,0.0120849609375,1.04248046875,0.6713866591453552,-0.1831054538488388,0.30517578125
303495,0.0321044921875,0.0118408203125,1.032958984375,0.54931640625,-0.3662109076976776,0.30517578125
303512,0.0357666015625,0.0147705078125,1.015380859375,0.6103515625,-0.2441406100988388,0.30517578125
303560,0.029052734375,0.0126953125,1.020751953125,0.6103515625,-0.2441406100988388,0.30517578125
303581,0.0345458984375,0.0133056640625,1.0255126953125,0.54931640625,-0.2441406100988388,0.3662109076976776
303598,0.033447265625,0.013916015625,1.019287109375,0.54931640625,-0.30517578125,0.30517578125
303615,0.029541015625,0.0146484375,1.0306396484375,0.54931640625,-0.2441406100988388,0.30517578125
303631,0.02880859375,0.0145263671875,1.0263671875,0.54931640625,-0.1831054538488388,0.30517578125
303648,0.029541015625,0.0140380859375,1.01708984375,0.54931640625,-0.2441406100988388,0.30517578125
303685,0.03076171875,0.01416015625,1.0291748046875,0.54931640625,-0.30517578125,0.30517578125
303701,0.02783203125,0.01611328125,1.023681640625,0.54931640625,-0.30517578125,0.30517578125
303717,0.02880859375,0.015380859375,1.0263671875,0.6103515625,-0.2441406100988388,0.30517578125
303733,0.031494140625,0.013916015625,1.02587890625,0.6103515625,-0.30517578125,0.30517578125
303750,0.0311279296875,0.0142822265625,1.0233154296875,0.6713866591453552,-0.2441406100988388,0.2441406100988388
303771,0.0289306640625,0.0140380859375,1.0240478515625,0.6103515625,-0.1831054538488388,0.2441406100988388
303787,0.0284423828125,0.015380859375,1.026123046875,0.6713866591453552,-0.2441406100988388,0.30517578125
303804,0.0303955078125,0.0145263671875,1.024169921875,0.6713866591453552,-0.30517578125,0.30517578125
303821,0.0311279296875,0.0147705078125,1.0281982421875,0.6713866591453552,-0.30517578125,0.2441406100988388
303854,0.0289306640625,0.014404296875,1.0238037109375,0.7324218153953552,-0.30517578125,0.30517578125
303920,0.029296875,0.01416015625,1.0228271484375,0.7934569716453552,-0.2441406100988388,0.2441406100988388
303941,0.028564453125,0.0137939453125,1.017822265625,0.7934569716453552,-0.30517578125,0.30517578125
303957,0.02978515625,0.0133056640625,1.0087890625,0.7324218153953552,-0.1831054538488388,0.30517578125
303973,0.0379638671875,0.0172119140625,1.07666015625,0.7934569716453552,-0.1220703050494194,0.30517578125
303989,0.0322265625,0.01513671875,1.05712890625,0.7934569716453552,-0.30517578125,0.30517578125
304006,0.0203857421875,0.0107421875,0.9781494140625,0.7934569716453552,-0.1220703050494194,0.2441406100988388
304040,0.04052734375,0.0157470703125,1.04150390625,0.8544921278953552,-0.3662109076976776,0.30517578125
304061,0.0274658203125,0.012939453125,1.016845703125,0.7934569716453552,-0.2441406100988388,0.3662109076976776
304077,0.0250244140625,0.01318359375,1.039794921875,0.7934569716453552,-0.30517578125,0.3662109076976776
304094,0.0308837890625,0.01171875,1.0166015625,0.7934569716453552,-0.3662109076976776,0.3662109076976776
304162,0.02978515625,0.0145263671875,1.026123046875,0.7324218153953552,-0.2441406100988388,0.30517578125
304179,0.0321044921875,0.01416015625,1.02783203125,0.7324218153953552,-0.30517578125,0.3662109076976776
304195,0.03173828125,0.0128173828125,1.0238037109375,0.7324218153953552,-0.30517578125,0.30517578125
304211,0.0296630859375,0.013671875,1.02880859375,0.6713866591453552,-0.30517578125,0.2441406100988388
304233,0.0294189453125,0.0140380859375,1.029296875,0.6713866591453552,-0.30517578125,0.2441406100988388
304249,0.029296875,0.0145263671875,1.0198974609375,0.6713866591453552,-0.2441406100988388,0.3662109076976776
304266,0.0311279296875,0.0135498046875,1.026123046875,0.6713866591453552,-0.2441406100988388,0.3662109076976776
304285,0.031494140625,0.0133056640625,1.0284423828125,0.6713866591453552,-0.30517578125,0.30517578125
304302,0.029541015625,0.013916015625,1.0238037109375,0.6713866591453552,-0.2441406100988388,0.30517578125
304335,0.0301513671875,0.0137939453125,1.0252685546875,0.6713866591453552,-0.2441406100988388,0.30517578125
304402,0.030517578125,0.01416015625,1.03076171875,0.6103515625,-0.30517578125,0.30517578125
304418,0.031494140625,0.013916015625,1.0272216796875,0.6103515625,-0.30517578125,0.30517578125
304435,0.0306396484375,0.01416015625,1.0220947265625,0.6103515625,-0.30517578125,0.30517578125
304452,0.0302734375,0.0137939453125,1.02587890625,0.6103515625,-0.30517578125,0.30517578125
304468,0.030517578125,0.013916015625,1.0277099609375,0.6713866591453552,-0.30517578125,0.30517578125
304485,0.0301513671875,0.0142822265625,1.024169921875,0.6713866591453552,-0.2441406100988388,0.30517578125
304518,0.031494140625,0.01416015625,1.0264892578125,0.6713866591453552,-0.3662109076976776,0.2441406100988388
304566,0.0299072265625,0.013916015625,1.027587890625,0.6713866591453552,-0.2441406100988388,0.30517578125
304649,0.0308837890625,0.0145263671875,1.030517578125,0.6713866591453552,-0.30517578125,0.1831054538488388
304666,0.031005859375,0.014404296875,1.0196533203125,0.6713866591453552,-0.30517578125,0.2441406100988388
304699,0.0299072265625,0.0146484375,1.0284423828125,0.7324218153953552,-0.3662109076976776,0.2441406100988388
304715,0.02880859375,0.0145263671875,1.0223388671875,0.7324218153953552,-0.30517578125,0.30517578125
304732,0.029052734375,0.0147705078125,1.0223388671875,0.6713866591453552,-0.2441406100988388,0.30517578125
304748,0.0306396484375,0.014404296875,1.0234375,0.6713866591453552,-0.2441406100988388,0.30517578125
304768,0.030517578125,0.0145263671875,1.0269775390625,0.7934569716453552,-0.2441406100988388,0.2441406100988388
304784,0.0303955078125,0.0137939453125,1.023681640625,0.7324218153953552,-0.2441406100988388,0.30517578125
304800,0.0301513671875,0.0133056640625,1.0235595703125,0.7324218153953552,-0.2441406100988388,0.30517578125
304816,0.03076171875,0.01318359375,1.0272216796875,0.6713866591453552,-0.2441406100988388,0.3662109076976776
304837,0.0323486328125,0.0137939453125,1.0272216796875,0.6713866591453552,-0.2441406100988388,0.3662109076976776
304853,0.02978515625,0.0126953125,1.023193359375,0.8544921278953552,-0.2441406100988388,0.30517578125
304870,0.0294189453125,0.012939453125,1.0255126953125,0.7324218153953552,-0.2441406100988388,0.30517578125
304887,0.03076171875,0.013671875,1.024658203125,0.7324218153953552,-0.30517578125,0.3662109076976776
304903,0.0302734375,0.0142822265625,1.025634765625,0.7934569716453552,-0.2441406100988388,0.30517578125
304937,0.028076171875,0.013671875,1.0218505859375,0.7324218153953552,-0.30517578125,0.2441406100988388
305001,0.028564453125,0.0142822265625,1.023681640625,0.6713866591453552,-0.30517578125,0.30517578125
305017,0.029541015625,0.0145263671875,1.027099609375,0.6713866591453552,-0.30517578125,0.30517578125
305033,0.0308837890625,0.012939453125,1.0216064453125,0.7324218153953552,-0.3662109076976776,0.30517578125
305049,0.0318603515625,0.01318359375,1.0267333984375,0.7324218153953552,-0.30517578125,0.3662109076976776
305068,0.0299072265625,0.0145263671875,1.0281982421875,0.6713866591453552,-0.2441406100988388,0.3662109076976776
305089,0.0269775390625,0.0130615234375,1.02099609375,0.6713866591453552,-0.2441406100988388,0.30517578125
305105,0.0311279296875,0.0135498046875,1.028076171875,0.6713866591453552,-0.2441406100988388,0.30517578125
305126,0.0316162109375,0.01416015625,1.0262451171875,0.6713866591453552,-0.2441406100988388,0.30517578125
305143,0.03076171875,0.014892578125,1.024169921875,0.7324218153953552,-0.2441406100988388,0.2441406100988388
305176,0.0301513671875,0.0140380859375,1.0245361328125,0.6713866591453552,-0.2441406100988388,0.30517578125
305241,0.0303955078125,0.01416015625,1.0257568359375,0.7324218153953552,-0.2441406100988388,0.30517578125
305257,0.0306396484375,0.0140380859375,1.0228271484375,0.6713866591453552,-0.2441406100988388,0.30517578125
305273,0.0311279296875,0.013916015625,1.0238037109375,0.6713866591453552,-0.2441406100988388,0.30517578125
305289,0.0311279296875,0.0140380859375,1.026611328125,0.7324218153953552,-0.30517578125,0.30517578125
305308,0.030029296875,0.0152587890625,1.02490234375,0.6713866591453552,-0.2441406100988388,0.3662109076976776
305329,0.030029296875,0.0137939453125,1.027587890625,0.6713866591453552,-0.2441406100988388,0.3662109076976776
305345,0.0303955078125,0.013916015625,1.025634765625,0.6713866591453552,-0.30517578125,0.30517578125
305362,0.0311279296875,0.0137939453125,1.0267333984375,0.6713866591453552,-0.2441406100988388,0.2441406100988388
305416,0.0303955078125,0.0128173828125,1.026123046875,0.6713866591453552,-0.30517578125,0.30517578125
305432,0.0303955078125,0.01318359375,1.0245361328125,0.6713866591453552,-0.30517578125,0.30517578125
305448,0.0306396484375,0.014404296875,1.0260009765625,0.7324218153953552,-0.30517578125,0.30517578125
305480,0.02978515625,0.0133056640625,1.0247802734375,0.6713866591453552,-0.30517578125,0.3662109076976776
305496,0.0302734375,0.013916015625,1.0250244140625,0.7324218153953552,-0.30517578125,0.3662109076976776
305512,0.03076171875,0.0145263671875,1.026123046875,0.7324218153953552,-0.30517578125,0.30517578125
305528,0.03125,0.013427734375,1.0238037109375,0.7324218153953552,-0.30517578125,0.2441406100988388
305553,0.0302734375,0.0135498046875,1.0257568359375,0.6713866591453552,-0.2441406100988388,0.30517578125
305569,0.0286865234375,0.0135498046875,1.022705078125,0.7324218153953552,-0.2441406100988388,0.3662109076976776
305586,0.031494140625,0.0137939453125,1.0242919921875,0.7324218153953552,-0.2441406100988388,0.30517578125
305603,0.03173828125,0.0140380859375,1.0269775390625,0.7324218153953552,-0.2441406100988388,0.30517578125
305619,0.0299072265625,0.01416015625,1.0242919921875,0.7324218153953552,-0.2441406100988388,0.30517578125
305653,0.0296630859375,0.013427734375,1.0250244140625,0.7324218153953552,-0.2441406100988388,0.2441406100988388
305670,0.0306396484375,0.0137939453125,1.02294921875,0.7324218153953552,-0.2441406100988388,0.30517578125
305691,0.0294189453125,0.015869140625,1.02587890625,0.6713866591453552,-0.2441406100988388,0.30517578125
305707,0.0294189453125,0.0155029296875,1.0244140625,0.6713866591453552,-0.2441406100988388,0.30517578125
305725,0.030517578125,0.01416015625,1.0245361328125,0.7324218153953552,-0.2441406100988388,0.30517578125
305742,0.0299072265625,0.0126953125,1.02685546875,0.7324218153953552,-0.30517578125,0.30517578125
305775,0.0302734375,0.0155029296875,1.0235595703125,0.7324218153953552,-0.30517578125,0.30517578125
305791,0.0308837890625,0.014404296875,1.02490234375,0.6713866591453552,-0.2441406100988388,0.30517578125
305807,0.0299072265625,0.013916015625,1.0255126953125,0.6713866591453552,-0.2441406100988388,0.3662109076976776
305840,0.030517578125,0.0142822265625,1.026123046875,0.6713866591453552,-0.2441406100988388,0.2441406100988388
305861,0.0301513671875,0.014404296875,1.0247802734375,0.6713866591453552,-0.2441406100988388,0.2441406100988388
305877,0.0303955078125,0.013916015625,1.0242919921875,0.6713866591453552,-0.2441406100988388,0.3662109076976776
305894,0.0302734375,0.01318359375,1.0252685546875,0.6713866591453552,-0.30517578125,0.3662109076976776
305960,0.031494140625,0.0145263671875,1.030517578125,0.7934569716453552,-0.2441406100988388,0.30517578125
306033,0.0308837890625,0.0145263671875,1.0382080078125,0.7324218153953552,-0.1831054538488388,0.30517578125
306050,0.0301513671875,0.0146484375,1.034423828125,0.7324218153953552,-0.2441406100988388,0.30517578125
306066,0.027587890625,0.0130615234375,1.0103759765625,0.6713866591453552,-0.2441406100988388,0.2441406100988388
306087,0.031982421875,0.01513671875,1.03173828125,0.7324218153953552,-0.1831054538488388,0.2441406100988388
306103,0.0316162109375,0.015625,1.0303955078125,0.6713866591453552,-0.2441406100988388,0.30517578125
306120,0.0279541015625,0.0142822265625,1.020751953125,0.7324218153953552,-0.1220703050494194,0.3662109076976776
306135,0.02783203125,0.013427734375,1.0277099609375,0.7324218153953552,-0.1220703050494194,0.3662109076976776
306190,0.031005859375,0.0142822265625,1.03076171875,0.6713866591453552,-0.1831054538488388,0.30517578125
306265,0.0308837890625,0.01318359375,1.0252685546875,0.7324218153953552,-0.30517578125,0.2441406100988388
306282,0.029541015625,0.013427734375,1.0240478515625,0.7324218153953552,-0.30517578125,0.2441406100988388
306315,0.02880859375,0.0135498046875,1.024169921875,0.7324218153953552,-0.2441406100988388,0.2441406100988388
306332,0.030517578125,0.013427734375,1.0245361328125,0.7324218153953552,-0.2441406100988388,0.2441406100988388
306348,0.03076171875,0.0130615234375,1.024169921875,0.7934569716453552,-0.2441406100988388,0.30517578125
306385,0.0302734375,0.0140380859375,1.0272216796875,0.7324218153953552,-0.2441406100988388,0.30517578125
306433,0.030517578125,0.01318359375,1.026123046875,0.7324218153953552,-0.2441406100988388,0.30517578125
306450,0.02978515625,0.0145263671875,1.0260009765625,0.7324218153953552,-0.2441406100988388,0.3662109076976776
306471,0.02978515625,0.0135498046875,1.0260009765625,0.7324218153953552,-0.2441406100988388,0.3662109076976776
306487,0.030029296875,0.013427734375,1.0257568359375,0.7934569716453552,-0.2441406100988388,0.3662109076976776
306554,0.031494140625,0.0137939453125,1.024658203125,0.6713866591453552,-0.30517578125,0.3662109076976776
306574,0.0306396484375,0.013427734375,1.0264892578125,0.6713866591453552,-0.30517578125,0.2441406100988388
306590,0.0303955078125,0.0130615234375,1.0245361328125,0.6103515625,-0.30517578125,0.30517578125
306607,0.0311279296875,0.0137939453125,1.02587890625,0.6103515625,-0.30517578125,0.30517578125
306627,0.03125,0.0140380859375,1.028564453125,0.6103515625,-0.30517578125,0.30517578125
306643,0.0289306640625,0.0130615234375,1.025146484375,0.6103515625,-0.30517578125,0.30517578125
306659,0.029296875,0.013671875,1.021484375,0.6103515625,-0.3662109076976776,0.30517578125
306679,0.0313720703125,0.0146484375,1.0257568359375,0.6103515625,-0.30517578125,0.30517578125
306695,0.03076171875,0.0146484375,1.02587890625,0.6713866591453552,-0.30517578125,0.3662109076976776
306711,0.029296875,0.0142822265625,1.0245361328125,0.6713866591453552,-0.2441406100988388,0.30517578125
306727,0.030029296875,0.014404296875,1.0247802734375,0.6713866591453552,-0.2441406100988388,0.30517578125
306747,0.03076171875,0.013427734375,1.023681640625,0.6713866591453552,-0.3662109076976776,0.30517578125
306768,0.0296630859375,0.0135498046875,1.0250244140625,0.6103515625,-0.30517578125,0.2441406100988388
306793,0.030029296875,0.014404296875,1.02587890625,0.6103515625,-0.1831054538488388,0.30517578125
306809,0.0303955078125,0.014404296875,1.0263671875,0.6713866591453552,-0.2441406100988388,0.3662109076976776
306826,0.0302734375,0.013427734375,1.024169921875,0.6713866591453552,-0.30517578125,0.30517578125
306847,0.0302734375,0.0146484375,1.0255126953125,0.6713866591453552,-0.2441406100988388,0.2441406100988388
306865,0.0306396484375,0.0146484375,1.0255126953125,0.6713866591453552,-0.2441406100988388,0.2441406100988388
306881,0.0302734375,0.0137939453125,1.0238037109375,0.6103515625,-0.2441406100988388,0.30517578125
306914,0.029541015625,0.015380859375,1.0247802734375,0.7324218153953552,-0.2441406100988388,0.2441406100988388
306930,0.03076171875,0.0146484375,1.0234375,0.7324218153953552,-0.30517578125,0.2441406100988388
306946,0.031005859375,0.014404296875,1.025146484375,0.7324218153953552,-0.30517578125,0.3662109076976776
306976,0.0294189453125,0.0145263671875,1.025634765625,0.7324218153953552,-0.30517578125,0.30517578125
306997,0.02978515625,0.0142822265625,1.0240478515625,0.7324218153953552,-0.30517578125,0.30517578125
307013,0.030517578125,0.0146484375,1.0262451171875,0.7324218153953552,-0.2441406100988388,0.30517578125
307030,0.031494140625,0.0146484375,1.0263671875,0.7324218153953552,-0.2441406100988388,0.3662109076976776
307047,0.0296630859375,0.0130615234375,1.0262451171875,0.7324218153953552,-0.30517578125,0.30517578125
307063,0.030029296875,0.0128173828125,1.02587890625,0.7324218153953552,-0.2441406100988388,0.30517578125
307097,0.0303955078125,0.01513671875,1.0216064453125,0.7324218153953552,-0.1831054538488388,0.30517578125
307113,0.0302734375,0.0142822265625,1.0255126953125,0.7324218153953552,-0.1831054538488388,0.2441406100988388
307129,0.0299072265625,0.0140380859375,1.026611328125,0.7324218153953552,-0.2441406100988388,0.2441406100988388
307165,0.03125,0.0142822265625,1.028076171875,0.6713866591453552,-0.1831054538488388,0.2441406100988388
307181,0.0313720703125,0.0130615234375,1.02490234375,0.7934569716453552,-0.2441406100988388,0.2441406100988388
307197,0.0301513671875,0.013427734375,1.0233154296875,0.7934569716453552,-0.2441406100988388,0.30517578125
307213,0.0301513671875,0.0145263671875,1.029052734375,0.7934569716453552,-0.1831054538488388,0.30517578125
307230,0.0301513671875,0.014404296875,1.02880859375,0.7934569716453552,-0.1831054538488388,0.30517578125
307251,0.0302734375,0.013427734375,1.0245361328125,0.7934569716453552,-0.2441406100988388,0.30517578125
307267,0.030517578125,0.0140380859375,1.0263671875,0.7934569716453552,-0.3662109076976776,0.30517578125
307284,0.0301513671875,0.014892578125,1.0252685546875,0.7324218153953552,-0.30517578125,0.30517578125
307334,0.0308837890625,0.0135498046875,1.023681640625,0.7324218153953552,-0.2441406100988388,0.30517578125
307350,0.0311279296875,0.013916015625,1.025634765625,0.7324218153953552,-0.2441406100988388,0.2441406100988388
307366,0.030517578125,0.0140380859375,1.0257568359375,0.7324218153953552,-0.30517578125,0.2441406100988388
307397,0.030517578125,0.01416015625,1.025146484375,0.7324218153953552,-0.30517578125,0.30517578125
307418,0.0311279296875,0.014404296875,1.0252685546875,0.6713866591453552,-0.30517578125,0.2441406100988388
307434,0.0299072265625,0.0135498046875,1.0257568359375,0.6103515625,-0.30517578125,0.2441406100988388
307451,0.0294189453125,0.012451171875,1.02587890625,0.6713866591453552,-0.2441406100988388,0.30517578125
307468,0.0299072265625,0.0140380859375,1.0255126953125,0.6713866591453552,-0.30517578125,0.30517578125
307484,0.0306396484375,0.0137939453125,1.0269775390625,0.6713866591453552,-0.30517578125,0.30517578125
307514,0.0306396484375,0.0135498046875,1.02294921875,0.6713866591453552,-0.2441406100988388,0.3662109076976776
307531,0.0308837890625,0.013671875,1.0242919921875,0.6103515625,-0.30517578125,0.30517578125
307547,0.03076171875,0.013671875,1.0245361328125,0.6103515625,-0.30517578125,0.30517578125
307579,0.0306396484375,0.013916015625,1.0255126953125,0.6103515625,-0.2441406100988388,0.3662109076976776
307627,0.0301513671875,0.0135498046875,1.02587890625,0.6103515625,-0.30517578125,0.3662109076976776
307649,0.0302734375,0.014404296875,1.0240478515625,0.6103515625,-0.30517578125,0.3662109076976776
307666,0.0306396484375,0.0137939453125,1.0264892578125,0.6103515625,-0.30517578125,0.3662109076976776
307703,0.0301513671875,0.014404296875,1.023681640625,0.6713866591453552,-0.3662109076976776,0.2441406100988388
307720,0.0296630859375,0.01416015625,1.0247802734375,0.6103515625,-0.3662109076976776,0.30517578125
307736,0.0294189453125,0.0145263671875,1.025146484375,0.6103515625,-0.2441406100988388,0.30517578125
307753,0.0299072265625,0.014404296875,1.0245361328125,0.6103515625,-0.2441406100988388,0.30517578125
307801,0.02978515625,0.013671875,1.02587890625,0.6713866591453552,-0.2441406100988388,0.2441406100988388
307833,0.031005859375,0.0146484375,1.02685546875,0.6713866591453552,-0.2441406100988388,0.30517578125
307850,0.0301513671875,0.014404296875,1.0240478515625,0.6713866591453552,-0.30517578125,0.30517578125
307867,0.029296875,0.013916015625,1.023193359375,0.7324218153953552,-0.30517578125,0.30517578125
307884,0.0311279296875,0.0146484375,1.025146484375,0.6713866591453552,-0.2441406100988388,0.30517578125
307900,0.0308837890625,0.01513671875,1.0238037109375,0.7324218153953552,-0.30517578125,0.2441406100988388
307933,0.029296875,0.014404296875,1.025146484375,0.7324218153953552,-0.2441406100988388,0.30517578125
307955,0.029296875,0.0145263671875,1.0255126953125,0.7934569716453552,-0.2441406100988388,0.30517578125
307971,0.0299072265625,0.0137939453125,1.02490234375,0.7934569716453552,-0.30517578125,0.30517578125
307992,0.030517578125,0.014892578125,1.0250244140625,0.7934569716453552,-0.1831054538488388,0.30517578125
308009,0.030517578125,0.0140380859375,1.02734375,0.7324218153953552,-0.1831054538488388,0.30517578125
308025,0.0289306640625,0.013916015625,1.0262451171875,0.6713866591453552,-0.2441406100988388,0.2441406100988388
308046,0.0299072265625,0.013427734375,1.0250244140625,0.8544921278953552,-0.30517578125,0.30517578125
308066,0.031005859375,0.0142822265625,1.0242919921875,0.7324218153953552,-0.30517578125,0.30517578125
308088,0.03076171875,0.0147705078125,1.0234375,0.7324218153953552,-0.30517578125,0.2441406100988388
308104,0.0294189453125,0.0140380859375,1.0255126953125,0.7324218153953552,-0.1831054538488388,0.30517578125
308123,0.0299072265625,0.013916015625,1.0245361328125,0.7324218153953552,-0.2441406100988388,0.3662109076976776
308140,0.0301513671875,0.01416015625,1.0235595703125,0.7324218153953552,-0.2441406100988388,0.30517578125
308173,0.0296630859375,0.013671875,1.0262451171875,0.7934569716453552,-0.1831054538488388,0.2441406100988388
308190,0.0303955078125,0.0145263671875,1.021728515625,0.7324218153953552,-0.1831054538488388,0.30517578125
308206,0.0306396484375,0.013671875,1.0301513671875,0.7934569716453552,-0.1831054538488388,0.3662109076976776
308239,0.0299072265625,0.0135498046875,1.024169921875,0.7324218153953552,-0.30517578125,0.30517578125
308260,0.0306396484375,0.013916015625,1.026123046875,0.7324218153953552,-0.2441406100988388,0.30517578125
308276,0.0306396484375,0.0145263671875,1.027587890625,0.7934569716453552,-0.1831054538488388,0.30517578125
308293,0.0306396484375,0.01513671875,1.026123046875,0.7324218153953552,-0.30517578125,0.2441406100988388
308310,0.0316162109375,0.013671875,1.02587890625,0.7324218153953552,-0.2441406100988388,0.30517578125
308326,0.029052734375,0.0130615234375,1.0250244140625,0.7324218153953552,-0.1831054538488388,0.30517578125
308360,0.030517578125,0.013671875,1.0247802734375,0.7934569716453552,-0.30517578125,0.30517578125
308408,0.0291748046875,0.013916015625,1.0267333984375,0.6713866591453552,-0.2441406100988388,0.30517578125
308429,0.0302734375,0.0130615234375,1.0245361328125,0.6713866591453552,-0.2441406100988388,0.2441406100988388
308446,0.031982421875,0.0130615234375,1.0272216796875,0.6713866591453552,-0.30517578125,0.30517578125
308479,0.0302734375,0.0142822265625,1.025390625,0.6713866591453552,-0.30517578125,0.2441406100988388
308496,0.02978515625,0.013916015625,1.0252685546875,0.7324218153953552,-0.30517578125,0.30517578125
308512,0.0296630859375,0.013671875,1.0267333984375,0.6713866591453552,-0.30517578125,0.30517578125
308528,0.03125,0.01416015625,1.0267333984375,0.7324218153953552,-0.30517578125,0.30517578125
308548,0.0302734375,0.0140380859375,1.0223388671875,0.6713866591453552,-0.2441406100988388,0.2441406100988388
308564,0.0299072265625,0.014892578125,1.0274658203125,0.6713866591453552,-0.2441406100988388,0.30517578125
308580,0.0303955078125,0.013916015625,1.025146484375,0.6713866591453552,-0.3662109076976776,0.30517578125
308596,0.0303955078125,0.012939453125,1.0233154296875,0.6713866591453552,-0.30517578125,0.30517578125
308612,0.031005859375,0.013427734375,1.0260009765625,0.6713866591453552,-0.30517578125,0.30517578125
308628,0.0308837890625,0.014892578125,1.0244140625,0.6713866591453552,-0.3662109076976776,0.30517578125
308660,0.0291748046875,0.013916015625,1.0263671875,0.6713866591453552,-0.1831054538488388,0.2441406100988388
308676,0.03076171875,0.0137939453125,1.0252685546875,0.6103515625,-0.30517578125,0.30517578125
308692,0.0303955078125,0.0137939453125,1.0252685546875,0.6103515625,-0.2441406100988388,0.30517578125
308708,0.0299072265625,0.014404296875,1.0263671875,0.6713866591453552,-0.30517578125,0.2441406100988388
308728,0.0301513671875,0.0135498046875,1.0267333984375,0.6713866591453552,-0.30517578125,0.30517578125
308749,0.0301513671875,0.0140380859375,1.0223388671875,0.6713866591453552,-0.3662109076976776,0.3662109076976776
308766,0.0302734375,0.01416015625,1.0255126953125,0.6713866591453552,-0.30517578125,0.30517578125
308787,0.030029296875,0.01318359375,1.0213623046875,0.6103515625,-0.1831054538488388,0.2441406100988388
308803,0.030517578125,0.014892578125,1.0263671875,0.6713866591453552,-0.2441406100988388,0.30517578125
308820,0.03125,0.0140380859375,1.028076171875,0.7324218153953552,-0.30517578125,0.30517578125
308836,0.0284423828125,0.013427734375,1.021728515625,0.7324218153953552,-0.2441406100988388,0.2441406100988388
308853,0.0294189453125,0.0137939453125,1.027099609375,0.6713866591453552,-0.2441406100988388,0.2441406100988388
308869,0.02978515625,0.0142822265625,1.0247802734375,0.7324218153953552,-0.2441406100988388,0.2441406100988388
308905,0.0311279296875,0.0137939453125,1.02490234375,0.7324218153953552,-0.30517578125,0.30517578125
308921,0.03125,0.0142822265625,1.024169921875,0.6713866591453552,-0.30517578125,0.2441406100988388
308937,0.0303955078125,0.0150146484375,1.025390625,0.7934569716453552,-0.2441406100988388,0.3662109076976776
308953,0.0299072265625,0.0142822265625,1.023193359375,0.7934569716453552,-0.2441406100988388,0.3662109076976776
308975,0.030517578125,0.0137939453125,1.0240478515625,0.7324218153953552,-0.1831054538488388,0.30517578125
308991,0.030517578125,0.013671875,1.0260009765625,0.7324218153953552,-0.2441406100988388,0.30517578125
309008,0.029541015625,0.0150146484375,1.02783203125,0.7324218153953552,-0.30517578125,0.3662109076976776
309025,0.029541015625,0.0140380859375,1.0234375,0.7324218153953552,-0.2441406100988388,0.30517578125
309041,0.03125,0.01416015625,1.0267333984375,0.6713866591453552,-0.2441406100988388,0.2441406100988388
309075,0.02978515625,0.0152587890625,1.0234375,0.7324218153953552,-0.2441406100988388,0.2441406100988388
309091,0.0299072265625,0.01318359375,1.02783203125,0.6713866591453552,-0.2441406100988388,0.2441406100988388
309107,0.02978515625,0.013427734375,1.025146484375,0.6713866591453552,-0.30517578125,0.30517578125
309137,0.031494140625,0.0130615234375,1.026123046875,0.7324218153953552,-0.2441406100988388,0.3662109076976776
309159,0.0311279296875,0.01318359375,1.0252685546875,0.6713866591453552,-0.1831054538488388,0.3662109076976776
309175,0.0303955078125,0.0140380859375,1.0267333984375,0.6713866591453552,-0.30517578125,0.2441406100988388
309192,0.02978515625,0.0146484375,1.0260009765625,0.6713866591453552,-0.30517578125,0.2441406100988388
309209,0.030029296875,0.013427734375,1.0245361328125,0.6713866591453552,-0.2441406100988388,0.30517578125
309225,0.0302734375,0.0135498046875,1.026123046875,0.7324218153953552,-0.2441406100988388,0.30517578125
309256,0.030517578125,0.0130615234375,1.025634765625,0.7324218153953552,-0.2441406100988388,0.3662109076976776
309273,0.030517578125,0.0133056640625,1.02587890625,0.7934569716453552,-0.2441406100988388,0.3662109076976776
309289,0.0313720703125,0.0140380859375,1.025634765625,0.6713866591453552,-0.2441406100988388,0.30517578125
309325,0.0302734375,0.0130615234375,1.0267333984375,0.7324218153953552,-0.2441406100988388,0.3662109076976776
309341,0.0303955078125,0.0146484375,1.0250244140625,0.7324218153953552,-0.2441406100988388,0.3662109076976776
309357,0.0299072265625,0.0142822265625,1.02392578125,0.6713866591453552,-0.2441406100988388,0.3662109076976776
309373,0.031005859375,0.013427734375,1.025390625,0.6713866591453552,-0.30517578125,0.30517578125
309395,0.0308837890625,0.013671875,1.02294921875,0.7324218153953552,-0.30517578125,0.3662109076976776
309411,0.0299072265625,0.013916015625,1.0257568359375,0.7324218153953552,-0.30517578125,0.30517578125
309428,0.0301513671875,0.0146484375,1.0272216796875,0.6713866591453552,-0.2441406100988388,0.30517578125
309446,0.0303955078125,0.01416015625,1.02392578125,0.6713866591453552,-0.30517578125,0.3662109076976776
309466,0.0308837890625,0.0133056640625,1.024169921875,0.6713866591453552,-0.30517578125,0.30517578125
309487,0.03125,0.0135498046875,1.0250244140625,0.6713866591453552,-0.30517578125,0.30517578125
309507,0.0291748046875,0.01416015625,1.025390625,0.6713866591453552,-0.2441406100988388,0.30517578125
309528,0.0301513671875,0.01416015625,1.025634765625,0.6713866591453552,-0.2441406100988388,0.30517578125
309544,0.03076171875,0.0137939453125,1.0244140625,0.6713866591453552,-0.30517578125,0.30517578125
309560,0.0294189453125,0.0137939453125,1.0264892578125,0.7324218153953552,-0.30517578125,0.30517578125
309585,0.030029296875,0.0125732421875,1.024658203125,0.7324218153953552,-0.30517578125,0.2441406100988388
309605,0.030517578125,0.013671875,1.0252685546875,0.7324218153953552,-0.30517578125,0.30517578125
309622,0.0306396484375,0.0140380859375,1.02392578125,0.7324218153953552,-0.30517578125,0.30517578125
309638,0.0301513671875,0.013671875,1.02490234375,0.6713866591453552,-0.2441406100988388,0.30517578125
309671,0.0296630859375,0.01416015625,1.024658203125,0.6713866591453552,-0.2441406100988388,0.3662109076976776
309688,0.029541015625,0.0140380859375,1.0228271484375,0.6713866591453552,-0.2441406100988388,0.30517578125
309705,0.031005859375,0.014892578125,1.0250244140625,0.7324218153953552,-0.2441406100988388,0.3662109076976776
309737,0.0296630859375,0.01513671875,1.0267333984375,0.6713866591453552,-0.30517578125,0.30517578125
309753,0.0303955078125,0.0135498046875,1.0245361328125,0.7324218153953552,-0.30517578125,0.30517578125
309769,0.031005859375,0.014404296875,1.0262451171875,0.7324218153953552,-0.30517578125,0.30517578125
309805,0.0301513671875,0.0147705078125,1.0255126953125,0.7324218153953552,-0.30517578125,0.30517578125
309821,0.0311279296875,0.0137939453125,1.0263671875,0.7324218153953552,-0.30517578125,0.2441406100988388
309837,0.030517578125,0.013916015625,1.0247802734375,0.7324218153953552,-0.30517578125,0.30517578125
309853,0.0294189453125,0.0142822265625,1.026123046875,0.7324218153953552,-0.30517578125,0.30517578125
309875,0.02978515625,0.013916015625,1.024169921875,0.7324218153953552,-0.30517578125,0.30517578125
309891,0.0301513671875,0.0130615234375,1.0247802734375,0.7324218153953552,-0.30517578125,0.30517578125
309908,0.02978515625,0.01318359375,1.02685546875,0.6713866591453552,-0.2441406100988388,0.2441406100988388
309925,0.0303955078125,0.01318359375,1.0245361328125,0.6713866591453552,-0.2441406100988388,0.2441406100988388
309942,0.0311279296875,0.01416015625,1.026123046875,0.7324218153953552,-0.30517578125,0.30517578125
309975,0.030517578125,0.01416015625,1.0244140625,0.6103515625,-0.1831054538488388,0.30517578125
309991,0.030517578125,0.0137939453125,1.021728515625,0.6713866591453552,-0.2441406100988388,0.30517578125
310007,0.029541015625,0.0140380859375,1.018798828125,0.6713866591453552,-0.2441406100988388,0.30517578125
310036,0.0302734375,0.0155029296875,1.0347900390625,0.6713866591453552,-0.2441406100988388,0.30517578125
310058,0.029296875,0.0142822265625,1.0313720703125,0.6713866591453552,-0.30517578125,0.30517578125
310074,0.0281982421875,0.013427734375,1.01513671875,0.6713866591453552,-0.30517578125,0.2441406100988388
310091,0.031982421875,0.015625,1.030029296875,0.6103515625,-0.1831054538488388,0.30517578125
310108,0.0321044921875,0.0157470703125,1.0263671875,0.6713866591453552,-0.30517578125,0.30517578125
310124,0.02978515625,0.0137939453125,1.0228271484375,0.7324218153953552,-0.2441406100988388,0.30517578125
310155,0.030029296875,0.014404296875,1.0238037109375,0.6713866591453552,-0.2441406100988388,0.30517578125
310177,0.031005859375,0.0145263671875,1.0257568359375,0.7324218153953552,-0.2441406100988388,0.4272460639476776
310193,0.030517578125,0.0155029296875,1.0272216796875,0.7324218153953552,-0.2441406100988388,0.3662109076976776
310210,0.02978515625,0.01513671875,1.0244140625,0.7324218153953552,-0.30517578125,0.30517578125
310227,0.0301513671875,0.013916015625,1.0269775390625,0.6713866591453552,-0.1831054538488388,0.30517578125
310244,0.0302734375,0.0135498046875,1.0263671875,0.7324218153953552,-0.30517578125,0.3662109076976776
310277,0.0306396484375,0.0140380859375,1.02685546875,0.7324218153953552,-0.30517578125,0.30517578125
310342,0.03173828125,0.0135498046875,1.0279541015625,0.7324218153953552,-0.30517578125,0.2441406100988388
310363,0.0308837890625,0.01416015625,1.02490234375,0.7324218153953552,-0.2441406100988388,0.30517578125
310379,0.0291748046875,0.014404296875,1.02392578125,0.7324218153953552,-0.1831054538488388,0.30517578125
310393,0.0296630859375,0.013671875,1.0274658203125,0.7324218153953552,-0.1831054538488388,0.30517578125
310410,0.0306396484375,0.0133056640625,1.0263671875,0.6713866591453552,-0.2441406100988388,0.30517578125
310427,0.030029296875,0.0133056640625,1.0235595703125,0.6713866591453552,-0.30517578125,0.30517578125
310460,0.0311279296875,0.0130615234375,1.0272216796875,0.6713866591453552,-0.30517578125,0.30517578125
310476,0.0301513671875,0.01416015625,1.0244140625,0.7324218153953552,-0.1831054538488388,0.30517578125
310492,0.030029296875,0.0146484375,1.026123046875,0.7934569716453552,-0.1831054538488388,0.30517578125
310508,0.0301513671875,0.014404296875,1.0277099609375,0.7324218153953552,-0.2441406100988388,0.30517578125
310583,0.0313720703125,0.0137939453125,1.0283203125,0.6713866591453552,-0.30517578125,0.30517578125
310600,0.03076171875,0.0135498046875,1.0233154296875,0.7324218153953552,-0.2441406100988388,0.30517578125
310616,0.029052734375,0.014404296875,1.0250244140625,0.6713866591453552,-0.2441406100988388,0.30517578125
310633,0.0302734375,0.0142822265625,1.0279541015625,0.6713866591453552,-0.2441406100988388,0.3662109076976776
310649,0.0303955078125,0.0142822265625,1.0257568359375,0.7324218153953552,-0.2441406100988388,0.30517578125
310666,0.029541015625,0.0140380859375,1.0242919921875,0.6713866591453552,-0.30517578125,0.2441406100988388
310695,0.03076171875,0.0146484375,1.0274658203125,0.6713866591453552,-0.2441406100988388,0.30517578125
310717,0.030517578125,0.0146484375,1.0223388671875,0.6103515625,-0.2441406100988388,0.30517578125
310733,0.0302734375,0.013916015625,1.02734375,0.6103515625,-0.2441406100988388,0.3662109076976776
310752,0.030029296875,0.0135498046875,1.027587890625,0.6103515625,-0.2441406100988388,0.30517578125
310769,0.0306396484375,0.013427734375,1.0240478515625,0.6713866591453552,-0.1831054538488388,0.30517578125
310790,0.0302734375,0.013671875,1.0281982421875,0.7324218153953552,-0.2441406100988388,0.30517578125
310806,0.0303955078125,0.0145263671875,1.0238037109375,0.6713866591453552,-0.2441406100988388,0.3662109076976776
310827,0.0311279296875,0.015625,1.0267333984375,0.6713866591453552,-0.2441406100988388,0.30517578125
310847,0.0302734375,0.0135498046875,1.02685546875,0.7324218153953552,-0.2441406100988388,0.30517578125
310867,0.0302734375,0.0133056640625,1.0233154296875,0.6713866591453552,-0.30517578125,0.30517578125
310887,0.029541015625,0.013671875,1.02685546875,0.6713866591453552,-0.30517578125,0.30517578125
310907,0.030029296875,0.0150146484375,1.0244140625,0.6713866591453552,-0.2441406100988388,0.2441406100988388
310923,0.031005859375,0.0130615234375,1.026123046875,0.7324218153953552,-0.2441406100988388,0.30517578125
310941,0.0302734375,0.0133056640625,1.0284423828125,0.7324218153953552,-0.2441406100988388,0.3662109076976776
310963,0.02978515625,0.014404296875,1.0245361328125,0.7324218153953552,-0.30517578125,0.30517578125
310979,0.031005859375,0.0142822265625,1.02490234375,0.7324218153953552,-0.2441406100988388,0.2441406100988388
310993,0.0301513671875,0.013671875,1.027587890625,0.7324218153953552,-0.2441406100988388,0.30517578125
311010,0.029541015625,0.013671875,1.0230712890625,0.6713866591453552,-0.2441406100988388,0.2441406100988388
311027,0.0302734375,0.013916015625,1.025390625,0.7324218153953552,-0.2441406100988388,0.2441406100988388
311060,0.030029296875,0.013671875,1.024658203125,0.6713866591453552,-0.2441406100988388,0.30517578125
311076,0.030517578125,0.01416015625,1.024169921875,0.7324218153953552,-0.30517578125,0.30517578125
311108,0.0299072265625,0.0137939453125,1.0267333984375,0.7324218153953552,-0.30517578125,0.2441406100988388
311128,0.0311279296875,0.0130615234375,1.022705078125,0.7324218153953552,-0.30517578125,0.30517578125
311150,0.0306396484375,0.0145263671875,1.0272216796875,0.6713866591453552,-0.30517578125,0.30517578125
311166,0.0299072265625,0.012451171875,1.0247802734375,0.7324218153953552,-0.2441406100988388,0.30517578125
311183,0.0299072265625,0.0126953125,1.0225830078125,0.7324218153953552,-0.2441406100988388,0.30517578125
311200,0.029296875,0.01416015625,1.0263671875,0.6713866591453552,-0.2441406100988388,0.30517578125
311233,0.0302734375,0.0133056640625,1.02294921875,0.7324218153953552,-0.30517578125,0.30517578125
311250,0.0306396484375,0.0140380859375,1.0263671875,0.7324218153953552,-0.30517578125,0.3662109076976776
311266,0.0291748046875,0.013427734375,1.0255126953125,0.7324218153953552,-0.2441406100988388,0.30517578125
311295,0.0316162109375,0.0128173828125,1.0263671875,0.7324218153953552,-0.2441406100988388,0.2441406100988388
311317,0.0306396484375,0.01318359375,1.025146484375,0.7324218153953552,-0.30517578125,0.2441406100988388
311333,0.0296630859375,0.0135498046875,1.0255126953125,0.7324218153953552,-0.30517578125,0.3662109076976776
311350,0.0308837890625,0.013427734375,1.0260009765625,0.6713866591453552,-0.2441406100988388,0.30517578125
311367,0.0306396484375,0.01416015625,1.02490234375,0.6713866591453552,-0.2441406100988388,0.30517578125
311383,0.0303955078125,0.0146484375,1.0245361328125,0.7324218153953552,-0.30517578125,0.30517578125
311417,0.0302734375,0.0142822265625,1.0255126953125,0.6713866591453552,-0.2441406100988388,0.30517578125
311482,0.031005859375,0.0135498046875,1.02734375,0.7324218153953552,-0.3662109076976776,0.3662109076976776
311503,0.0306396484375,0.0137939453125,1.0234375,0.7324218153953552,-0.2441406100988388,0.3662109076976776
311519,0.0299072265625,0.013427734375,1.02783203125,0.7324218153953552,-0.2441406100988388,0.30517578125
311533,0.0296630859375,0.0137939453125,1.025634765625,0.6713866591453552,-0.2441406100988388,0.3662109076976776
311550,0.02978515625,0.013916015625,1.0252685546875,0.6713866591453552,-0.2441406100988388,0.30517578125
311567,0.031494140625,0.0142822265625,1.02490234375,0.6713866591453552,-0.2441406100988388,0.30517578125
311600,0.02978515625,0.0135498046875,1.02392578125,0.7324218153953552,-0.30517578125,0.30517578125
311616,0.0306396484375,0.014892578125,1.02783203125,0.7934569716453552,-0.30517578125,0.30517578125
311632,0.03076171875,0.0150146484375,1.02734375,0.7934569716453552,-0.30517578125,0.3662109076976776
311648,0.0303955078125,0.013427734375,1.025146484375,0.6713866591453552,-0.2441406100988388,0.3662109076976776
311668,0.0306396484375,0.0133056640625,1.0247802734375,0.7324218153953552,-0.1831054538488388,0.30517578125
311684,0.0308837890625,0.0130615234375,1.0244140625,0.7934569716453552,-0.1831054538488388,0.2441406100988388
311700,0.03125,0.013916015625,1.0272216796875,0.7934569716453552,-0.2441406100988388,0.2441406100988388
311717,0.030029296875,0.014404296875,1.026123046875,0.6713866591453552,-0.30517578125,0.30517578125
311738,0.0302734375,0.0142822265625,1.0247802734375,0.6713866591453552,-0.30517578125,0.30517578125
311754,0.0311279296875,0.01416015625,1.02294921875,0.7324218153953552,-0.2441406100988388,0.30517578125
311771,0.030517578125,0.01318359375,1.0211181640625,0.7324218153953552,-0.1831054538488388,0.3662109076976776
311835,0.0306396484375,0.0130615234375,1.0196533203125,0.7324218153953552,-0.2441406100988388,0.30517578125
311852,0.031982421875,0.0140380859375,1.0257568359375,0.6713866591453552,-0.2441406100988388,0.30517578125
311868,0.031005859375,0.013916015625,1.0272216796875,0.6713866591453552,-0.2441406100988388,0.30517578125
311900,0.0306396484375,0.01416015625,1.02490234375,0.6713866591453552,-0.2441406100988388,0.30517578125
311916,0.03173828125,0.013916015625,1.0250244140625,0.6713866591453552,-0.2441406100988388,0.30517578125
311932,0.03125,0.01416015625,1.0244140625,0.7324218153953552,-0.30517578125,0.2441406100988388
311948,0.030029296875,0.0146484375,1.0272216796875,0.6713866591453552,-0.2441406100988388,0.2441406100988388
311968,0.0296630859375,0.0147705078125,1.0245361328125,0.6713866591453552,-0.2441406100988388,0.30517578125
311990,0.02978515625,0.0147705078125,1.0234375,0.7324218153953552,-0.2441406100988388,0.30517578125
312006,0.03125,0.013671875,1.0252685546875,0.6713866591453552,-0.2441406100988388,0.2441406100988388
312023,0.03076171875,0.0140380859375,1.0228271484375,0.7324218153953552,-0.2441406100988388,0.2441406100988388
312073,0.030029296875,0.01318359375,1.0244140625,0.7324218153953552,-0.2441406100988388,0.30517578125
312091,0.0316162109375,0.0137939453125,1.0281982421875,0.6713866591453552,-0.1831054538488388,0.30517578125
312107,0.0308837890625,0.013427734375,1.0247802734375,0.6713866591453552,-0.1831054538488388,0.2441406100988388
312139,0.031005859375,0.014404296875,1.028076171875,0.7324218153953552,-0.30517578125,0.30517578125
312187,0.0286865234375,0.013916015625,1.02587890625,0.7324218153953552,-0.2441406100988388,0.30517578125
312209,0.030517578125,0.01318359375,1.029296875,0.7324218153953552,-0.30517578125,0.30517578125
312226,0.031005859375,0.0137939453125,1.026611328125,0.7934569716453552,-0.2441406100988388,0.30517578125
312259,0.0299072265625,0.0140380859375,1.0269775390625,0.7934569716453552,-0.30517578125,0.30517578125
312276,0.0294189453125,0.0135498046875,1.0230712890625,0.7934569716453552,-0.30517578125,0.2441406100988388
312292,0.0316162109375,0.0140380859375,1.0242919921875,0.7324218153953552,-0.30517578125,0.2441406100988388
312308,0.03076171875,0.0135498046875,1.02734375,0.6713866591453552,-0.2441406100988388,0.30517578125
312328,0.03076171875,0.013427734375,1.0240478515625,0.7324218153953552,-0.2441406100988388,0.30517578125
312344,0.031005859375,0.013427734375,1.0245361328125,0.7324218153953552,-0.2441406100988388,0.30517578125
312360,0.030029296875,0.0137939453125,1.02685546875,0.6713866591453552,-0.1831054538488388,0.30517578125
312376,0.030517578125,0.013916015625,1.02734375,0.6713866591453552,-0.1831054538488388,0.30517578125
312397,0.0322265625,0.013671875,1.0230712890625,0.6713866591453552,-0.1831054538488388,0.2441406100988388
312413,0.0313720703125,0.013916015625,1.0279541015625,0.6713866591453552,-0.30517578125,0.2441406100988388
312430,0.03076171875,0.0145263671875,1.036376953125,0.6713866591453552,-0.3662109076976776,0.30517578125
312447,0.0291748046875,0.013671875,1.0382080078125,0.7324218153953552,-0.30517578125,0.30517578125
312464,0.026611328125,0.0140380859375,1.0115966796875,0.6713866591453552,-0.3662109076976776,0.3662109076976776
312495,0.0343017578125,0.01416015625,1.03271484375,0.7324218153953552,-0.30517578125,0.3662109076976776
312517,0.02734375,0.0135498046875,1.0174560546875,0.6713866591453552,-0.30517578125,0.3662109076976776
312533,0.027587890625,0.013427734375,1.0284423828125,0.6103515625,-0.2441406100988388,0.30517578125
312550,0.0316162109375,0.012939453125,1.0269775390625,0.6103515625,-0.3662109076976776,0.30517578125
312567,0.0318603515625,0.012939453125,1.0228271484375,0.6103515625,-0.30517578125,0.3662109076976776
312583,0.0306396484375,0.0145263671875,1.030029296875,0.6103515625,-0.30517578125,0.3662109076976776
312615,0.0294189453125,0.0145263671875,1.0223388671875,0.6103515625,-0.2441406100988388,0.2441406100988388
312631,0.03125,0.01416015625,1.0255126953125,0.54931640625,-0.30517578125,0.30517578125
312647,0.0311279296875,0.0137939453125,1.0242919921875,0.54931640625,-0.30517578125,0.30517578125
312676,0.029541015625,0.0147705078125,1.0252685546875,0.6713866591453552,-0.2441406100988388,0.30517578125
312698,0.0302734375,0.0137939453125,1.024658203125,0.6713866591453552,-0.30517578125,0.30517578125
312714,0.0308837890625,0.013427734375,1.0262451171875,0.6103515625,-0.30517578125,0.30517578125
312731,0.0302734375,0.0150146484375,1.0220947265625,0.6103515625,-0.30517578125,0.30517578125
312797,0.0313720703125,0.01416015625,1.0234375,0.7324218153953552,-0.2441406100988388,0.30517578125
312814,0.0296630859375,0.0145263671875,1.027099609375,0.7324218153953552,-0.30517578125,0.30517578125
312830,0.029052734375,0.01416015625,1.0174560546875,0.7324218153953552,-0.2441406100988388,0.30517578125
312846,0.030517578125,0.01416015625,1.022705078125,0.7324218153953552,-0.2441406100988388,0.3662109076976776
312866,0.03173828125,0.015380859375,1.0284423828125,0.7324218153953552,-0.2441406100988388,0.30517578125
312888,0.0284423828125,0.013427734375,1.0123291015625,0.7324218153953552,-0.1831054538488388,0.2441406100988388
312904,0.031494140625,0.01318359375,1.0419921875,0.7324218153953552,-0.1831054538488388,0.2441406100988388
312923,0.0301513671875,0.013916015625,1.025146484375,0.7934569716453552,-0.2441406100988388,0.30517578125
312940,0.0274658203125,0.0140380859375,1.00634765625,0.9155272841453552,-0.1831054538488388,0.30517578125
312973,0.0313720703125,0.01513671875,1.027099609375,0.8544921278953552,-0.2441406100988388,0.2441406100988388
312990,0.0294189453125,0.014404296875,1.0172119140625,0.8544921278953552,-0.2441406100988388,0.2441406100988388
313006,0.0302734375,0.01416015625,1.0291748046875,0.7934569716453552,-0.2441406100988388,0.2441406100988388
313036,0.030517578125,0.0145263671875,1.021728515625,0.8544921278953552,-0.2441406100988388,0.30517578125
313057,0.0313720703125,0.0140380859375,1.0311279296875,0.8544921278953552,-0.1831054538488388,0.30517578125
313073,0.0296630859375,0.0128173828125,1.0257568359375,0.8544921278953552,-0.1831054538488388,0.30517578125
313090,0.0294189453125,0.0128173828125,1.0233154296875,0.7934569716453552,-0.2441406100988388,0.30517578125
313107,0.0306396484375,0.013671875,1.02734375,0.9155272841453552,-0.3662109076976776,0.3662109076976776
313123,0.02978515625,0.013427734375,1.02685546875,0.8544921278953552,-0.30517578125,0.3662109076976776
313156,0.0306396484375,0.01416015625,1.0233154296875,0.7934569716453552,-0.30517578125,0.30517578125
313177,0.0306396484375,0.0133056640625,1.02734375,0.7324218153953552,-0.2441406100988388,0.2441406100988388
313193,0.030517578125,0.0133056640625,1.0208740234375,0.7324218153953552,-0.2441406100988388,0.30517578125
313209,0.030029296875,0.013671875,1.0225830078125,0.7324218153953552,-0.2441406100988388,0.30517578125
313228,0.02978515625,0.0137939453125,1.0269775390625,0.7324218153953552,-0.2441406100988388,0.2441406100988388
313249,0.0302734375,0.0130615234375,1.02490234375,0.7324218153953552,-0.30517578125,0.30517578125
313265,0.0301513671875,0.013427734375,1.0277099609375,0.6713866591453552,-0.30517578125,0.4272460639476776
313286,0.0299072265625,0.013916015625,1.0242919921875,0.6713866591453552,-0.2441406100988388,0.30517578125
313306,0.0308837890625,0.014892578125,1.02880859375,0.6713866591453552,-0.30517578125,0.2441406100988388
313322,0.0306396484375,0.0128173828125,1.0240478515625,0.6713866591453552,-0.3662109076976776,0.30517578125
313338,0.030517578125,0.012451171875,1.0252685546875,0.6713866591453552,-0.3662109076976776,0.30517578125
313406,0.031494140625,0.0133056640625,1.0218505859375,0.6103515625,-0.3662109076976776,0.2441406100988388
313422,0.0316162109375,0.0142822265625,1.0257568359375,0.6103515625,-0.30517578125,0.30517578125
313438,0.0302734375,0.0145263671875,1.029296875,0.6103515625,-0.2441406100988388,0.30517578125
313454,0.02880859375,0.0128173828125,1.0245361328125,0.54931640625,-0.30517578125,0.30517578125
313471,0.029296875,0.013427734375,1.0198974609375,0.54931640625,-0.30517578125,0.2441406100988388
313492,0.0321044921875,0.0142822265625,1.0279541015625,0.6103515625,-0.30517578125,0.30517578125
313508,0.0299072265625,0.013671875,1.0272216796875,0.6103515625,-0.30517578125,0.2441406100988388
313525,0.0284423828125,0.014404296875,1.021728515625,0.6103515625,-0.30517578125,0.2441406100988388
313542,0.0299072265625,0.0145263671875,1.0269775390625,0.54931640625,-0.2441406100988388,0.30517578125
313575,0.0308837890625,0.0142822265625,1.02392578125,0.6103515625,-0.2441406100988388,0.30517578125
313592,0.029296875,0.0137939453125,1.029052734375,0.54931640625,-0.2441406100988388,0.2441406100988388
313608,0.029541015625,0.0142822265625,1.0250244140625,0.6103515625,-0.2441406100988388,0.30517578125
313641,0.030517578125,0.0135498046875,1.0234375,0.6713866591453552,-0.2441406100988388,0.3662109076976776
313662,0.0311279296875,0.01318359375,1.0267333984375,0.6713866591453552,-0.1831054538488388,0.30517578125
313678,0.029541015625,0.0155029296875,1.0242919921875,0.6713866591453552,-0.2441406100988388,0.30517578125
313695,0.0279541015625,0.0146484375,1.025146484375,0.7324218153953552,-0.2441406100988388,0.3662109076976776
313712,0.029296875,0.014404296875,1.0252685546875,0.6713866591453552,-0.2441406100988388,0.30517578125
313728,0.0325927734375,0.0150146484375,1.0279541015625,0.7324218153953552,-0.2441406100988388,0.30517578125
313745,0.02978515625,0.014892578125,1.02197265625,0.7934569716453552,-0.1831054538488388,0.30517578125
313766,0.0299072265625,0.0137939453125,1.023681640625,0.7324218153953552,-0.1831054538488388,0.30517578125
313782,0.03125,0.013671875,1.0247802734375,0.7934569716453552,-0.1831054538488388,0.30517578125
313798,0.0302734375,0.0142822265625,1.0244140625,0.7934569716453552,-0.2441406100988388,0.30517578125
313814,0.02978515625,0.014404296875,1.0277099609375,0.8544921278953552,-0.1831054538488388,0.2441406100988388
313878,0.0316162109375,0.0130615234375,1.0277099609375,0.7934569716453552,-0.2441406100988388,0.30517578125
313900,0.0299072265625,0.0128173828125,1.0247802734375,0.8544921278953552,-0.1831054538488388,0.30517578125
313916,0.029541015625,0.0130615234375,1.0263671875,0.9155272841453552,-0.2441406100988388,0.2441406100988388
313933,0.0299072265625,0.013916015625,1.0255126953125,0.7934569716453552,-0.30517578125,0.30517578125
313950,0.0308837890625,0.013671875,1.0245361328125,0.7934569716453552,-0.2441406100988388,0.30517578125
313966,0.031494140625,0.0125732421875,1.0264892578125,0.7934569716453552,-0.2441406100988388,0.2441406100988388
313999,0.0303955078125,0.0137939453125,1.0257568359375,0.7934569716453552,-0.30517578125,0.30517578125
314016,0.0296630859375,0.01416015625,1.0245361328125,0.8544921278953552,-0.2441406100988388,0.30517578125
314032,0.0302734375,0.0137939453125,1.0247802734375,0.7934569716453552,-0.2441406100988388,0.30517578125
314048,0.030517578125,0.0137939453125,1.0267333984375,0.7934569716453552,-0.2441406100988388,0.3662109076976776
314073,0.0296630859375,0.01318359375,1.02490234375,0.7324218153953552,-0.2441406100988388,0.3662109076976776
314089,0.0303955078125,0.013671875,1.0247802734375,0.7324218153953552,-0.2441406100988388,0.2441406100988388
314106,0.0313720703125,0.0126953125,1.0269775390625,0.7324218153953552,-0.2441406100988388,0.1831054538488388
314123,0.0302734375,0.0128173828125,1.0264892578125,0.6103515625,-0.30517578125,0.2441406100988388
314139,0.029541015625,0.0130615234375,1.0244140625,0.6713866591453552,-0.2441406100988388,0.2441406100988388
314172,0.0301513671875,0.0126953125,1.0279541015625,0.6103515625,-0.30517578125,0.3662109076976776
314233,0.0301513671875,0.0142822265625,1.025390625,0.54931640625,-0.30517578125,0.2441406100988388
314254,0.0306396484375,0.01416015625,1.0277099609375,0.6103515625,-0.2441406100988388,0.3662109076976776
314271,0.031005859375,0.013671875,1.025390625,0.6103515625,-0.2441406100988388,0.30517578125
314288,0.0281982421875,0.0142822265625,1.0264892578125,0.54931640625,-0.2441406100988388,0.2441406100988388
314305,0.0302734375,0.0137939453125,1.0262451171875,0.54931640625,-0.2441406100988388,0.30517578125
314354,0.029296875,0.01513671875,1.025390625,0.54931640625,-0.3662109076976776,0.2441406100988388
314376,0.0281982421875,0.0150146484375,1.0247802734375,0.6103515625,-0.30517578125,0.30517578125
314392,0.0289306640625,0.014892578125,1.02490234375,0.6103515625,-0.1831054538488388,0.2441406100988388
314409,0.03076171875,0.0145263671875,1.0281982421875,0.6103515625,-0.2441406100988388,0.2441406100988388
314426,0.0303955078125,0.0142822265625,1.0240478515625,0.54931640625,-0.30517578125,0.2441406100988388
314442,0.030029296875,0.0147705078125,1.0233154296875,0.6103515625,-0.2441406100988388,0.2441406100988388
314476,0.0306396484375,0.0146484375,1.0245361328125,0.6103515625,-0.2441406100988388,0.2441406100988388
314492,0.0308837890625,0.014404296875,1.024658203125,0.6713866591453552,-0.30517578125,0.30517578125
314508,0.0306396484375,0.0145263671875,1.0225830078125,0.6713866591453552,-0.2441406100988388,0.3662109076976776
314540,0.0294189453125,0.0145263671875,1.0242919921875,0.6103515625,-0.2441406100988388,0.2441406100988388
314556,0.0299072265625,0.0140380859375,1.024169921875,0.7324218153953552,-0.2441406100988388,0.30517578125
314572,0.030517578125,0.0137939453125,1.0211181640625,0.7934569716453552,-0.2441406100988388,0.30517578125
314588,0.0308837890625,0.0146484375,1.0279541015625,0.7324218153953552,-0.1831054538488388,0.30517578125
314609,0.031494140625,0.0145263671875,1.0340576171875,0.7324218153953552,-0.30517578125,0.2441406100988388
314630,0.0283203125,0.013427734375,1.017578125,0.7934569716453552,-0.30517578125,0.30517578125
314646,0.030029296875,0.014404296875,1.0264892578125,0.7934569716453552,-0.2441406100988388,0.3662109076976776
314663,0.031494140625,0.0145263671875,1.030517578125,0.7934569716453552,-0.30517578125,0.3662109076976776
314713,0.02978515625,0.0135498046875,1.031005859375,0.7934569716453552,-0.2441406100988388,0.30517578125
314729,0.031982421875,0.013671875,1.026123046875,0.8544921278953552,-0.1831054538488388,0.3662109076976776
314777,0.030517578125,0.0147705078125,1.0299072265625,0.7324218153953552,-0.2441406100988388,0.30517578125
314799,0.0306396484375,0.0145263671875,1.0240478515625,0.7324218153953552,-0.2441406100988388,0.2441406100988388
314815,0.0301513671875,0.013916015625,1.0235595703125,0.8544921278953552,-0.2441406100988388,0.30517578125
314836,0.0311279296875,0.012939453125,1.02880859375,0.7934569716453552,-0.2441406100988388,0.3662109076976776
314856,0.03076171875,0.0142822265625,1.025390625,0.7324218153953552,-0.30517578125,0.30517578125
314889,0.030517578125,0.01318359375,1.03125,0.6713866591453552,-0.2441406100988388,0.30517578125
314906,0.03076171875,0.0135498046875,1.0216064453125,0.7324218153953552,-0.2441406100988388,0.30517578125
314923,0.0302734375,0.0130615234375,1.026611328125,0.6713866591453552,-0.2441406100988388,0.2441406100988388
314956,0.0311279296875,0.01416015625,1.0289306640625,0.7324218153953552,-0.2441406100988388,0.2441406100988388
314976,0.0322265625,0.01416015625,1.0377197265625,0.7324218153953552,-0.30517578125,0.2441406100988388
314992,0.029052734375,0.012939453125,1.0126953125,0.6713866591453552,-0.30517578125,0.30517578125
315009,0.0306396484375,0.0130615234375,1.0311279296875,0.6713866591453552,-0.2441406100988388,0.30517578125
315026,0.0322265625,0.013427734375,1.0364990234375,0.6713866591453552,-0.30517578125,0.30517578125
315042,0.030029296875,0.0128173828125,1.0174560546875,0.6713866591453552,-0.30517578125,0.30517578125
315075,0.0301513671875,0.013671875,1.02587890625,0.6713866591453552,-0.30517578125,0.30517578125
315097,0.03076171875,0.013427734375,1.0230712890625,0.6103515625,-0.2441406100988388,0.30517578125
315113,0.03125,0.0130615234375,1.0281982421875,0.6103515625,-0.30517578125,0.30517578125
315130,0.0303955078125,0.01318359375,1.0244140625,0.6103515625,-0.2441406100988388,0.30517578125
315147,0.0299072265625,0.0142822265625,1.028564453125,0.54931640625,-0.2441406100988388,0.3662109076976776
315163,0.0302734375,0.0147705078125,1.022216796875,0.54931640625,-0.2441406100988388,0.30517578125
315197,0.030517578125,0.0137939453125,1.027099609375,0.6713866591453552,-0.2441406100988388,0.2441406100988388
315264,0.0308837890625,0.0142822265625,1.025146484375,0.6713866591453552,-0.30517578125,0.2441406100988388
315286,0.0301513671875,0.0146484375,1.0234375,0.6713866591453552,-0.30517578125,0.30517578125
315302,0.0291748046875,0.0146484375,1.0277099609375,0.6713866591453552,-0.30517578125,0.2441406100988388
315323,0.031005859375,0.0135498046875,1.02392578125,0.7324218153953552,-0.2441406100988388,0.30517578125
315340,0.03076171875,0.01513671875,1.02490234375,0.7934569716453552,-0.30517578125,0.30517578125
315356,0.0296630859375,0.014892578125,1.02587890625,0.7324218153953552,-0.2441406100988388,0.30517578125
315373,0.0289306640625,0.01318359375,1.0242919921875,0.7324218153953552,-0.2441406100988388,0.2441406100988388
315389,0.03125,0.0145263671875,1.0247802734375,0.7324218153953552,-0.30517578125,0.30517578125
315405,0.0311279296875,0.0150146484375,1.0260009765625,0.7324218153953552,-0.2441406100988388,0.30517578125
315437,0.0289306640625,0.012939453125,1.0185546875,0.7324218153953552,-0.2441406100988388,0.2441406100988388
315458,0.029296875,0.0137939453125,1.022705078125,0.7934569716453552,-0.30517578125,0.2441406100988388
315474,0.0302734375,0.0135498046875,1.0335693359375,0.6713866591453552,-0.30517578125,0.2441406100988388
315491,0.0302734375,0.0133056640625,1.0277099609375,0.6713866591453552,-0.2441406100988388,0.2441406100988388
315508,0.02978515625,0.0128173828125,1.021728515625,0.7324218153953552,-0.2441406100988388,0.30517578125
315524,0.0296630859375,0.0128173828125,1.0196533203125,0.7324218153953552,-0.2441406100988388,0.2441406100988388
315558,0.0301513671875,0.013671875,1.0260009765625,0.7934569716453552,-0.30517578125,0.30517578125
315624,0.030029296875,0.0135498046875,1.02490234375,0.7324218153953552,-0.2441406100988388,0.3662109076976776
315646,0.0289306640625,0.0135498046875,1.025146484375,0.7934569716453552,-0.2441406100988388,0.30517578125
315662,0.030517578125,0.01318359375,1.0245361328125,0.7934569716453552,-0.2441406100988388,0.30517578125
315683,0.03076171875,0.0133056640625,1.02685546875,0.7324218153953552,-0.30517578125,0.30517578125
315703,0.0306396484375,0.0142822265625,1.024658203125,0.6103515625,-0.30517578125,0.2441406100988388
315724,0.0301513671875,0.01416015625,1.024658203125,0.6713866591453552,-0.2441406100988388,0.30517578125
315744,0.0289306640625,0.013671875,1.024658203125,0.7324218153953552,-0.2441406100988388,0.30517578125
315761,0.03076171875,0.0137939453125,1.0260009765625,0.6103515625,-0.2441406100988388,0.2441406100988388
315777,0.03076171875,0.0137939453125,1.0260009765625,0.6713866591453552,-0.2441406100988388,0.2441406100988388
315796,0.0299072265625,0.0130615234375,1.025146484375,0.7324218153953552,-0.2441406100988388,0.2441406100988388
315818,0.0302734375,0.0137939453125,1.025146484375,0.6713866591453552,-0.30517578125,0.30517578125
315834,0.0303955078125,0.01513671875,1.0252685546875,0.6713866591453552,-0.30517578125,0.30517578125
315851,0.030029296875,0.0137939453125,1.02587890625,0.6713866591453552,-0.30517578125,0.3662109076976776
315868,0.030029296875,0.0128173828125,1.0257568359375,0.6713866591453552,-0.2441406100988388,0.2441406100988388
315884,0.029052734375,0.013427734375,1.0257568359375,0.6713866591453552,-0.1831054538488388,0.2441406100988388
315917,0.0299072265625,0.0140380859375,1.0245361328125,0.6713866591453552,-0.2441406100988388,0.30517578125
315934,0.030517578125,0.0140380859375,1.025634765625,0.6713866591453552,-0.30517578125,0.30517578125
315950,0.0302734375,0.0135498046875,1.025146484375,0.6103515625,-0.2441406100988388,0.30517578125
315986,0.030029296875,0.0137939453125,1.0269775390625,0.7324218153953552,-0.30517578125,0.30517578125
316034,0.0311279296875,0.0130615234375,1.0252685546875,0.7324218153953552,-0.30517578125,0.30517578125
316051,0.030029296875,0.013916015625,1.0247802734375,0.7324218153953552,-0.30517578125,0.30517578125
316072,0.0299072265625,0.0145263671875,1.024658203125,0.7934569716453552,-0.30517578125,0.2441406100988388
316088,0.0303955078125,0.0142822265625,1.0263671875,0.6713866591453552,-0.2441406100988388,0.30517578125
316105,0.031005859375,0.0135498046875,1.02490234375,0.6713866591453552,-0.2441406100988388,0.30517578125
316122,0.0296630859375,0.013916015625,1.0263671875,0.7324218153953552,-0.30517578125,0.2441406100988388
316155,0.028564453125,0.0137939453125,1.02587890625,0.7324218153953552,-0.2441406100988388,0.30517578125
316171,0.0303955078125,0.013671875,1.0242919921875,0.7324218153953552,-0.2441406100988388,0.30517578125
316187,0.031005859375,0.013671875,1.0255126953125,0.7324218153953552,-0.30517578125,0.30517578125
316217,0.0294189453125,0.013671875,1.025146484375,0.7324218153953552,-0.1831054538488388,0.2441406100988388
316238,0.0286865234375,0.013427734375,1.02587890625,0.7324218153953552,-0.1831054538488388,0.30517578125
316255,0.02978515625,0.0133056640625,1.0252685546875,0.7324218153953552,-0.2441406100988388,0.30517578125
316272,0.0302734375,0.0130615234375,1.0224609375,0.7324218153953552,-0.2441406100988388,0.2441406100988388
316288,0.0296630859375,0.01318359375,1.0240478515625,0.7324218153953552,-0.2441406100988388,0.30517578125
316305,0.0303955078125,0.0140380859375,1.025390625,0.7934569716453552,-0.30517578125,0.3662109076976776
316337,0.03125,0.0128173828125,1.0240478515625,0.6713866591453552,-0.2441406100988388,0.3662109076976776
316358,0.0291748046875,0.013916015625,1.027099609375,0.6713866591453552,-0.2441406100988388,0.2441406100988388
316374,0.029296875,0.013427734375,1.0263671875,0.7324218153953552,-0.2441406100988388,0.30517578125
316391,0.0301513671875,0.0133056640625,1.0213623046875,0.7324218153953552,-0.30517578125,0.2441406100988388
316408,0.031005859375,0.013427734375,1.0198974609375,0.7324218153953552,-0.30517578125,0.30517578125
316424,0.0306396484375,0.01318359375,1.02783203125,0.7324218153953552,-0.2441406100988388,0.2441406100988388
316456,0.0289306640625,0.013671875,1.0235595703125,0.6713866591453552,-0.30517578125,0.2441406100988388
316478,0.030029296875,0.01318359375,1.0245361328125,0.6103515625,-0.30517578125,0.2441406100988388
316494,0.0308837890625,0.0137939453125,1.0252685546875,0.6713866591453552,-0.30517578125,0.2441406100988388
316511,0.0302734375,0.013427734375,1.0223388671875,0.7934569716453552,-0.2441406100988388,0.30517578125
316528,0.0294189453125,0.0147705078125,1.0269775390625,0.6713866591453552,-0.30517578125,0.30517578125
316544,0.02880859375,0.013671875,1.0264892578125,0.6713866591453552,-0.30517578125,0.30517578125
316575,0.03076171875,0.014404296875,1.02490234375,0.7324218153953552,-0.1831054538488388,0.2441406100988388
316592,0.03076171875,0.013916015625,1.0233154296875,0.6713866591453552,-0.1831054538488388,0.30517578125
316608,0.0299072265625,0.0140380859375,1.02490234375,0.6713866591453552,-0.2441406100988388,0.30517578125
316640,0.0296630859375,0.0137939453125,1.02490234375,0.6713866591453552,-0.2441406100988388,0.30517578125
316688,0.02978515625,0.014404296875,1.0267333984375,0.7324218153953552,-0.2441406100988388,0.30517578125
316714,0.0289306640625,0.0146484375,1.0238037109375,0.7324218153953552,-0.2441406100988388,0.30517578125
316734,0.0302734375,0.01416015625,1.0294189453125,0.6713866591453552,-0.30517578125,0.2441406100988388
316750,0.029052734375,0.012939453125,1.0157470703125,0.7324218153953552,-0.30517578125,0.30517578125
316767,0.0316162109375,0.013916015625,1.03271484375,0.7324218153953552,-0.2441406100988388,0.30517578125
316784,0.0291748046875,0.0142822265625,1.0263671875,0.7324218153953552,-0.2441406100988388,0.30517578125
316824,0.0323486328125,0.0137939453125,1.0343017578125,0.7324218153953552,-0.2441406100988388,0.30517578125
316841,0.031005859375,0.0135498046875,1.0277099609375,0.7324218153953552,-0.1831054538488388,0.3662109076976776
316857,0.02880859375,0.0145263671875,1.020751953125,0.7324218153953552,-0.30517578125,0.30517578125
316873,0.0294189453125,0.0137939453125,1.0279541015625,0.7324218153953552,-0.30517578125,0.30517578125
316890,0.0301513671875,0.0130615234375,1.0284423828125,0.7324218153953552,-0.2441406100988388,0.30517578125
316911,0.0308837890625,0.0142822265625,1.0260009765625,0.7934569716453552,-0.30517578125,0.2441406100988388
316927,0.02880859375,0.0133056640625,1.024169921875,0.7934569716453552,-0.30517578125,0.2441406100988388
316944,0.0294189453125,0.0137939453125,1.02783203125,0.7324218153953552,-0.2441406100988388,0.30517578125
316961,0.029052734375,0.01416015625,1.0211181640625,0.6713866591453552,-0.2441406100988388,0.30517578125
316994,0.0294189453125,0.015380859375,1.0194091796875,0.8544921278953552,-0.30517578125,0.2441406100988388
317011,0.02880859375,0.01611328125,1.01806640625,0.8544921278953552,-0.2441406100988388,0.30517578125
317027,0.031494140625,0.0147705078125,1.0364990234375,0.9155272841453552,-0.30517578125,0.2441406100988388
317057,0.030029296875,0.0157470703125,1.0216064453125,1.15966796875,-0.30517578125,0.2441406100988388
317078,0.029541015625,0.01611328125,1.0274658203125,1.2817381620407104,-0.30517578125,0.30517578125
317095,0.0294189453125,0.0142822265625,1.0211181640625,1.4648436307907104,-0.30517578125,0.1831054538488388
317112,0.0311279296875,0.0152587890625,1.02978515625,1.5869139432907104,-0.2441406100988388,0.2441406100988388
317129,0.0308837890625,0.01318359375,1.02099609375,1.5869139432907104,-0.30517578125,0.30517578125
317145,0.030517578125,0.013427734375,1.029052734375,1.7089842557907104,-0.3662109076976776,0.2441406100988388
317178,0.0302734375,0.0133056640625,1.0235595703125,1.7700194120407104,-0.2441406100988388,0.2441406100988388
317194,0.0302734375,0.0145263671875,1.0272216796875,1.8920897245407104,-0.30517578125,0.2441406100988388
317210,0.030029296875,0.013671875,1.022705078125,2.01416015625,-0.30517578125,0.1831054538488388
317251,0.0302734375,0.013916015625,1.0230712890625,2.3193359375,-0.3662109076976776,0.1831054538488388
317267,0.03125,0.013427734375,1.0289306640625,2.38037109375,-0.30517578125,0.1831054538488388
317284,0.0306396484375,0.0125732421875,1.0233154296875,2.685546636581421,-0.3662109076976776,0.2441406100988388
317303,0.02880859375,0.013427734375,1.0264892578125,2.929687261581421,-0.3662109076976776,0.1831054538488388
317320,0.0274658203125,0.012451171875,1.0244140625,3.356933355331421,-0.3662109076976776,0.1220703050494194
317336,0.0289306640625,0.0167236328125,1.024658203125,3.906249761581421,-0.2441406100988388,0.1831054538488388
317353,0.031005859375,0.014892578125,1.0294189453125,4.08935546875,-0.2441406100988388,0.1831054538488388
317370,0.0325927734375,0.0093994140625,1.017333984375,4.39453125,-0.30517578125,0.1831054538488388
317391,0.030517578125,0.0062255859375,1.0345458984375,4.638671875,-0.30517578125,0.2441406100988388
317407,0.026123046875,0.004150390625,1.01806640625,4.638671875,-0.3662109076976776,0.1831054538488388
317424,0.0281982421875,0.003173828125,1.0177001953125,4.638671875,-0.30517578125,0.1220703050494194
317441,0.0325927734375,-0.0028076171875,1.032958984375,4.5166015625,-0.4272460639476776,0.1831054538488388
317474,0.0279541015625,-0.0035400390625,1.0216064453125,3.967284917831421,-0.4272460639476776,0.1220703050494194
317491,0.0321044921875,-0.0018310546875,1.030029296875,3.845214605331421,-0.3662109076976776,0.1831054538488388
317507,0.0313720703125,-0.001220703125,1.021240234375,3.662109136581421,-0.3662109076976776,0.1831054538488388
317539,0.027099609375,-0.0084228515625,1.03076171875,3.417968511581421,-0.30517578125,0.1831054538488388
317555,0.028076171875,-0.0108642578125,1.021728515625,3.234863042831421,-0.1831054538488388,0.1831054538488388
317571,0.0294189453125,-0.0108642578125,1.021484375,2.929687261581421,-0.1220703050494194,0.1220703050494194
317587,0.031982421875,-0.00732421875,1.027587890625,2.50244140625,-0.2441406100988388,0.2441406100988388
317612,0.0284423828125,-0.0106201171875,1.02294921875,2.0751953125,-0.0610351525247097,0.30517578125
317628,0.025390625,-0.016845703125,1.0213623046875,1.7089842557907104,0.0,0.30517578125
317645,0.025634765625,-0.0157470703125,1.0184326171875,0.9765624403953552,0.4882812201976776,0.30517578125
317666,0.029296875,-0.0186767578125,1.0177001953125,0.3662109076976776,1.8310545682907104,0.4882812201976776
317682,0.0335693359375,-0.0260009765625,1.055419921875,-0.7934569716453552,3.295898199081421,0.54931640625
317715,0.0133056640625,-0.022216796875,1.132080078125,-2.868652105331421,4.33349609375,0.4272460639476776
317731,0.0135498046875,-0.0074462890625,1.451171875,-1.6479490995407104,3.112792730331421,-0.0610351525247097
317747,0.0377197265625,0.0389404296875,1.607666015625,0.6103515625,-0.7934569716453552,-0.2441406100988388
317779,0.020751953125,0.0517578125,1.418701171875,2.807616949081421,-1.03759765625,-0.1220703050494194
317795,0.0194091796875,0.0435791015625,1.385498046875,2.563476324081421,-0.3662109076976776,-0.1220703050494194
317827,0.029052734375,0.070068359375,1.2333984375,1.8920897245407104,0.7934569716453552,-0.0610351525247097
317847,0.03955078125,0.046875,1.18603515625,2.624511480331421,2.624511480331421,0.0610351525247097
317863,0.05029296875,0.021484375,1.2076416015625,2.746581792831421,3.051757574081421,0.0610351525247097
317879,0.06103515625,-0.025634765625,1.2391357421875,3.051757574081421,2.746581792831421,-0.2441406100988388
317895,0.06787109375,-0.017333984375,1.244873046875,2.868652105331421,1.7089842557907104,0.9155272841453552
317917,0.02099609375,-0.6395263671875,0.921142578125,0.0610351525247097,1.2817381620407104,0.2441406100988388
317933,0.0374755859375,-0.2490234375,0.8790283203125,9.6435546875,7.934569835662842,-8.48388671875
317950,0.1083984375,0.1055908203125,1.364501953125,10.498045921325684,9.33837890625,-8.11767578125
317968,0.106201171875,0.0555419921875,1.434326171875,15.747069358825684,4.57763671875,-4.150390625
317984,0.0816650390625,-0.1553955078125,1.3194580078125,13.366698265075684,2.0751953125,-5.920409679412842
318017,0.0787353515625,0.015380859375,1.1395263671875,17.578125,0.8544921278953552,-6.347655773162842
318034,0.0682373046875,-0.043701171875,1.1107177734375,17.15087890625,0.7324218153953552,-6.286620616912842
318050,0.064697265625,-0.053466796875,1.131591796875,18.24951171875,0.4272460639476776,-6.774901866912842
318070,0.060302734375,-0.0279541015625,1.126953125,17.4560546875,0.30517578125,-7.141112804412842
318087,0.060791015625,-0.0167236328125,1.142333984375,18.00537109375,0.30517578125,-7.324218273162842
318111,0.0626220703125,-0.04443359375,1.2218017578125,19.95849609375,-0.1220703050494194,-7.446288585662842
318127,0.0640869140625,-0.02734375,1.24072265625,19.83642578125,-0.7324218153953552,-7.812499523162842
318144,0.0648193359375,-0.057861328125,1.26611328125,21.240232467651367,-1.4038084745407104,-7.995604991912842
318161,0.0684814453125,-0.0673828125,1.28662109375,20.935056686401367,-1.6479490995407104,-8.1787109375
318194,0.0711669921875,-0.0723876953125,1.235107421875,20.874021530151367,-3.601073980331421,-8.72802734375
318211,0.062744140625,-0.07568359375,1.1739501953125,20.324705123901367,-4.150390625,-8.9111328125
318227,0.0489501953125,-0.0867919921875,1.1131591796875,19.775390625,-4.21142578125,-8.9111328125
318259,0.0445556640625,-0.0838623046875,1.068115234375,17.4560546875,-4.33349609375,-8.60595703125
318275,0.0433349609375,-0.091796875,1.04541015625,16.78466796875,-4.45556640625,-8.60595703125
318291,0.0372314453125,-0.097412109375,0.9918212890625,15.686034202575684,-4.21142578125,-8.48388671875
318307,0.0350341796875,-0.10595703125,0.9786376953125,15.197752952575684,-3.906249761581421,-8.4228515625
318332,0.0391845703125,-0.103515625,0.9842529296875,14.221190452575684,-4.0283203125,-8.36181640625
318348,0.0361328125,-0.105224609375,0.9334716796875,13.854979515075684,-4.08935546875,-8.23974609375
318365,0.0318603515625,-0.0963134765625,0.8780517578125,13.366698265075684,-3.662109136581421,-7.873534679412842
318386,0.0294189453125,-0.1007080078125,0.849853515625,12.939452171325684,-3.356933355331421,-7.690429210662842
318402,0.02490234375,-0.099853515625,0.797607421875,12.634276390075684,-3.417968511581421,-7.568358898162842
318435,0.0211181640625,-0.0877685546875,0.663818359375,11.718749046325684,-2.990722417831421,-7.141112804412842
318451,0.0179443359375,-0.0833740234375,0.583984375,10.986327171325684,-2.685546636581421,-6.835937023162842
318467,0.015380859375,-0.08154296875,0.537109375,10.559081077575684,-2.50244140625,-6.713866710662842
318499,0.0106201171875,-0.0572509765625,0.3837890625,8.36181640625,-0.6103515625,-6.286620616912842
318515,0.011962890625,-0.056640625,0.38232421875,7.873534679412842,-0.1220703050494194,-6.103515148162842
318531,0.0101318359375,-0.051025390625,0.3902587890625,7.080077648162842,0.54931640625,-5.920409679412842
318547,0.008544921875,-0.05419921875,0.40478515625,6.774901866912842,0.8544921278953552,-5.798339366912842
318567,0.0069580078125,-0.0540771484375,0.4443359375,6.286620616912842,1.2817381620407104,-5.615233898162842
318583,0.004638671875,-0.0579833984375,0.4886474609375,5.798339366912842,1.8920897245407104,-5.065917491912842
318599,0.0048828125,-0.0672607421875,0.5880126953125,5.554198741912842,2.38037109375,-4.94384765625
318615,0.0067138671875,-0.075927734375,0.661865234375,5.065917491912842,3.173827886581421,-4.57763671875
318631,0.0145263671875,-0.0963134765625,0.83642578125,4.5166015625,3.356933355331421,-4.21142578125
318679,0.0213623046875,-0.1466064453125,1.1605224609375,2.929687261581421,2.13623046875,-3.234863042831421
318695,0.0225830078125,-0.158935546875,1.197998046875,2.25830078125,1.0986328125,-2.990722417831421
318711,0.0206298828125,-0.1693115234375,1.2108154296875,1.4038084745407104,0.0,-2.685546636581421
318727,0.017822265625,-0.175048828125,1.1915283203125,0.8544921278953552,-0.4272460639476776,-2.50244140625
318751,0.010986328125,-0.1881103515625,1.12451171875,-0.7324218153953552,-0.9765624403953552,-2.01416015625
318767,0.0101318359375,-0.212646484375,1.056884765625,-3.295898199081421,-1.0986328125,-1.7089842557907104
318784,0.0089111328125,-0.2386474609375,0.97412109375,-4.8828125,-1.15966796875,-1.5869139432907104
318805,0.0162353515625,-0.168212890625,0.95703125,-8.48388671875,-0.9765624403953552,-1.5869139432907104
318821,0.0137939453125,-0.1883544921875,0.896240234375,-8.1787109375,-0.7324218153953552,-0.9765624403953552
318838,0.010986328125,-0.2130126953125,0.894775390625,-10.070799827575684,-0.4882812201976776,-0.6103515625
318855,0.0167236328125,-0.20263671875,0.9281005859375,-8.9111328125,-0.3662109076976776,-0.4272460639476776
318871,0.0191650390625,-0.1927490234375,0.984375,-10.314940452575684,-0.4882812201976776,-0.4272460639476776
318887,0.020263671875,-0.1683349609375,1.00830078125,-9.3994140625,-0.6713866591453552,-0.3662109076976776
318919,0.0233154296875,-0.13818359375,1.074951171875,-8.36181640625,-1.3427733182907104,0.1831054538488388
318935,0.02490234375,-0.129150390625,1.1070556640625,-6.225585460662842,-1.8920897245407104,0.4882812201976776
318951,0.0244140625,-0.1014404296875,1.12548828125,-4.82177734375,-2.746581792831421,0.7934569716453552
318999,0.02490234375,-0.0828857421875,1.062255859375,-0.6713866591453552,-3.662109136581421,1.4648436307907104
319068,0.02294921875,-0.110595703125,0.9693603515625,5.432128429412842,-3.479003667831421,2.746581792831421
319113,0.0196533203125,-0.145263671875,0.970458984375,8.48388671875,-3.173827886581421,3.234863042831421
319130,0.0191650390625,-0.14794921875,0.9727783203125,9.94873046875,-2.990722417831421,3.479003667831421
319146,0.0179443359375,-0.1640625,0.9918212890625,10.498045921325684,-2.807616949081421,3.540038824081421
319166,0.0169677734375,-0.1680908203125,1.00341796875,12.512206077575684,-2.685546636581421,3.784179449081421
319183,0.016357421875,-0.1685791015625,1.00390625,13.549803733825684,-2.563476324081421,3.906249761581421
319199,0.0167236328125,-0.1634521484375,1.0057373046875,14.038084983825684,-2.50244140625,4.0283203125
319215,0.012451171875,-0.1585693359375,0.9951171875,14.587401390075684,-2.50244140625,4.08935546875
319231,0.0068359375,-0.14306640625,0.96044921875,14.709471702575684,-2.50244140625,4.21142578125
319247,0.004638671875,-0.1402587890625,0.939453125,14.648436546325684,-2.44140625,4.5166015625
319279,-0.000732421875,-0.1187744140625,0.876953125,14.038084983825684,-2.01416015625,4.8828125
319295,-0.001953125,-0.116455078125,0.85009765625,13.244627952575684,-1.5869139432907104,5.126952648162842
319311,-0.001953125,-0.1171875,0.823974609375,12.817381858825684,-1.4038084745407104,5.187987804412842
319327,-0.00048828125,-0.1204833984375,0.815185546875,11.840819358825684,-1.0986328125,5.371093273162842
319347,0.0009765625,-0.1373291015625,0.805908203125,10.375975608825684,-1.03759765625,5.554198741912842
319363,-0.00146484375,-0.1480712890625,0.778076171875,8.60595703125,-1.2817381620407104,5.493163585662842
319379,-0.004150390625,-0.150146484375,0.7528076171875,7.507323741912842,-1.15966796875,5.554198741912842
319395,-0.002685546875,-0.1663818359375,0.7303466796875,4.8828125,-0.9155272841453552,5.615233898162842
319417,-0.0015869140625,-0.179931640625,0.7110595703125,3.295898199081421,-0.9765624403953552,5.615233898162842
319433,-0.0045166015625,-0.1832275390625,0.6845703125,0.0,-0.9155272841453552,5.554198741912842
319450,-0.0042724609375,-0.1871337890625,0.693359375,-3.417968511581421,-0.3662109076976776,5.676269054412842
319516,-0.001953125,-0.202392578125,0.8179931640625,-14.160155296325684,-0.4882812201976776,5.554198741912842
319533,0.0010986328125,-0.201904296875,0.8590087890625,-16.4794921875,-1.2817381620407104,5.249022960662842
319549,0.0013427734375,-0.1962890625,0.852783203125,-17.4560546875,-1.5869139432907104,5.249022960662842
319581,-0.0028076171875,-0.1907958984375,0.8463134765625,-20.080564498901367,-1.2817381620407104,5.249022960662842
319597,-0.001220703125,-0.1895751953125,0.90869140625,-21.362302780151367,-1.4648436307907104,5.0048828125
319613,0.000244140625,-0.1768798828125,0.9410400390625,-22.094724655151367,-2.197265625,4.82177734375
319629,-0.0009765625,-0.172119140625,0.938720703125,-22.155759811401367,-2.50244140625,4.7607421875
319649,-0.004638671875,-0.1590576171875,0.930908203125,-21.972654342651367,-2.50244140625,4.638671875
319670,-0.0047607421875,-0.146240234375,0.946533203125,-21.301267623901367,-2.25830078125,4.5166015625
319687,-0.0032958984375,-0.1356201171875,0.9815673828125,-20.751951217651367,-2.13623046875,4.45556640625
319704,-0.006591796875,-0.1292724609375,1.0128173828125,-19.1650390625,-1.9531248807907104,4.39453125
319724,-0.0068359375,-0.116455078125,1.0316162109375,-17.02880859375,-1.8310545682907104,4.0283203125
319757,-0.0003662109375,-0.10400390625,1.03271484375,-11.474608421325684,-1.4038084745407104,3.601073980331421
319774,0.004150390625,-0.10546875,1.0401611328125,-8.36181640625,-1.03759765625,3.356933355331421
319790,0.0047607421875,-0.103759765625,1.04150390625,-6.774901866912842,-0.7934569716453552,3.173827886581421
319810,0.0048828125,-0.1025390625,1.074951171875,-3.601073980331421,-0.4882812201976776,2.746581792831421
319864,0.0140380859375,-0.1182861328125,1.0653076171875,3.906249761581421,-0.54931640625,2.0751953125
319885,0.0166015625,-0.12109375,1.065673828125,6.164550304412842,-0.3662109076976776,1.7089842557907104
319902,0.0172119140625,-0.1226806640625,1.06494140625,8.23974609375,-0.1831054538488388,1.4648436307907104
319918,0.0098876953125,-0.1307373046875,1.0709228515625,9.27734375,-0.1220703050494194,1.3427733182907104
319935,0.00732421875,-0.1304931640625,1.1053466796875,12.145995140075684,0.0610351525247097,1.03759765625
319951,0.006591796875,-0.132080078125,1.115478515625,12.939452171325684,-0.0610351525247097,0.9765624403953552
319968,0.0068359375,-0.1397705078125,1.1015625,14.221190452575684,-0.1220703050494194,0.9155272841453552
320000,0.0123291015625,-0.1591796875,1.1016845703125,15.441893577575684,0.4272460639476776,0.6713866591453552
320048,0.011962890625,-0.1641845703125,1.1541748046875,17.02880859375,0.7934569716453552,0.3662109076976776
320128,0.015380859375,-0.177734375,1.079833984375,16.6015625,1.5869139432907104,0.2441406100988388
320145,0.018798828125,-0.179443359375,1.1031494140625,15.930174827575684,2.197265625,0.30517578125
320178,0.022705078125,-0.1865234375,1.110107421875,14.587401390075684,2.3193359375,0.1831054538488388
320195,0.021240234375,-0.185546875,1.0867919921875,13.061522483825684,2.807616949081421,0.1831054538488388
320211,0.022705078125,-0.1885986328125,1.0975341796875,12.573241233825684,3.051757574081421,0.1831054538488388
320228,0.0272216796875,-0.2020263671875,1.1368408203125,11.291502952575684,3.112792730331421,0.0610351525247097
320282,0.035888671875,-0.209716796875,1.144287109375,8.056640625,2.01416015625,-0.4882812201976776
320308,0.03369140625,-0.2108154296875,1.1143798828125,6.347655773162842,1.7089842557907104,-0.6713866591453552
320325,0.034423828125,-0.215576171875,1.121826171875,4.57763671875,1.9531248807907104,-0.7934569716453552
320358,0.0321044921875,-0.2236328125,1.170654296875,2.197265625,1.15966796875,-1.0986328125
320375,0.02587890625,-0.219482421875,1.163330078125,0.9155272841453552,0.6713866591453552,-1.220703125
320392,0.0250244140625,-0.2216796875,1.15966796875,-0.3662109076976776,0.30517578125,-1.2817381620407104
320408,0.0252685546875,-0.2232666015625,1.1275634765625,-1.7089842557907104,-0.1831054538488388,-1.4648436307907104
320433,0.024169921875,-0.22021484375,1.0753173828125,-3.295898199081421,-0.1220703050494194,-1.5869139432907104
320449,0.02392578125,-0.2071533203125,1.041748046875,-4.0283203125,0.0610351525247097,-1.7089842557907104
320466,0.0269775390625,-0.1953125,1.0184326171875,-5.310058116912842,0.30517578125,-1.7089842557907104
320483,0.0289306640625,-0.1903076171875,1.004638671875,-6.469726085662842,0.6103515625,-1.6479490995407104
320499,0.0328369140625,-0.181884765625,0.9815673828125,-6.958007335662842,0.7324218153953552,-1.5258787870407104
320533,0.0333251953125,-0.18408203125,0.977783203125,-8.36181640625,1.3427733182907104,-1.2817381620407104
320550,-0.03564453125,-0.1361083984375,0.8939208984375,-6.042479991912842,3.112792730331421,-0.8544921278953552
320571,-0.0823974609375,-0.0941162109375,0.833740234375,4.33349609375,10.620116233825684,1.0986328125
320587,0.321044921875,-0.4163818359375,2.4862060546875,2.868652105331421,11.352538108825684,1.7089842557907104
320604,0.2791748046875,-0.41162109375,2.5594482421875,-8.72802734375,-6.286620616912842,-0.9765624403953552
320621,-0.0953369140625,-0.071533203125,0.4371337890625,-9.765625,-10.070799827575684,-1.220703125
320654,-0.010986328125,-0.1038818359375,0.3917236328125,-0.9155272841453552,4.39453125,1.3427733182907104
320671,0.03955078125,-0.2320556640625,1.0787353515625,-3.112792730331421,3.234863042831421,1.3427733182907104
320687,0.021240234375,-0.2200927734375,1.3638916015625,-5.371093273162842,-5.371093273162842,-0.30517578125
320719,-0.0185546875,-0.121826171875,0.6839599609375,-3.417968511581421,2.01416015625,0.54931640625
320735,0.071533203125,-0.1800537109375,1.0958251953125,-3.417968511581421,1.8920897245407104,0.54931640625
320751,0.1005859375,-0.191650390625,1.2471923828125,-3.784179449081421,-2.563476324081421,-0.1831054538488388
320799,0.0166015625,-0.1805419921875,1.1793212890625,-1.3427733182907104,-0.9765624403953552,0.30517578125
320868,0.007568359375,-0.137451171875,0.962890625,1.7089842557907104,-0.8544921278953552,0.30517578125
320913,0.0308837890625,-0.1661376953125,1.0267333984375,3.784179449081421,-0.6713866591453552,0.1831054538488388
320930,0.0306396484375,-0.15185546875,0.9814453125,4.0283203125,-0.4882812201976776,0.1220703050494194
320947,0.028076171875,-0.1627197265625,1.0181884765625,4.5166015625,-0.30517578125,0.0610351525247097
320967,0.0123291015625,-0.1578369140625,0.998779296875,5.065917491912842,-0.54931640625,0.1220703050494194
320984,0.0169677734375,-0.1568603515625,0.9942626953125,5.676269054412842,-0.4272460639476776,0.1831054538488388
321000,0.0296630859375,-0.1676025390625,1.0223388671875,6.286620616912842,-0.4882812201976776,0.1220703050494194
321017,0.027099609375,-0.166259765625,1.0057373046875,6.591796398162842,-0.6103515625,0.0
321033,0.02294921875,-0.1639404296875,1.0028076171875,7.141112804412842,-0.6103515625,-0.0610351525247097
321049,0.0169677734375,-0.16650390625,1.0147705078125,7.690429210662842,-0.4882812201976776,0.0
321081,0.0218505859375,-0.1766357421875,0.9873046875,8.30078125,0.1831054538488388,0.1831054538488388
321097,0.0224609375,-0.1881103515625,1.001708984375,8.30078125,0.9765624403953552,0.4882812201976776
321113,0.020263671875,-0.2093505859375,1.02001953125,7.324218273162842,3.173827886581421,1.5869139432907104
321129,0.0186767578125,-0.2952880859375,1.10498046875,3.723144292831421,5.615233898162842,2.44140625
321149,0.0416259765625,-0.4141845703125,1.462646484375,-0.9155272841453552,5.859374523162842,1.8310545682907104
321165,0.0628662109375,-0.4552001953125,1.7264404296875,-1.4038084745407104,3.051757574081421,0.6713866591453552
321181,0.060546875,-0.3818359375,1.806640625,0.2441406100988388,-2.807616949081421,-0.9155272841453552
321202,0.0411376953125,-0.283447265625,1.6387939453125,0.30517578125,-3.662109136581421,-0.6713866591453552
321218,0.0335693359375,-0.2459716796875,1.5018310546875,0.8544921278953552,-3.662109136581421,-0.1220703050494194
321235,0.0294189453125,-0.2352294921875,1.449462890625,-0.30517578125,-2.929687261581421,0.1831054538488388
321252,0.026611328125,-0.1925048828125,1.3927001953125,-0.4882812201976776,-2.44140625,0.1831054538488388
321268,0.028076171875,-0.1864013671875,1.4246826171875,-0.0610351525247097,-1.220703125,0.54931640625
321285,0.0291748046875,-0.1859130859375,1.4698486328125,1.8920897245407104,-0.6713866591453552,0.6713866591453552
321318,0.0184326171875,-0.216796875,1.4385986328125,5.187987804412842,-1.7089842557907104,0.30517578125
321334,0.01416015625,-0.195068359375,1.362060546875,6.958007335662842,-1.6479490995407104,-0.1831054538488388
321350,0.013671875,-0.1663818359375,1.2496337890625,8.48388671875,-0.2441406100988388,-0.1220703050494194
321386,0.01513671875,-0.1534423828125,1.193359375,10.131834983825684,2.197265625,0.1220703050494194
321402,0.0264892578125,-0.16064453125,1.2452392578125,11.291502952575684,2.990722417831421,0.30517578125
321422,0.03759765625,-0.19921875,1.2779541015625,12.390135765075684,3.112792730331421,0.1220703050494194
321440,0.0504150390625,-0.2188720703125,1.279052734375,13.183592796325684,2.929687261581421,0.0610351525247097
321462,0.05322265625,-0.2337646484375,1.2633056640625,13.427733421325684,2.990722417831421,-0.0610351525247097
321482,0.052734375,-0.2447509765625,1.2484130859375,13.671874046325684,2.868652105331421,-0.30517578125
321502,0.0477294921875,-0.25146484375,1.1854248046875,13.549803733825684,2.25830078125,-0.6713866591453552
321518,0.044921875,-0.2381591796875,1.0848388671875,13.000487327575684,2.13623046875,-0.6713866591453552
321535,0.04345703125,-0.2423095703125,1.0025634765625,11.962889671325684,2.38037109375,-0.6713866591453552
321552,0.0440673828125,-0.244384765625,0.9493408203125,11.291502952575684,2.38037109375,-0.6713866591453552
321569,0.0416259765625,-0.2374267578125,0.904052734375,10.192870140075684,2.3193359375,-0.7324218153953552
321585,0.0419921875,-0.2362060546875,0.89306640625,9.6435546875,2.0751953125,-0.8544921278953552
321617,0.0413818359375,-0.2313232421875,0.829833984375,9.521484375,0.6103515625,-1.220703125
321638,0.035888671875,-0.22119140625,0.7459716796875,9.6435546875,-0.6103515625,-1.5258787870407104
321654,0.0260009765625,-0.1947021484375,0.62158203125,9.6435546875,-1.15966796875,-1.6479490995407104
321671,0.0162353515625,-0.1700439453125,0.48291015625,9.1552734375,-1.8920897245407104,-1.8310545682907104
321688,0.0133056640625,-0.1556396484375,0.4278564453125,7.995604991912842,-2.0751953125,-1.9531248807907104
321705,0.009765625,-0.1314697265625,0.328857421875,6.225585460662842,-2.197265625,-1.8310545682907104
321738,0.00537109375,-0.1214599609375,0.24609375,2.13623046875,-2.13623046875,-1.2817381620407104
321754,-0.00634765625,-0.1231689453125,0.203125,-0.9155272841453552,-2.25830078125,-1.03759765625
321770,-0.0179443359375,-0.10791015625,0.169921875,-2.685546636581421,-2.0751953125,-1.220703125
321806,-0.0264892578125,-0.075927734375,0.1595458984375,0.54931640625,0.0610351525247097,-1.5869139432907104
321822,-0.026123046875,-0.097900390625,0.2784423828125,1.2817381620407104,1.5869139432907104,-1.4038084745407104
321838,-0.02734375,-0.1141357421875,0.3602294921875,-1.220703125,2.3193359375,-1.0986328125
321854,-0.025390625,-0.145751953125,0.5670166015625,-3.479003667831421,3.845214605331421,-0.1831054538488388
321871,-0.0048828125,-0.15673828125,0.8787841796875,-1.4648436307907104,4.21142578125,0.0610351525247097
321892,0.0008544921875,-0.188232421875,1.0164794921875,-1.15966796875,3.967284917831421,0.54931640625
321908,0.0196533203125,-0.280029296875,1.2535400390625,-0.7934569716453552,2.746581792831421,0.9155272841453552
321925,0.03515625,-0.337890625,1.3582763671875,0.0610351525247097,1.8920897245407104,0.7324218153953552
321942,0.04345703125,-0.3565673828125,1.3941650390625,3.112792730331421,0.4882812201976776,0.1831054538488388
321975,0.04638671875,-0.35205078125,1.2076416015625,8.056640625,-3.295898199081421,-0.4272460639476776
321992,0.042236328125,-0.3453369140625,1.026123046875,9.82666015625,-3.295898199081421,-0.8544921278953552
322008,0.0438232421875,-0.3370361328125,0.9630126953125,10.070799827575684,-3.112792730331421,-0.9765624403953552
322040,0.0489501953125,-0.2857666015625,0.8365478515625,10.620116233825684,-2.990722417831421,-1.4038084745407104
322056,0.04833984375,-0.2646484375,0.835693359375,10.742186546325684,-2.868652105331421,-1.6479490995407104
322072,0.0457763671875,-0.229248046875,0.844970703125,11.474608421325684,-2.929687261581421,-1.7089842557907104
322088,0.0465087890625,-0.2166748046875,0.8648681640625,11.840819358825684,-2.868652105331421,-1.6479490995407104
322108,0.0478515625,-0.21044921875,0.9248046875,12.390135765075684,-2.990722417831421,-1.6479490995407104
322124,0.0472412109375,-0.2041015625,0.994873046875,13.610838890075684,-3.479003667831421,-1.5869139432907104
322140,0.0455322265625,-0.2127685546875,1.0516357421875,14.282225608825684,-3.723144292831421,-1.5869139432907104
322156,0.04443359375,-0.2147216796875,1.0748291015625,15.991209983825684,-4.08935546875,-1.7089842557907104
322172,0.040771484375,-0.2254638671875,1.1094970703125,17.88330078125,-4.7607421875,-1.8310545682907104
322188,0.0377197265625,-0.23388671875,1.1138916015625,18.73779296875,-5.126952648162842,-1.8310545682907104
322220,0.0223388671875,-0.2628173828125,1.0736083984375,20.568845748901367,-5.920409679412842,-1.7089842557907104
322236,0.0130615234375,-0.286376953125,1.03173828125,20.751951217651367,-6.103515148162842,-1.7700194120407104
322268,-0.000732421875,-0.3226318359375,0.9443359375,20.01953125,-5.798339366912842,-1.8310545682907104
322287,-0.0072021484375,-0.3433837890625,0.9091796875,18.798828125,-5.371093273162842,-2.01416015625
322308,-0.0101318359375,-0.3551025390625,0.883056640625,17.27294921875,-4.94384765625,-2.01416015625
322325,-0.0076904296875,-0.3624267578125,0.879150390625,16.357421875,-4.638671875,-2.0751953125
322346,-0.0064697265625,-0.362060546875,0.8865966796875,14.404295921325684,-4.0283203125,-2.13623046875
322362,-0.0068359375,-0.35107421875,0.90625,12.390135765075684,-3.479003667831421,-2.13623046875
322379,-0.0052490234375,-0.3482666015625,0.9208984375,10.498045921325684,-2.868652105331421,-2.01416015625
322396,-0.001708984375,-0.3406982421875,0.9559326171875,8.6669921875,-2.38037109375,-1.8310545682907104
322412,0.00146484375,-0.3336181640625,0.980224609375,7.812499523162842,-2.25830078125,-1.7700194120407104
322461,0.0050048828125,-0.322998046875,0.9803466796875,3.723144292831421,-1.5869139432907104,-1.15966796875
322482,0.0050048828125,-0.315673828125,0.968017578125,1.9531248807907104,-1.3427733182907104,-0.8544921278953552
322498,0.0057373046875,-0.311767578125,0.9505615234375,0.0,-0.9155272841453552,-0.4272460639476776
322515,0.008056640625,-0.3077392578125,0.939697265625,-1.03759765625,-0.6103515625,-0.30517578125
322531,0.009033203125,-0.3052978515625,0.9344482421875,-3.112792730331421,-0.30517578125,-0.1220703050494194
322552,0.0079345703125,-0.2845458984375,0.9078369140625,-4.8828125,-0.1220703050494194,0.30517578125
322568,0.00732421875,-0.2821044921875,0.9014892578125,-6.469726085662842,0.30517578125,0.7324218153953552
322589,0.009521484375,-0.2806396484375,0.9024658203125,-7.873534679412842,0.54931640625,0.9155272841453552
322609,0.0118408203125,-0.27001953125,0.8966064453125,-8.97216796875,0.6103515625,1.2817381620407104
322625,0.0089111328125,-0.2669677734375,0.9022216796875,-9.6435546875,0.7934569716453552,1.5869139432907104
322641,0.008056640625,-0.2696533203125,0.9107666015625,-9.8876953125,0.8544921278953552,1.5869139432907104
322662,0.0101318359375,-0.27001953125,0.9207763671875,-10.070799827575684,0.7934569716453552,1.7089842557907104
322702,0.009765625,-0.272705078125,0.94091796875,-9.58251953125,0.6103515625,1.8920897245407104
322718,0.010009765625,-0.2764892578125,0.9449462890625,-9.21630859375,0.2441406100988388,1.9531248807907104
322735,0.0074462890625,-0.27587890625,0.9227294921875,-9.1552734375,0.0610351525247097,1.8920897245407104
322752,0.0072021484375,-0.2763671875,0.911865234375,-9.21630859375,-0.1220703050494194,1.8920897245407104
322768,0.0052490234375,-0.2738037109375,0.8831787109375,-9.6435546875,-0.2441406100988388,1.8920897245407104
322785,0.001220703125,-0.2701416015625,0.8553466796875,-10.253905296325684,-0.1831054538488388,1.9531248807907104
322816,-0.0048828125,-0.2689208984375,0.823486328125,-11.840819358825684,0.0,2.13623046875
322838,-0.0076904296875,-0.263671875,0.8134765625,-12.390135765075684,0.1220703050494194,2.197265625
322854,-0.0074462890625,-0.2601318359375,0.821533203125,-13.427733421325684,0.3662109076976776,2.38037109375
322871,-0.0072021484375,-0.2611083984375,0.83349609375,-14.160155296325684,0.6103515625,2.563476324081421
322888,-0.009033203125,-0.26220703125,0.846435546875,-14.404295921325684,0.54931640625,2.624511480331421
322904,-0.0096435546875,-0.25634765625,0.831787109375,-14.709471702575684,0.3662109076976776,2.685546636581421
322936,-0.0067138671875,-0.2513427734375,0.8240966796875,-15.258788108825684,0.6713866591453552,2.868652105331421
322958,-0.0052490234375,-0.2501220703125,0.832275390625,-15.136717796325684,0.7324218153953552,2.929687261581421
322974,0.0006103515625,-0.246826171875,0.8497314453125,-14.770506858825684,0.7324218153953552,2.929687261581421
322991,0.0020751953125,-0.24755859375,0.857177734375,-14.160155296325684,0.6103515625,2.929687261581421
323008,0.00341796875,-0.24853515625,0.8675537109375,-13.793944358825684,0.54931640625,2.868652105331421
323024,0.0076904296875,-0.2518310546875,0.89208984375,-12.878417015075684,0.4882812201976776,2.807616949081421
323057,0.006591796875,-0.2491455078125,0.90283203125,-10.559081077575684,-0.1831054538488388,2.563476324081421
323079,0.003173828125,-0.2469482421875,0.8975830078125,-9.8876953125,-0.1831054538488388,2.50244140625
323095,0.003662109375,-0.2518310546875,0.90673828125,-8.60595703125,-0.1220703050494194,2.50244140625
323112,0.0030517578125,-0.2548828125,0.9161376953125,-7.141112804412842,-0.1831054538488388,2.25830078125
323129,0.001220703125,-0.252197265625,0.9296875,-6.347655773162842,-0.2441406100988388,2.0751953125
323145,0.0006103515625,-0.2509765625,0.9420166015625,-4.638671875,-0.2441406100988388,1.9531248807907104
323179,0.001220703125,-0.257080078125,0.957763671875,-0.9765624403953552,-0.3662109076976776,1.5869139432907104
323195,0.002685546875,-0.2620849609375,0.965087890625,0.7324218153953552,-0.3662109076976776,1.220703125
323211,0.0032958984375,-0.26171875,0.9683837890625,1.5869139432907104,-0.2441406100988388,1.0986328125
323227,0.00830078125,-0.259033203125,0.99658203125,3.662109136581421,-0.2441406100988388,0.7934569716453552
323247,0.0157470703125,-0.254638671875,1.0289306640625,5.981444835662842,-0.30517578125,0.4272460639476776
323269,0.0174560546875,-0.2515869140625,1.0413818359375,7.141112804412842,-0.4882812201976776,0.30517578125
323285,0.0225830078125,-0.2452392578125,1.0546875,9.6435546875,-0.9765624403953552,0.0
323302,0.0250244140625,-0.2442626953125,1.0401611328125,11.779784202575684,-1.4038084745407104,-0.30517578125
323319,0.0296630859375,-0.2398681640625,1.01513671875,12.756346702575684,-1.4648436307907104,-0.4272460639476776
323352,0.0286865234375,-0.248291015625,1.0098876953125,15.747069358825684,-1.3427733182907104,-0.6713866591453552
323369,0.0263671875,-0.2545166015625,1.01904296875,17.02880859375,-1.3427733182907104,-0.9155272841453552
323385,0.0206298828125,-0.259765625,1.02587890625,17.578125,-1.4038084745407104,-0.9765624403953552
323417,0.0224609375,-0.269775390625,1.013427734375,18.73779296875,-1.220703125,-1.2817381620407104
323438,0.026123046875,-0.27490234375,1.016357421875,18.85986328125,-1.15966796875,-1.2817381620407104
323454,0.02783203125,-0.28369140625,1.013671875,18.98193359375,-1.15966796875,-1.4038084745407104
323471,0.02490234375,-0.2882080078125,1.0262451171875,18.9208984375,-0.9765624403953552,-1.4038084745407104
323537,0.0206298828125,-0.3218994140625,1.0443115234375,16.78466796875,-0.6103515625,-1.3427733182907104
323674,-0.0020751953125,-0.3734130859375,1.042724609375,7.019042491912842,0.9155272841453552,-4.2724609375
323690,-0.0074462890625,-0.3851318359375,1.0272216796875,5.859374523162842,0.54931640625,-2.685546636581421
323711,-0.0008544921875,-0.3543701171875,1.0501708984375,5.126952648162842,0.7934569716453552,-3.112792730331421
323728,-0.01123046875,-0.38671875,0.99072265625,2.929687261581421,0.30517578125,-2.685546636581421
323748,0.000244140625,-0.34375,1.02001953125,2.01416015625,0.8544921278953552,-3.112792730331421
323769,0.004150390625,-0.3629150390625,1.044921875,0.3662109076976776,0.9155272841453552,-2.807616949081421
323785,0.0069580078125,-0.3455810546875,1.068603515625,0.0610351525247097,0.6103515625,-2.807616949081421
323802,-0.002685546875,-0.38671875,1.0767822265625,-0.54931640625,0.4272460639476776,-3.112792730331421
323834,-0.01953125,-0.3956298828125,1.0802001953125,-1.15966796875,0.1220703050494194,-3.234863042831421
323898,-0.028564453125,-0.365966796875,1.0562744140625,-1.9531248807907104,-0.3662109076976776,-3.356933355331421
323914,-0.02783203125,-0.34521484375,1.0579833984375,-2.13623046875,-0.1831054538488388,-3.173827886581421
323930,-0.0299072265625,-0.3592529296875,1.052978515625,-2.38037109375,-0.1220703050494194,-2.990722417831421
323966,-0.0352783203125,-0.343505859375,1.0181884765625,-2.746581792831421,0.1220703050494194,-2.685546636581421
323982,-0.031005859375,-0.3250732421875,0.9989013671875,-3.601073980331421,0.4272460639476776,-2.624511480331421
323998,-0.024658203125,-0.31689453125,0.9603271484375,-4.0283203125,0.6103515625,-2.563476324081421
324014,-0.0201416015625,-0.302490234375,0.9483642578125,-4.5166015625,0.8544921278953552,-2.38037109375
324031,-0.0174560546875,-0.302490234375,0.9320068359375,-4.8828125,1.5869139432907104,-2.0751953125
324052,-0.012939453125,-0.302734375,0.9591064453125,-5.065917491912842,1.8920897245407104,-1.9531248807907104
324068,-0.009033203125,-0.305908203125,0.982177734375,-5.065917491912842,2.0751953125,-1.8920897245407104
324135,0.01123046875,-0.2957763671875,0.9605712890625,-4.2724609375,2.25830078125,-1.5869139432907104
324151,0.0174560546875,-0.2977294921875,0.986572265625,-3.784179449081421,2.38037109375,-1.3427733182907104
324167,-0.0189208984375,-0.2515869140625,0.861328125,-3.784179449081421,2.746581792831421,-1.220703125
324200,0.03125,-0.2476806640625,0.84228515625,-0.6103515625,14.465331077575684,3.723144292831421
324216,0.0501708984375,-0.2852783203125,0.9176025390625,-1.5258787870407104,13.671874046325684,3.479003667831421
324232,0.051513671875,-0.2880859375,0.9468994140625,-2.13623046875,12.329100608825684,2.868652105331421
324248,0.2330322265625,-0.5626220703125,1.9132080078125,-2.13623046875,12.145995140075684,3.051757574081421
324273,0.2679443359375,-0.6939697265625,2.3560791015625,-8.85009765625,-2.50244140625,-0.9765624403953552
324289,-0.2021484375,-0.0511474609375,0.229248046875,-11.840819358825684,-13.732909202575684,-3.601073980331421
324306,-0.154296875,-0.0538330078125,0.154541015625,-12.145995140075684,-1.9531248807907104,0.6713866591453552
324323,-0.015625,-0.1396484375,0.341552734375,-10.803221702575684,2.50244140625,2.3193359375
324339,-0.0308837890625,-0.319091796875,1.0714111328125,-7.873534679412842,5.310058116912842,3.051757574081421
324373,-0.004150390625,-0.4129638671875,1.2587890625,-10.681151390075684,-5.554198741912842,-0.8544921278953552
324390,-0.0887451171875,-0.11572265625,0.3704833984375,-10.620116233825684,0.6713866591453552,0.3662109076976776
324411,-0.00927734375,-0.168212890625,0.5977783203125,-10.437010765075684,2.929687261581421,1.2817381620407104
324427,0.12890625,-0.3746337890625,1.4239501953125,-11.657713890075684,-0.1831054538488388,0.6103515625
324444,0.007080078125,-0.25732421875,0.9246826171875,-11.352538108825684,-1.9531248807907104,0.2441406100988388
324461,-0.02783203125,-0.2215576171875,0.8162841796875,-10.681151390075684,-0.0610351525247097,0.9155272841453552
324494,0.0306396484375,-0.288330078125,1.085205078125,-10.437010765075684,-1.03759765625,0.1831054538488388
324511,0.01904296875,-0.2169189453125,0.8843994140625,-9.27734375,0.2441406100988388,0.54931640625
324527,0.03076171875,-0.22314453125,0.9676513671875,-8.72802734375,0.4882812201976776,0.7324218153953552
324556,-0.0001220703125,-0.218017578125,0.9390869140625,-7.080077648162842,-0.6103515625,0.4882812201976776
324578,0.006591796875,-0.249755859375,0.9639892578125,-5.737304210662842,0.1831054538488388,0.6103515625
324594,0.0289306640625,-0.2384033203125,1.03466796875,-5.065917491912842,0.1220703050494194,0.3662109076976776
324611,0.01953125,-0.21728515625,0.974853515625,-3.540038824081421,-0.4272460639476776,0.30517578125
324628,0.016357421875,-0.2239990234375,0.9837646484375,-1.9531248807907104,-0.1220703050494194,0.3662109076976776
324644,0.021240234375,-0.2242431640625,1.015380859375,-1.15966796875,-0.1220703050494194,0.3662109076976776
324677,0.020263671875,-0.227783203125,0.9884033203125,1.6479490995407104,-0.2441406100988388,0.2441406100988388
324699,0.021484375,-0.2410888671875,1.0135498046875,3.051757574081421,-0.4272460639476776,0.1831054538488388
324715,0.017822265625,-0.2264404296875,0.982421875,4.150390625,-0.4272460639476776,0.1220703050494194
324732,0.021240234375,-0.24462890625,1.005615234375,4.638671875,-0.3662109076976776,0.1220703050494194
324749,0.0220947265625,-0.2392578125,1.0113525390625,5.615233898162842,-0.54931640625,0.0610351525247097
324765,0.0162353515625,-0.2418212890625,0.9805908203125,6.530761241912842,-0.4272460639476776,0.1220703050494194
324799,0.0196533203125,-0.24755859375,0.9945068359375,7.690429210662842,-0.54931640625,0.0610351525247097
324815,0.017333984375,-0.254150390625,0.985595703125,8.11767578125,-0.1831054538488388,0.1831054538488388
324831,0.0162353515625,-0.251220703125,0.979736328125,8.48388671875,0.8544921278953552,0.54931640625
324847,0.0142822265625,-0.26123046875,0.978271484375,8.4228515625,1.7700194120407104,0.9765624403953552
324917,0.02978515625,-0.5587158203125,1.839599609375,9.70458984375,0.1220703050494194,0.0610351525247097
324934,0.03076171875,-0.4779052734375,1.7286376953125,11.535643577575684,-2.807616949081421,-0.8544921278953552
324955,0.029296875,-0.3955078125,1.5042724609375,14.099120140075684,-4.638671875,-0.9155272841453552
324971,0.0211181640625,-0.3848876953125,1.30810546875,13.610838890075684,-3.417968511581421,-0.1220703050494194
324988,0.0208740234375,-0.3690185546875,1.2564697265625,12.695311546325684,-2.563476324081421,0.0610351525247097
325004,0.019287109375,-0.3668212890625,1.2591552734375,11.901854515075684,-0.6713866591453552,0.3662109076976776
325036,0.0279541015625,-0.385498046875,1.4329833984375,13.366698265075684,-1.220703125,0.54931640625
325052,0.0277099609375,-0.43017578125,1.44873046875,15.136717796325684,-2.25830078125,0.1220703050494194
325068,0.0220947265625,-0.4300537109375,1.42626953125,15.930174827575684,-2.807616949081421,-0.2441406100988388
325101,0.00244140625,-0.3397216796875,1.191650390625,17.15087890625,-2.3193359375,-0.4272460639476776
325122,0.0050048828125,-0.3299560546875,1.180419921875,17.578125,-0.7324218153953552,0.0
325138,0.0135498046875,-0.3258056640625,1.2030029296875,18.06640625,-0.0610351525247097,0.3662109076976776
325153,0.0191650390625,-0.3326416015625,1.1951904296875,18.49365234375,0.0610351525247097,0.6103515625
325170,0.023681640625,-0.352294921875,1.20703125,19.47021484375,0.6713866591453552,0.9155272841453552
325187,0.032470703125,-0.39404296875,1.228515625,20.385740280151367,0.4882812201976776,0.7934569716453552
325219,0.037109375,-0.39208984375,1.1607666015625,20.996091842651367,-0.0610351525247097,0.1831054538488388
325236,0.037841796875,-0.3702392578125,1.0958251953125,20.996091842651367,-0.1220703050494194,0.1831054538488388
325252,0.0386962890625,-0.3603515625,1.019287109375,20.446775436401367,-0.0610351525247097,0.4272460639476776
325268,0.0419921875,-0.3629150390625,0.9959716796875,19.95849609375,0.0,0.4272460639476776
325288,0.0443115234375,-0.3701171875,0.9521484375,18.98193359375,0.0,0.4882812201976776
325304,0.04345703125,-0.3739013671875,0.934814453125,18.1884765625,0.0,0.4272460639476776
325320,0.04296875,-0.3753662109375,0.931396484375,17.9443359375,-0.2441406100988388,0.3662109076976776
325337,0.0399169921875,-0.368408203125,0.9007568359375,17.7001953125,-0.9155272841453552,-0.0610351525247097
325358,0.04248046875,-0.3514404296875,0.85791015625,17.7001953125,-1.6479490995407104,-0.3662109076976776
325374,0.04248046875,-0.32763671875,0.7822265625,17.76123046875,-2.0751953125,-0.54931640625
325391,0.041259765625,-0.314697265625,0.7410888671875,17.7001953125,-2.868652105331421,-0.7934569716453552
