tMillis,ax,ay,az,gx,gy,gz
216404,0.02294921875,-0.0667724609375,1.02490234375,0.7934569716453552,-0.2441406100988388,0.4272460639476776
216421,0.02294921875,-0.066650390625,1.0235595703125,0.7934569716453552,-0.2441406100988388,0.4272460639476776
216439,0.023681640625,-0.0675048828125,1.0238037109375,0.8544921278953552,-0.1220703050494194,0.30517578125
216455,0.0242919921875,-0.0675048828125,1.023193359375,0.7934569716453552,-0.1220703050494194,0.3662109076976776
216469,0.0230712890625,-0.0667724609375,1.02392578125,0.7934569716453552,-0.1831054538488388,0.3662109076976776
216490,0.0228271484375,-0.0673828125,1.0242919921875,0.7324218153953552,-0.2441406100988388,0.3662109076976776
216507,0.022705078125,-0.0672607421875,1.0228271484375,0.7324218153953552,-0.2441406100988388,0.30517578125
216519,0.0228271484375,-0.0675048828125,1.0240478515625,0.7934569716453552,-0.2441406100988388,0.3662109076976776
216539,0.0230712890625,-0.0675048828125,1.02490234375,0.7324218153953552,-0.1831054538488388,0.30517578125
216557,0.023681640625,-0.06689453125,1.0238037109375,0.7934569716453552,-0.2441406100988388,0.30517578125
216573,0.0244140625,-0.067626953125,1.02392578125,0.7934569716453552,-0.1831054538488388,0.3662109076976776
216591,0.0233154296875,-0.0673828125,1.02294921875,0.7324218153953552,-0.1831054538488388,0.3662109076976776
216617,0.0242919921875,-0.0657958984375,1.025390625,0.7934569716453552,-0.1831054538488388,0.3662109076976776
216633,0.02392578125,-0.0667724609375,1.0240478515625,0.7934569716453552,-0.2441406100988388,0.4272460639476776
216649,0.0235595703125,-0.06640625,1.0234375,0.7324218153953552,-0.1831054538488388,0.4272460639476776
216667,0.0233154296875,-0.066650390625,1.0247802734375,0.7324218153953552,-0.1831054538488388,0.30517578125
216683,0.0225830078125,-0.0662841796875,1.0252685546875,0.7324218153953552,-0.2441406100988388,0.30517578125
216704,0.02294921875,-0.0662841796875,1.0244140625,0.7934569716453552,-0.2441406100988388,0.3662109076976776
216723,0.0233154296875,-0.0670166015625,1.0233154296875,0.7934569716453552,-0.30517578125,0.3662109076976776
216742,0.0235595703125,-0.0679931640625,1.023681640625,0.7324218153953552,-0.1831054538488388,0.30517578125
216761,0.0240478515625,-0.0670166015625,1.02294921875,0.7324218153953552,-0.1831054538488388,0.30517578125
216780,0.02490234375,-0.06689453125,1.022705078125,0.7934569716453552,-0.2441406100988388,0.30517578125
216797,0.0234375,-0.06689453125,1.023681640625,0.7324218153953552,-0.2441406100988388,0.30517578125
216815,0.0225830078125,-0.068115234375,1.0240478515625,0.7324218153953552,-0.2441406100988388,0.30517578125
216835,0.023681640625,-0.0673828125,1.0244140625,0.7324218153953552,-0.2441406100988388,0.30517578125
216855,0.0235595703125,-0.06787109375,1.0238037109375,0.7934569716453552,-0.1831054538488388,0.3662109076976776
216872,0.0244140625,-0.0670166015625,1.0234375,0.7934569716453552,-0.1831054538488388,0.30517578125
216890,0.024169921875,-0.0672607421875,1.024169921875,0.7934569716453552,-0.1831054538488388,0.30517578125
216904,0.022705078125,-0.06640625,1.0238037109375,0.7324218153953552,-0.1831054538488388,0.30517578125
216920,0.0230712890625,-0.06640625,1.0240478515625,0.7324218153953552,-0.2441406100988388,0.2441406100988388
216937,0.0235595703125,-0.0665283203125,1.025634765625,0.7324218153953552,-0.2441406100988388,0.3662109076976776
216954,0.0228271484375,-0.0667724609375,1.0238037109375,0.7934569716453552,-0.1831054538488388,0.3662109076976776
216973,0.0228271484375,-0.06787109375,1.02294921875,0.7934569716453552,-0.1831054538488388,0.3662109076976776
216996,0.023193359375,-0.0673828125,1.0247802734375,0.7324218153953552,-0.1831054538488388,0.3662109076976776
217009,0.0235595703125,-0.066650390625,1.0245361328125,0.7324218153953552,-0.2441406100988388,0.3662109076976776
217026,0.023681640625,-0.066650390625,1.0230712890625,0.7324218153953552,-0.2441406100988388,0.30517578125
217045,0.023193359375,-0.0673828125,1.0230712890625,0.7324218153953552,-0.2441406100988388,0.3662109076976776
217064,0.023681640625,-0.0662841796875,1.0250244140625,0.7934569716453552,-0.1831054538488388,0.30517578125
217082,0.0238037109375,-0.0672607421875,1.02392578125,0.7324218153953552,-0.1831054538488388,0.30517578125
217103,0.0234375,-0.0675048828125,1.02392578125,0.6713866591453552,-0.1831054538488388,0.3662109076976776
217119,0.023193359375,-0.0673828125,1.024658203125,0.7934569716453552,-0.30517578125,0.3662109076976776
217138,0.0233154296875,-0.0673828125,1.0228271484375,0.7934569716453552,-0.2441406100988388,0.30517578125
217156,0.0238037109375,-0.06689453125,1.0245361328125,0.7324218153953552,-0.2441406100988388,0.30517578125
217175,0.0240478515625,-0.0682373046875,1.023193359375,0.7324218153953552,-0.1831054538488388,0.3662109076976776
217193,0.0240478515625,-0.0684814453125,1.0242919921875,0.7324218153953552,-0.1831054538488388,0.3662109076976776
217213,0.0238037109375,-0.066650390625,1.0244140625,0.7324218153953552,-0.1831054538488388,0.3662109076976776
217235,0.02392578125,-0.0667724609375,1.0244140625,0.7934569716453552,-0.1831054538488388,0.30517578125
217251,0.0240478515625,-0.0673828125,1.0242919921875,0.7324218153953552,-0.2441406100988388,0.3662109076976776
217263,0.0230712890625,-0.06689453125,1.023193359375,0.7934569716453552,-0.2441406100988388,0.2441406100988388
217284,0.02294921875,-0.0673828125,1.0233154296875,0.7934569716453552,-0.2441406100988388,0.2441406100988388
217302,0.0233154296875,-0.06787109375,1.02587890625,0.7324218153953552,-0.1831054538488388,0.3662109076976776
217318,0.023193359375,-0.0675048828125,1.024658203125,0.7324218153953552,-0.2441406100988388,0.30517578125
217335,0.023681640625,-0.06689453125,1.023681640625,0.7324218153953552,-0.2441406100988388,0.2441406100988388
217349,0.0233154296875,-0.0675048828125,1.0230712890625,0.7324218153953552,-0.2441406100988388,0.30517578125
217366,0.0235595703125,-0.06884765625,1.0234375,0.7324218153953552,-0.2441406100988388,0.3662109076976776
217387,0.023681640625,-0.0667724609375,1.025146484375,0.7324218153953552,-0.1831054538488388,0.30517578125
217399,0.0240478515625,-0.0672607421875,1.0242919921875,0.7934569716453552,-0.1831054538488388,0.30517578125
217419,0.023681640625,-0.067626953125,1.02392578125,0.7934569716453552,-0.1831054538488388,0.30517578125
217436,0.0235595703125,-0.0672607421875,1.0233154296875,0.7324218153953552,-0.2441406100988388,0.30517578125
217453,0.02294921875,-0.0677490234375,1.0240478515625,0.7934569716453552,-0.30517578125,0.2441406100988388
217473,0.02392578125,-0.0679931640625,1.0252685546875,0.7934569716453552,-0.30517578125,0.30517578125
217493,0.02392578125,-0.06787109375,1.02490234375,0.7324218153953552,-0.2441406100988388,0.3662109076976776
217514,0.0238037109375,-0.0677490234375,1.0250244140625,0.7934569716453552,-0.2441406100988388,0.3662109076976776
217530,0.024169921875,-0.06689453125,1.0250244140625,0.7934569716453552,-0.1831054538488388,0.2441406100988388
217547,0.0234375,-0.067138671875,1.0218505859375,0.7934569716453552,-0.2441406100988388,0.30517578125
217568,0.02392578125,-0.06884765625,1.02294921875,0.7324218153953552,-0.2441406100988388,0.3662109076976776
217584,0.023681640625,-0.0679931640625,1.0228271484375,0.7934569716453552,-0.2441406100988388,0.2441406100988388
217617,0.0235595703125,-0.0677490234375,1.0260009765625,0.6713866591453552,-0.2441406100988388,0.3662109076976776
217639,0.023681640625,-0.068115234375,1.0223388671875,0.6713866591453552,-0.2441406100988388,0.3662109076976776
217654,0.02294921875,-0.0665283203125,1.0225830078125,0.7324218153953552,-0.2441406100988388,0.3662109076976776
217666,0.022705078125,-0.0667724609375,1.0230712890625,0.6713866591453552,-0.1831054538488388,0.3662109076976776
217685,0.023193359375,-0.0679931640625,1.0235595703125,0.6713866591453552,-0.1220703050494194,0.30517578125
217701,0.0230712890625,-0.067626953125,1.024169921875,0.7934569716453552,-0.1831054538488388,0.30517578125
217718,0.0238037109375,-0.06787109375,1.0228271484375,0.7324218153953552,-0.30517578125,0.3662109076976776
217735,0.0230712890625,-0.067138671875,1.024169921875,0.7324218153953552,-0.2441406100988388,0.3662109076976776
217754,0.0223388671875,-0.0670166015625,1.02392578125,0.7324218153953552,-0.1831054538488388,0.30517578125
217775,0.023193359375,-0.06787109375,1.022705078125,0.7934569716453552,-0.1831054538488388,0.30517578125
217791,0.022705078125,-0.0679931640625,1.0208740234375,0.7324218153953552,-0.1831054538488388,0.3662109076976776
217810,0.023193359375,-0.0672607421875,1.024658203125,0.7324218153953552,-0.1831054538488388,0.30517578125
217827,0.0238037109375,-0.06787109375,1.02978515625,0.7934569716453552,-0.1220703050494194,0.30517578125
217860,0.02392578125,-0.067626953125,1.0234375,0.7934569716453552,-0.2441406100988388,0.3662109076976776
217877,0.0240478515625,-0.0682373046875,1.0172119140625,0.7934569716453552,-0.1220703050494194,0.3662109076976776
217894,0.0238037109375,-0.068359375,1.0203857421875,0.7934569716453552,-0.1220703050494194,0.3662109076976776
217914,0.0230712890625,-0.0677490234375,1.027587890625,0.7934569716453552,-0.1220703050494194,0.3662109076976776
217981,0.0247802734375,-0.0673828125,1.02490234375,0.7934569716453552,-0.1831054538488388,0.30517578125
218014,0.0235595703125,-0.0682373046875,1.025390625,0.7324218153953552,-0.1831054538488388,0.30517578125
218055,0.023681640625,-0.0675048828125,1.0245361328125,0.8544921278953552,-0.30517578125,0.3662109076976776
218072,0.023193359375,-0.0672607421875,1.0263671875,0.8544921278953552,-0.2441406100988388,0.30517578125
218089,0.02490234375,-0.0673828125,1.023193359375,0.7934569716453552,-0.2441406100988388,0.30517578125
218141,0.0223388671875,-0.0672607421875,1.0184326171875,0.7934569716453552,-0.30517578125,0.2441406100988388
218173,0.0238037109375,-0.0682373046875,1.029296875,0.7324218153953552,-0.2441406100988388,0.3662109076976776
218185,0.0230712890625,-0.0672607421875,1.0224609375,0.7934569716453552,-0.2441406100988388,0.3662109076976776
218218,0.023681640625,-0.0679931640625,1.0234375,0.7934569716453552,-0.2441406100988388,0.30517578125
218251,0.0228271484375,-0.066650390625,1.0244140625,0.7324218153953552,-0.2441406100988388,0.30517578125
218352,0.0240478515625,-0.068359375,1.021484375,0.7934569716453552,-0.2441406100988388,0.30517578125
218369,0.0240478515625,-0.068359375,1.02685546875,0.7324218153953552,-0.2441406100988388,0.2441406100988388
218386,0.0238037109375,-0.0687255859375,1.029296875,0.7324218153953552,-0.1831054538488388,0.30517578125
218406,0.0233154296875,-0.0682373046875,1.0235595703125,0.7324218153953552,-0.2441406100988388,0.3662109076976776
218423,0.0234375,-0.0682373046875,1.0228271484375,0.7324218153953552,-0.2441406100988388,0.30517578125
218440,0.0238037109375,-0.0672607421875,1.0220947265625,0.7934569716453552,-0.1831054538488388,0.3662109076976776
218456,0.023193359375,-0.0672607421875,1.0155029296875,0.7324218153953552,-0.1220703050494194,0.3662109076976776
218504,0.0233154296875,-0.0689697265625,1.0323486328125,0.6713866591453552,-0.2441406100988388,0.30517578125
218535,0.02294921875,-0.0682373046875,1.0230712890625,0.7324218153953552,-0.1220703050494194,0.3662109076976776
218552,0.023193359375,-0.068603515625,1.0208740234375,0.7324218153953552,-0.1220703050494194,0.30517578125
218569,0.0244140625,-0.0684814453125,1.019287109375,0.6713866591453552,-0.2441406100988388,0.30517578125
218585,0.0244140625,-0.068359375,1.023681640625,0.6713866591453552,-0.2441406100988388,0.3662109076976776
218601,0.02294921875,-0.0682373046875,1.03076171875,0.7324218153953552,-0.2441406100988388,0.3662109076976776
218634,0.0245361328125,-0.0677490234375,1.0184326171875,0.6713866591453552,-0.1831054538488388,0.3662109076976776
218658,0.0250244140625,-0.068603515625,1.022216796875,0.7324218153953552,-0.2441406100988388,0.30517578125
218674,0.0238037109375,-0.0679931640625,1.0250244140625,0.7324218153953552,-0.30517578125,0.3662109076976776
218686,0.02392578125,-0.068115234375,1.0223388671875,0.6713866591453552,-0.2441406100988388,0.3662109076976776
218705,0.023681640625,-0.06787109375,1.0225830078125,0.6713866591453552,-0.1831054538488388,0.3662109076976776
218722,0.0242919921875,-0.0687255859375,1.028076171875,0.7324218153953552,-0.1831054538488388,0.3662109076976776
218787,0.023681640625,-0.068603515625,1.023193359375,0.6713866591453552,-0.2441406100988388,0.30517578125
218892,0.0224609375,-0.068359375,1.02490234375,0.7324218153953552,-0.1831054538488388,0.3662109076976776
218904,0.0235595703125,-0.068603515625,1.02587890625,0.7324218153953552,-0.1831054538488388,0.3662109076976776
218937,0.0233154296875,-0.0682373046875,1.023681640625,0.7324218153953552,-0.2441406100988388,0.30517578125
218954,0.0224609375,-0.0675048828125,1.02685546875,0.7324218153953552,-0.1831054538488388,0.3662109076976776
218971,0.023193359375,-0.06787109375,1.02392578125,0.7934569716453552,-0.1831054538488388,0.30517578125
218992,0.0238037109375,-0.0687255859375,1.0223388671875,0.7324218153953552,-0.1831054538488388,0.30517578125
219008,0.0238037109375,-0.0682373046875,1.0247802734375,0.7324218153953552,-0.2441406100988388,0.3662109076976776
219025,0.0230712890625,-0.06884765625,1.02490234375,0.7934569716453552,-0.30517578125,0.3662109076976776
219056,0.0230712890625,-0.068359375,1.0267333984375,0.7324218153953552,-0.1831054538488388,0.30517578125
219072,0.0235595703125,-0.068603515625,1.02734375,0.7324218153953552,-0.1831054538488388,0.3662109076976776
219088,0.0238037109375,-0.067626953125,1.02001953125,0.7934569716453552,-0.1831054538488388,0.3662109076976776
219124,0.0235595703125,-0.0675048828125,1.0260009765625,0.7934569716453552,-0.2441406100988388,0.30517578125
219174,0.02392578125,-0.067626953125,1.023681640625,0.7324218153953552,-0.1831054538488388,0.3662109076976776
219191,0.0234375,-0.068359375,1.023193359375,0.7324218153953552,-0.1831054538488388,0.3662109076976776
219208,0.0233154296875,-0.0687255859375,1.0240478515625,0.6713866591453552,-0.1831054538488388,0.30517578125
219241,0.0233154296875,-0.0679931640625,1.0242919921875,0.7324218153953552,-0.1831054538488388,0.3662109076976776
219305,0.0250244140625,-0.069091796875,1.022705078125,0.7324218153953552,-0.1831054538488388,0.30517578125
219388,0.0244140625,-0.066650390625,1.024169921875,1.5869139432907104,-0.2441406100988388,0.1831054538488388
219551,0.0228271484375,-0.0709228515625,1.022216796875,2.990722417831421,-0.30517578125,0.2441406100988388
219568,0.0225830078125,-0.0701904296875,1.022216796875,3.173827886581421,-0.30517578125,0.1831054538488388
219600,0.0230712890625,-0.07177734375,1.0235595703125,3.479003667831421,-0.3662109076976776,0.1831054538488388
219617,0.0230712890625,-0.07421875,1.0233154296875,3.601073980331421,-0.3662109076976776,0.1831054538488388
219634,0.023193359375,-0.072509765625,1.023681640625,3.967284917831421,-0.3662109076976776,0.2441406100988388
219650,0.0238037109375,-0.07421875,1.022705078125,4.150390625,-0.4272460639476776,0.1831054538488388
219706,0.022216796875,-0.073974609375,1.022705078125,5.187987804412842,-0.4272460639476776,0.2441406100988388
219792,0.0225830078125,-0.083984375,1.0224609375,6.164550304412842,-0.3662109076976776,0.1220703050494194
219826,0.0247802734375,-0.07666015625,1.023681640625,6.958007335662842,-0.3662109076976776,0.0610351525247097
219849,0.0223388671875,-0.0869140625,1.023681640625,8.11767578125,-0.4272460639476776,0.1831054538488388
219897,0.02001953125,-0.09716796875,1.0184326171875,8.72802734375,-0.0610351525247097,0.0
219913,0.02587890625,-0.091064453125,1.023193359375,9.521484375,0.4272460639476776,-0.1220703050494194
219962,0.0325927734375,-0.0347900390625,1.039306640625,14.526366233825684,2.38037109375,-0.3662109076976776
219983,0.0499267578125,-0.025390625,1.0496826171875,18.00537109375,2.746581792831421,-0.0610351525247097
220000,0.0628662109375,-0.03955078125,1.214599609375,21.301267623901367,1.0986328125,-0.0610351525247097
220017,0.0546875,-0.1002197265625,1.4249267578125,21.911619186401367,-0.2441406100988388,-0.1831054538488388
220067,0.0360107421875,-0.15869140625,1.4541015625,17.63916015625,-5.981444835662842,-1.5869139432907104
220151,-0.011474609375,-0.2049560546875,1.377197265625,6.286620616912842,-7.873534679412842,-1.9531248807907104
220168,-0.0185546875,-0.2269287109375,1.353759765625,2.807616949081421,-7.385253429412842,-1.8920897245407104
220201,-0.0206298828125,-0.2373046875,1.3408203125,-2.50244140625,-6.774901866912842,-2.25830078125
220234,-0.022705078125,-0.219482421875,1.3294677734375,-7.812499523162842,-5.310058116912842,-2.3193359375
220270,-0.0130615234375,-0.2275390625,1.315185546875,-11.230467796325684,-5.0048828125,-2.50244140625
220287,-0.006591796875,-0.2220458984375,1.3095703125,-12.573241233825684,-4.69970703125,-2.50244140625
220317,-0.009033203125,-0.2091064453125,1.3099365234375,-16.6015625,-4.45556640625,-2.868652105331421
220333,-0.01708984375,-0.1927490234375,1.248046875,-17.39501953125,-4.45556640625,-2.929687261581421
220350,-0.0186767578125,-0.181640625,1.21923828125,-18.6767578125,-3.723144292831421,-2.990722417831421
220388,-0.017333984375,-0.1619873046875,1.1885986328125,-20.751951217651367,-2.685546636581421,-2.929687261581421
220405,-0.0155029296875,-0.1573486328125,1.166015625,-21.789548873901367,-2.25830078125,-2.868652105331421
220422,-0.0174560546875,-0.1514892578125,1.1461181640625,-22.705076217651367,-1.9531248807907104,-2.807616949081421
220438,-0.0198974609375,-0.140380859375,1.0970458984375,-23.010251998901367,-1.7089842557907104,-2.868652105331421
220455,-0.0174560546875,-0.1324462890625,1.049072265625,-24.108884811401367,-0.7934569716453552,-2.685546636581421
220472,-0.0157470703125,-0.1307373046875,1.031982421875,-24.475095748901367,-0.54931640625,-2.685546636581421
220489,-0.014892578125,-0.1240234375,0.978759765625,-25.329587936401367,-0.1831054538488388,-2.685546636581421
220567,-0.01025390625,-0.0736083984375,0.8333740234375,-25.512693405151367,0.8544921278953552,-2.50244140625
220583,-0.007080078125,-0.0521240234375,0.7276611328125,-24.658201217651367,0.8544921278953552,-2.44140625
220600,-0.0062255859375,-0.0474853515625,0.6837158203125,-24.353025436401367,0.6103515625,-2.3193359375
220617,-0.0113525390625,-0.0394287109375,0.56396484375,-24.230955123901367,0.7934569716453552,-2.25830078125
220634,-0.0084228515625,-0.0277099609375,0.485595703125,-24.291990280151367,1.0986328125,-2.197265625
220650,-0.0054931640625,-0.0247802734375,0.465576171875,-24.597166061401367,1.6479490995407104,-2.0751953125
220667,-0.0020751953125,-0.015625,0.443359375,-24.597166061401367,1.7700194120407104,-2.01416015625
220686,-0.0015869140625,-0.0123291015625,0.436279296875,-24.230955123901367,1.9531248807907104,-1.8920897245407104
220703,-0.00048828125,-0.00341796875,0.4312744140625,-23.681638717651367,2.0751953125,-1.9531248807907104
220720,0.0008544921875,0.007568359375,0.4552001953125,-22.460935592651367,2.25830078125,-1.8920897245407104
220736,0.0009765625,0.0123291015625,0.4981689453125,-21.118162155151367,2.13623046875,-1.8920897245407104
220758,0.0018310546875,0.012939453125,0.520263671875,-20.629880905151367,2.197265625,-1.8920897245407104
220774,0.008544921875,0.040283203125,0.59375,-18.4326171875,1.8920897245407104,-1.8920897245407104
220791,0.0072021484375,0.0484619140625,0.6510009765625,-16.4794921875,1.3427733182907104,-1.5869139432907104
220810,-0.0013427734375,0.0430908203125,0.68603515625,-14.404295921325684,1.15966796875,-1.3427733182907104
220827,-0.0048828125,0.0283203125,0.7340087890625,-12.817381858825684,1.220703125,-1.4648436307907104
220860,-0.00634765625,0.0386962890625,0.8033447265625,-10.864256858825684,1.4038084745407104,-1.8920897245407104
220926,0.0111083984375,0.088623046875,1.02685546875,-4.45556640625,1.0986328125,-1.8920897245407104
220991,0.00634765625,0.0819091796875,1.0478515625,5.310058116912842,-0.1220703050494194,-2.25830078125
221003,0.0025634765625,0.08251953125,1.0841064453125,6.774901866912842,-0.2441406100988388,-2.25830078125
221036,-0.005615234375,0.0753173828125,1.0782470703125,10.803221702575684,-0.9155272841453552,-2.0751953125
221053,-0.0079345703125,0.0697021484375,1.0670166015625,13.427733421325684,-1.15966796875,-1.9531248807907104
221070,-0.00634765625,0.0616455078125,1.05224609375,15.563963890075684,-1.2817381620407104,-1.8310545682907104
221086,-0.0050048828125,0.04541015625,1.0380859375,16.4794921875,-1.220703125,-1.6479490995407104
221101,-0.004150390625,0.0340576171875,1.0426025390625,18.24951171875,-1.03759765625,-1.3427733182907104
221117,-0.006591796875,0.0179443359375,1.0360107421875,18.9208984375,-1.0986328125,-1.15966796875
221133,-0.0068359375,0.012939453125,1.031005859375,20.202634811401367,-1.0986328125,-1.03759765625
221150,-0.006103515625,0.010009765625,1.02197265625,21.423337936401367,-1.2817381620407104,-0.7934569716453552
221170,-0.00390625,0.00439453125,1.0018310546875,22.216794967651367,-1.3427733182907104,-0.30517578125
221192,-0.0025634765625,-0.0062255859375,0.9737548828125,22.705076217651367,-1.220703125,0.0610351525247097
221208,-0.0013427734375,-0.01513671875,0.968994140625,22.766111373901367,-1.03759765625,0.2441406100988388
221226,-0.0013427734375,-0.017822265625,0.97705078125,23.010251998901367,-0.6103515625,0.4272460639476776
221243,0.0023193359375,-0.0172119140625,1.00830078125,23.315427780151367,-0.6103515625,0.6103515625
221291,0.00390625,-0.0123291015625,1.01416015625,23.620603561401367,-0.6713866591453552,0.9765624403953552
221430,0.00244140625,-0.048583984375,1.0264892578125,21.179197311401367,-1.03759765625,1.5869139432907104
221475,-0.000244140625,-0.068359375,1.01953125,17.88330078125,-1.03759765625,1.7089842557907104
221487,-0.003173828125,-0.075927734375,1.018798828125,17.15087890625,-0.9765624403953552,1.7700194120407104
221516,-0.00830078125,-0.0863037109375,1.002197265625,14.648436546325684,-0.9155272841453552,1.9531248807907104
221533,-0.0089111328125,-0.090087890625,0.9951171875,12.756346702575684,-0.6103515625,2.01416015625
221549,-0.00732421875,-0.099365234375,1.0010986328125,10.742186546325684,-0.3662109076976776,2.13623046875
221587,-0.0087890625,-0.1104736328125,1.0179443359375,7.629394054412842,-0.1220703050494194,2.25830078125
221653,-0.0067138671875,-0.1107177734375,1.0257568359375,1.15966796875,0.0,2.746581792831421
221687,-0.0069580078125,-0.1136474609375,1.0242919921875,-1.2817381620407104,0.1831054538488388,2.807616949081421
221711,-0.0048828125,-0.111572265625,1.03125,-2.685546636581421,0.30517578125,2.868652105331421
221728,-0.00439453125,-0.1102294921875,1.0289306640625,-3.906249761581421,0.30517578125,2.990722417831421
221757,-0.0009765625,-0.099609375,1.0107421875,-5.554198741912842,0.4272460639476776,3.051757574081421
221774,-0.0006103515625,-0.0986328125,1.008056640625,-6.469726085662842,0.54931640625,3.173827886581421
221790,0.000244140625,-0.100830078125,1.005126953125,-7.385253429412842,0.7324218153953552,3.234863042831421
221827,0.0018310546875,-0.0987548828125,1.0201416015625,-8.30078125,0.6713866591453552,3.234863042831421
221859,0.0035400390625,-0.0914306640625,1.034423828125,-8.60595703125,0.54931640625,3.234863042831421
221911,0.005126953125,-0.0897216796875,1.043701171875,-8.544921875,0.1220703050494194,3.295898199081421
221956,0.001708984375,-0.0804443359375,1.04541015625,-7.507323741912842,-0.3662109076976776,3.112792730331421
221973,0.002197265625,-0.07763671875,1.04150390625,-7.263183116912842,-0.4272460639476776,3.112792730331421
221990,0.00146484375,-0.0748291015625,1.03271484375,-6.591796398162842,-0.6103515625,3.112792730331421
222040,-0.0029296875,-0.072998046875,1.007568359375,-4.82177734375,-0.6103515625,2.807616949081421
222070,-0.0015869140625,-0.0677490234375,1.0079345703125,-4.21142578125,-0.6713866591453552,2.746581792831421
222120,-0.0028076171875,-0.0618896484375,1.0076904296875,-2.3193359375,-0.6713866591453552,2.38037109375
222137,-0.0015869140625,-0.0615234375,1.0091552734375,-2.0751953125,-0.6103515625,2.3193359375
222169,-0.00390625,-0.060791015625,1.0162353515625,-1.03759765625,-0.6103515625,2.0751953125
222201,-0.0059814453125,-0.0640869140625,1.0228271484375,0.1220703050494194,-0.54931640625,1.8920897245407104
222249,-0.0062255859375,-0.0653076171875,1.0283203125,1.0986328125,-0.6103515625,1.5869139432907104
222266,-0.0069580078125,-0.0645751953125,1.024658203125,1.4648436307907104,-0.54931640625,1.4038084745407104
222298,-0.0074462890625,-0.0662841796875,1.0177001953125,1.7089842557907104,-0.4882812201976776,1.3427733182907104
222315,-0.0072021484375,-0.068603515625,1.009521484375,1.6479490995407104,-0.3662109076976776,1.2817381620407104
222347,-0.0057373046875,-0.0718994140625,1.0186767578125,1.3427733182907104,-0.30517578125,1.0986328125
222432,-0.00439453125,-0.0765380859375,1.0316162109375,-0.4272460639476776,-0.30517578125,0.7324218153953552
222448,-0.0048828125,-0.0731201171875,1.0357666015625,-0.9765624403953552,-0.30517578125,0.6103515625
222484,-0.005859375,-0.06982421875,1.027587890625,-1.7700194120407104,-0.4882812201976776,0.54931640625
222501,-0.0042724609375,-0.068603515625,1.031982421875,-2.50244140625,-0.4272460639476776,0.4272460639476776
222518,-0.0040283203125,-0.0677490234375,1.0311279296875,-2.746581792831421,-0.4882812201976776,0.4272460639476776
222535,-0.0068359375,-0.0654296875,1.0242919921875,-3.173827886581421,-0.4272460639476776,0.3662109076976776
222556,-0.00634765625,-0.0631103515625,1.0223388671875,-3.540038824081421,-0.3662109076976776,0.2441406100988388
222572,-0.0048828125,-0.0601806640625,1.0224609375,-3.723144292831421,-0.3662109076976776,0.1831054538488388
222589,-0.0062255859375,-0.059814453125,1.015625,-3.967284917831421,-0.4272460639476776,0.2441406100988388
222658,-0.0013427734375,-0.0595703125,0.9876708984375,-4.638671875,-0.0610351525247097,0.1831054538488388
222675,-0.000732421875,-0.0634765625,0.9456787109375,-5.187987804412842,0.1220703050494194,0.30517578125
222696,0.001220703125,-0.0633544921875,0.9276123046875,-6.042479991912842,0.6103515625,0.4272460639476776
222716,0.0020751953125,-0.0596923828125,0.9300537109375,-6.652831554412842,0.7324218153953552,0.4882812201976776
222728,0.0018310546875,-0.0487060546875,0.922607421875,-6.896972179412842,0.7324218153953552,0.6103515625
222745,0.0015869140625,-0.043212890625,0.9248046875,-7.080077648162842,0.8544921278953552,0.7324218153953552
222778,0.00146484375,-0.036865234375,0.9381103515625,-7.080077648162842,0.8544921278953552,0.9765624403953552
222795,0.0018310546875,-0.0377197265625,0.936279296875,-6.835937023162842,0.7934569716453552,1.15966796875
222833,0.0052490234375,-0.036865234375,0.94970703125,-6.286620616912842,0.9765624403953552,1.15966796875
222851,0.0029296875,-0.0390625,0.9412841796875,-5.798339366912842,0.7934569716453552,1.15966796875
222867,0.00146484375,-0.038330078125,0.9193115234375,-5.371093273162842,0.8544921278953552,1.15966796875
222900,0.003173828125,-0.0391845703125,0.912353515625,-4.94384765625,1.4648436307907104,1.0986328125
222917,0.0072021484375,-0.035400390625,0.93359375,-4.69970703125,1.220703125,0.9765624403953552
222934,0.0079345703125,-0.032470703125,0.921630859375,-4.33349609375,0.9765624403953552,1.03759765625
222950,0.00732421875,-0.032958984375,0.908447265625,-4.2724609375,0.9155272841453552,1.0986328125
223015,0.006591796875,-0.0341796875,0.8800048828125,-5.0048828125,1.8920897245407104,1.15966796875
223032,0.00439453125,-0.0384521484375,0.9361572265625,-5.0048828125,2.01416015625,1.0986328125
223080,-0.002685546875,-0.01904296875,0.962646484375,-3.112792730331421,0.30517578125,0.7324218153953552
223101,-0.00390625,-0.01318359375,0.860595703125,-2.746581792831421,0.54931640625,0.7934569716453552
223113,0.0047607421875,-0.0186767578125,0.836181640625,-2.868652105331421,1.5869139432907104,0.9765624403953552
223130,0.0096435546875,-0.02685546875,0.861083984375,-2.990722417831421,1.8920897245407104,1.03759765625
223148,0.014892578125,-0.0341796875,0.943603515625,-2.929687261581421,1.8920897245407104,0.9155272841453552
223165,0.018798828125,-0.0244140625,1.032958984375,-2.38037109375,0.6103515625,0.6103515625
223198,0.0145263671875,0.0037841796875,1.001708984375,-0.4272460639476776,-1.220703125,0.54931640625
223220,0.010498046875,0.0059814453125,0.9615478515625,0.8544921278953552,-0.8544921278953552,0.4272460639476776
223236,0.01123046875,0.002197265625,1.017822265625,1.5258787870407104,-0.54931640625,0.3662109076976776
223253,0.011474609375,-0.00048828125,1.062255859375,3.234863042831421,-0.6713866591453552,0.1831054538488388
223320,0.0079345703125,0.006591796875,1.0133056640625,10.498045921325684,-3.295898199081421,-0.7324218153953552
223337,0.0010986328125,-0.0067138671875,0.9537353515625,11.108397483825684,-2.685546636581421,-0.8544921278953552
223373,0.001708984375,-0.0152587890625,1.0390625,11.718749046325684,-1.6479490995407104,-1.03759765625
223390,0.0023193359375,-0.0130615234375,1.0718994140625,12.634276390075684,-2.0751953125,-1.15966796875
223406,0.002197265625,-0.015625,1.0955810546875,13.305663108825684,-2.38037109375,-1.220703125
223438,-0.0008544921875,-0.028564453125,1.0281982421875,15.075682640075684,-3.479003667831421,-1.5258787870407104
223487,-0.0091552734375,-0.0550537109375,0.9490966796875,13.793944358825684,-1.8310545682907104,-1.8920897245407104
223589,-0.0101318359375,-0.052734375,1.0098876953125,13.122557640075684,-2.0751953125,-2.3193359375
223694,-0.007080078125,-0.059326171875,1.008056640625,10.620116233825684,-1.3427733182907104,-2.685546636581421
223706,-0.0059814453125,-0.0594482421875,1.0206298828125,10.070799827575684,-0.6713866591453552,-2.563476324081421
223739,-0.0028076171875,-0.0635986328125,1.060791015625,9.82666015625,-0.9765624403953552,-2.44140625
223824,-0.0089111328125,-0.056640625,1.078369140625,7.446288585662842,0.1831054538488388,-1.7089842557907104
223874,-0.0125732421875,-0.056884765625,1.066650390625,7.995604991912842,-0.0610351525247097,-1.03759765625
223891,-0.01708984375,-0.0567626953125,1.0360107421875,7.873534679412842,0.8544921278953552,-0.7934569716453552
223908,-0.015380859375,-0.064697265625,1.0606689453125,7.690429210662842,1.2817381620407104,-0.6103515625
223926,-0.010986328125,-0.0762939453125,1.1171875,7.568358898162842,1.9531248807907104,-0.30517578125
223975,-0.008056640625,-0.069091796875,1.0914306640625,8.23974609375,1.3427733182907104,-0.1220703050494194
223993,-0.00830078125,-0.0703125,1.07568359375,8.056640625,2.13623046875,0.1831054538488388
224014,-0.0015869140625,-0.0841064453125,1.12744140625,7.629394054412842,2.746581792831421,0.54931640625
224030,0.0018310546875,-0.09375,1.1600341796875,7.568358898162842,2.563476324081421,0.4882812201976776
224049,0.004638671875,-0.0872802734375,1.141357421875,7.446288585662842,1.8920897245407104,0.4272460639476776
224066,0.0023193359375,-0.083740234375,1.1094970703125,7.202147960662842,1.7700194120407104,0.54931640625
224099,0.0010986328125,-0.0994873046875,1.12109375,6.042479991912842,2.563476324081421,1.220703125
224116,0.001953125,-0.1121826171875,1.1375732421875,5.737304210662842,2.25830078125,1.2817381620407104
224132,0.00146484375,-0.1138916015625,1.127685546875,5.0048828125,1.5869139432907104,1.4038084745407104
224148,0.0,-0.11181640625,1.0782470703125,4.150390625,1.6479490995407104,1.5258787870407104
224218,0.0023193359375,-0.139404296875,1.122802734375,1.15966796875,2.13623046875,2.197265625
224234,0.003173828125,-0.1407470703125,1.126708984375,0.54931640625,1.7089842557907104,2.13623046875
224251,0.004150390625,-0.1390380859375,1.1029052734375,0.0610351525247097,1.2817381620407104,2.25830078125
224268,0.004150390625,-0.1414794921875,1.07177734375,-0.54931640625,1.3427733182907104,2.3193359375
224288,0.002197265625,-0.153564453125,1.06591796875,-1.220703125,1.8310545682907104,2.44140625
224309,0.0037841796875,-0.1636962890625,1.0845947265625,-1.5869139432907104,1.8310545682907104,2.44140625
224325,0.005126953125,-0.1727294921875,1.0970458984375,-2.197265625,1.220703125,2.25830078125
224345,0.0048828125,-0.171630859375,1.078369140625,-2.746581792831421,1.0986328125,2.0751953125
224360,0.0076904296875,-0.16650390625,1.061279296875,-3.051757574081421,1.03759765625,2.0751953125
224377,-0.051025390625,-0.131591796875,0.9732666015625,-2.44140625,2.868652105331421,2.38037109375
224394,-0.0908203125,-0.0943603515625,0.9146728515625,1.4648436307907104,5.676269054412842,3.051757574081421
224413,-0.0072021484375,-0.156005859375,0.9129638671875,8.23974609375,9.46044921875,3.601073980331421
224429,0.037353515625,-0.175048828125,1.014892578125,5.493163585662842,10.192870140075684,3.723144292831421
224446,0.0284423828125,-0.152099609375,1.0308837890625,1.0986328125,8.9111328125,3.417968511581421
224467,0.026123046875,-0.152587890625,1.0274658203125,2.685546636581421,8.1787109375,3.173827886581421
224483,0.03369140625,-0.1719970703125,1.033935546875,2.746581792831421,8.056640625,2.990722417831421
224500,0.0531005859375,-0.2034912109375,1.3072509765625,3.356933355331421,6.286620616912842,2.50244140625
224517,0.112548828125,-0.32470703125,2.1944580078125,4.2724609375,1.15966796875,1.6479490995407104
224534,0.0594482421875,-0.2149658203125,1.3885498046875,3.601073980331421,-7.263183116912842,0.4272460639476776
224555,-0.004150390625,-0.079345703125,0.5706787109375,1.7700194120407104,-4.0283203125,0.7934569716453552
224571,0.0113525390625,-0.135986328125,0.8997802734375,2.197265625,-3.234863042831421,0.9155272841453552
224638,0.0782470703125,-0.1842041015625,1.3436279296875,-2.13623046875,-4.2724609375,-0.0610351525247097
224655,0.041748046875,-0.1246337890625,0.89111328125,-2.44140625,-3.723144292831421,-0.0610351525247097
224671,-0.0128173828125,-0.090576171875,0.837158203125,-3.112792730331421,1.15966796875,0.4882812201976776
224706,0.025390625,-0.131103515625,1.0469970703125,-2.868652105331421,-1.7089842557907104,0.4272460639476776
224743,0.03076171875,-0.1422119140625,1.1136474609375,-4.0283203125,-0.7934569716453552,0.4882812201976776
224891,0.0218505859375,-0.098388671875,1.0155029296875,-1.5869139432907104,-0.3662109076976776,0.4272460639476776
224903,0.02099609375,-0.10009765625,1.018310546875,-0.6103515625,-0.4882812201976776,0.3662109076976776
224936,0.0224609375,-0.1104736328125,1.0235595703125,0.3662109076976776,-0.6103515625,0.3662109076976776
224953,0.0208740234375,-0.112548828125,1.0179443359375,0.6713866591453552,-0.6103515625,0.30517578125
224969,0.021728515625,-0.1134033203125,1.0234375,0.7324218153953552,-0.3662109076976776,0.3662109076976776
225001,0.017578125,-0.113525390625,1.0133056640625,0.7934569716453552,-0.1831054538488388,0.3662109076976776
225034,0.0230712890625,-0.1142578125,1.019775390625,0.7934569716453552,-0.4272460639476776,0.30517578125
225141,0.021240234375,-0.1197509765625,1.0218505859375,-0.4882812201976776,-0.30517578125,0.30517578125
225190,0.0228271484375,-0.10888671875,1.0213623046875,-0.6103515625,-0.2441406100988388,0.3662109076976776
225207,0.022216796875,-0.1094970703125,1.021728515625,-0.54931640625,-0.2441406100988388,0.3662109076976776
225240,0.01953125,-0.1090087890625,1.021484375,-0.30517578125,-0.2441406100988388,0.4272460639476776
225257,0.020263671875,-0.1077880859375,1.02099609375,-0.1220703050494194,-0.2441406100988388,0.4272460639476776
225274,0.0206298828125,-0.1092529296875,1.0194091796875,0.0610351525247097,-0.1831054538488388,0.3662109076976776
225290,0.0206298828125,-0.1109619140625,1.0218505859375,0.1220703050494194,-0.30517578125,0.30517578125
225315,0.020263671875,-0.11083984375,1.01904296875,0.1220703050494194,-0.2441406100988388,0.3662109076976776
225331,0.01953125,-0.108642578125,1.0203857421875,0.1220703050494194,-0.1831054538488388,0.30517578125
225348,0.0198974609375,-0.108642578125,1.022216796875,0.2441406100988388,-0.2441406100988388,0.2441406100988388
225367,0.0213623046875,-0.1058349609375,1.02294921875,0.4272460639476776,-0.30517578125,0.2441406100988388
225383,0.0218505859375,-0.10791015625,1.0177001953125,0.6103515625,-0.30517578125,0.30517578125
225416,0.018798828125,-0.109375,1.0223388671875,0.7324218153953552,-0.2441406100988388,0.30517578125
225435,0.0196533203125,-0.10986328125,1.019287109375,0.7934569716453552,-0.1831054538488388,0.30517578125
225456,0.0220947265625,-0.1092529296875,1.020751953125,0.8544921278953552,-0.1831054538488388,0.30517578125
225472,0.021484375,-0.1085205078125,1.021484375,0.9155272841453552,-0.2441406100988388,0.3662109076976776
225538,0.0213623046875,-0.1065673828125,1.0205078125,1.5869139432907104,-0.2441406100988388,0.30517578125
225554,0.021240234375,-0.1090087890625,1.0206298828125,1.7700194120407104,-0.30517578125,0.30517578125
225571,0.0194091796875,-0.1099853515625,1.0203857421875,1.8310545682907104,-0.30517578125,0.3662109076976776
225587,0.0191650390625,-0.1112060546875,1.020263671875,1.9531248807907104,-0.2441406100988388,0.30517578125
225655,0.01953125,-0.108642578125,1.0185546875,2.624511480331421,-0.30517578125,0.1831054538488388
225674,0.0198974609375,-0.111083984375,1.0230712890625,2.868652105331421,-0.30517578125,0.30517578125
225691,0.020263671875,-0.115234375,1.0194091796875,2.990722417831421,-0.3662109076976776,0.30517578125
225712,0.0196533203125,-0.1136474609375,1.01953125,3.051757574081421,-0.3662109076976776,0.1831054538488388
225731,0.019287109375,-0.111572265625,1.01708984375,3.234863042831421,-0.30517578125,0.2441406100988388
225747,0.0213623046875,-0.11083984375,1.0201416015625,3.479003667831421,-0.30517578125,0.2441406100988388
225780,0.019775390625,-0.1131591796875,1.01806640625,3.967284917831421,-0.3662109076976776,0.2441406100988388
225847,0.019287109375,-0.1163330078125,1.0191650390625,5.187987804412842,-0.4272460639476776,0.1831054538488388
225912,0.018798828125,-0.131591796875,1.018798828125,5.126952648162842,-0.4272460639476776,0.1220703050494194
225928,0.0177001953125,-0.132080078125,1.0196533203125,4.82177734375,-0.4882812201976776,0.1220703050494194
225961,0.01708984375,-0.1348876953125,1.01904296875,4.638671875,-0.4272460639476776,0.1831054538488388
225978,0.0174560546875,-0.1357421875,1.0191650390625,4.33349609375,-0.3662109076976776,0.1831054538488388
225995,0.01953125,-0.1378173828125,1.0166015625,4.08935546875,-0.4882812201976776,0.2441406100988388
226011,0.0196533203125,-0.138671875,1.0177001953125,3.967284917831421,-0.4882812201976776,0.2441406100988388
226067,0.0184326171875,-0.1387939453125,1.0177001953125,3.356933355331421,-0.3662109076976776,0.2441406100988388
226151,0.0179443359375,-0.144775390625,1.015625,2.0751953125,-0.30517578125,0.2441406100988388
226163,0.0179443359375,-0.1455078125,1.0177001953125,1.8920897245407104,-0.30517578125,0.2441406100988388
226195,0.0174560546875,-0.1455078125,1.01708984375,1.15966796875,-0.30517578125,0.30517578125
226228,0.01904296875,-0.142822265625,1.016357421875,0.7934569716453552,-0.1831054538488388,0.30517578125
226330,0.0196533203125,-0.1427001953125,1.0162353515625,-0.30517578125,-0.0610351525247097,0.4272460639476776
226347,0.01708984375,-0.1444091796875,1.017578125,-0.4882812201976776,-0.0610351525247097,0.4272460639476776
226380,0.0169677734375,-0.1385498046875,1.0174560546875,-0.8544921278953552,-0.0610351525247097,0.30517578125
226397,0.017578125,-0.1353759765625,1.0162353515625,-0.8544921278953552,-0.1220703050494194,0.3662109076976776
226414,0.0179443359375,-0.1324462890625,1.0174560546875,-0.6103515625,-0.1220703050494194,0.4272460639476776
226430,0.0189208984375,-0.1341552734375,1.017822265625,-0.4882812201976776,-0.1220703050494194,0.4272460639476776
226450,0.0205078125,-0.1328125,1.0185546875,-0.30517578125,-0.1220703050494194,0.4272460639476776
226467,0.02001953125,-0.1328125,1.01904296875,-0.1831054538488388,-0.1220703050494194,0.3662109076976776
226484,0.0196533203125,-0.13134765625,1.0177001953125,0.1831054538488388,-0.1831054538488388,0.3662109076976776
226500,0.01904296875,-0.1278076171875,1.0181884765625,0.6713866591453552,-0.2441406100988388,0.3662109076976776
226517,0.01806640625,-0.1282958984375,1.01708984375,1.220703125,-0.2441406100988388,0.30517578125
226533,0.017333984375,-0.12939453125,1.0172119140625,1.4648436307907104,-0.30517578125,0.30517578125
226549,0.0181884765625,-0.1302490234375,1.016845703125,1.8920897245407104,-0.30517578125,0.2441406100988388
226569,0.0189208984375,-0.1322021484375,1.017333984375,2.13623046875,-0.2441406100988388,0.30517578125
226591,0.0172119140625,-0.135009765625,1.017578125,2.44140625,-0.2441406100988388,0.2441406100988388
226607,0.017822265625,-0.1324462890625,1.017578125,2.624511480331421,-0.1831054538488388,0.1831054538488388
226628,0.0203857421875,-0.1307373046875,1.0189208984375,3.051757574081421,-0.2441406100988388,0.2441406100988388
226645,0.0228271484375,-0.133544921875,1.017822265625,3.540038824081421,-0.4272460639476776,0.2441406100988388
226661,0.0181884765625,-0.13720703125,1.017333984375,3.845214605331421,-0.4272460639476776,0.1831054538488388
226678,0.0120849609375,-0.1424560546875,1.01416015625,4.0283203125,-0.2441406100988388,0.2441406100988388
226744,0.0159912109375,-0.1383056640625,1.016357421875,4.57763671875,-0.4882812201976776,0.1831054538488388
226764,0.0152587890625,-0.139404296875,1.013671875,5.0048828125,-0.4272460639476776,0.2441406100988388
226779,0.021484375,-0.145263671875,1.0159912109375,5.249022960662842,-0.4272460639476776,0.1831054538488388
226796,0.0181884765625,-0.1527099609375,1.015869140625,5.249022960662842,-0.4272460639476776,0.1831054538488388
226813,0.016357421875,-0.1549072265625,1.014404296875,5.065917491912842,-0.3662109076976776,0.1831054538488388
226829,0.0162353515625,-0.153564453125,1.013427734375,5.0048828125,-0.3662109076976776,0.1220703050494194
226863,0.0189208984375,-0.1524658203125,1.015625,4.82177734375,-0.4272460639476776,0.1220703050494194
226879,0.0152587890625,-0.1536865234375,1.0155029296875,4.82177734375,-0.4272460639476776,0.1831054538488388
226900,0.015869140625,-0.15625,1.0135498046875,4.82177734375,-0.3662109076976776,0.1831054538488388
226916,0.018798828125,-0.1624755859375,1.012939453125,4.7607421875,-0.3662109076976776,0.1831054538488388
226928,0.01904296875,-0.1629638671875,1.0130615234375,4.57763671875,-0.3662109076976776,0.1220703050494194
226944,0.0186767578125,-0.1617431640625,1.013671875,4.45556640625,-0.30517578125,0.1831054538488388
226976,0.016845703125,-0.1614990234375,1.0133056640625,4.39453125,-0.30517578125,0.1831054538488388
226993,0.017578125,-0.1630859375,1.013671875,4.33349609375,-0.3662109076976776,0.1831054538488388
227009,0.017822265625,-0.16357421875,1.0125732421875,4.33349609375,-0.4272460639476776,0.1831054538488388
227036,0.0189208984375,-0.163330078125,1.012451171875,4.33349609375,-0.4272460639476776,0.1831054538488388
227053,0.0174560546875,-0.1649169921875,1.01171875,4.33349609375,-0.4272460639476776,0.2441406100988388
227070,0.014404296875,-0.1668701171875,1.011474609375,4.33349609375,-0.3662109076976776,0.1831054538488388
227107,0.0166015625,-0.1717529296875,1.013671875,4.0283203125,-0.4882812201976776,0.1831054538488388
227123,0.01806640625,-0.1722412109375,1.01220703125,3.906249761581421,-0.4882812201976776,0.1831054538488388
227140,0.0167236328125,-0.1722412109375,1.011474609375,3.906249761581421,-0.4272460639476776,0.1220703050494194
227157,0.014892578125,-0.1739501953125,1.009765625,3.784179449081421,-0.4272460639476776,0.1831054538488388
227173,0.015869140625,-0.175537109375,1.0101318359375,3.601073980331421,-0.3662109076976776,0.1831054538488388
227189,0.0166015625,-0.1766357421875,1.0113525390625,3.356933355331421,-0.3662109076976776,0.2441406100988388
227222,0.0162353515625,-0.176513671875,1.0098876953125,3.051757574081421,-0.3662109076976776,0.2441406100988388
227266,0.016357421875,-0.181396484375,1.0096435546875,2.624511480331421,-0.30517578125,0.30517578125
227291,0.0164794921875,-0.1834716796875,1.009521484375,2.25830078125,-0.2441406100988388,0.30517578125
227308,0.0157470703125,-0.184326171875,1.010498046875,1.6479490995407104,-0.1831054538488388,0.3662109076976776
227341,0.0167236328125,-0.1820068359375,1.0087890625,0.8544921278953552,-0.1220703050494194,0.30517578125
227358,0.0145263671875,-0.178466796875,1.0089111328125,0.4882812201976776,-0.1220703050494194,0.30517578125
227375,0.014892578125,-0.177978515625,1.009033203125,0.3662109076976776,-0.1831054538488388,0.30517578125
227391,0.0162353515625,-0.1795654296875,1.0103759765625,0.2441406100988388,-0.2441406100988388,0.30517578125
227414,0.0177001953125,-0.182861328125,1.0118408203125,-0.0610351525247097,-0.1831054538488388,0.30517578125
227431,0.0152587890625,-0.18408203125,1.010498046875,-0.30517578125,-0.1831054538488388,0.3662109076976776
227448,0.0147705078125,-0.1846923828125,1.00830078125,-0.8544921278953552,-0.1220703050494194,0.4272460639476776
227467,0.015625,-0.1826171875,1.0079345703125,-1.5258787870407104,0.0,0.3662109076976776
227483,0.01708984375,-0.1810302734375,1.0103759765625,-2.01416015625,0.0610351525247097,0.3662109076976776
227500,0.01708984375,-0.174072265625,1.0128173828125,-2.197265625,-0.0610351525247097,0.3662109076976776
227516,0.0150146484375,-0.172119140625,1.010986328125,-2.197265625,-0.1220703050494194,0.3662109076976776
227533,0.0146484375,-0.166748046875,1.01220703125,-2.0751953125,-0.1220703050494194,0.4272460639476776
227620,0.0185546875,-0.1602783203125,1.0130615234375,-2.0751953125,0.0,0.3662109076976776
227671,0.017333984375,-0.1539306640625,1.0145263671875,-0.4882812201976776,0.0,0.4272460639476776
227771,0.017333984375,-0.1654052734375,1.0115966796875,2.563476324081421,-0.1220703050494194,0.30517578125
227783,0.017333984375,-0.1656494140625,1.0107421875,2.807616949081421,-0.1220703050494194,0.3662109076976776
227816,0.0155029296875,-0.166015625,1.0130615234375,3.051757574081421,-0.1831054538488388,0.30517578125
227833,0.0174560546875,-0.1644287109375,1.0126953125,3.356933355331421,-0.1831054538488388,0.2441406100988388
227850,0.0184326171875,-0.163330078125,1.0091552734375,3.784179449081421,-0.1220703050494194,0.30517578125
227871,0.018310546875,-0.1641845703125,1.0101318359375,3.967284917831421,-0.1831054538488388,0.30517578125
227890,0.0181884765625,-0.1708984375,1.0164794921875,4.21142578125,-0.1831054538488388,0.2441406100988388
227905,0.018310546875,-0.17333984375,1.0106201171875,4.33349609375,-0.1831054538488388,0.1831054538488388
227938,0.0169677734375,-0.16796875,1.0089111328125,4.7607421875,-0.0610351525247097,0.2441406100988388
228008,-0.009033203125,-0.187744140625,1.0545654296875,7.629394054412842,3.845214605331421,0.9155272841453552
228028,-0.0274658203125,-0.2178955078125,1.07568359375,7.507323741912842,5.554198741912842,1.4648436307907104
228044,-0.0198974609375,-0.2666015625,1.35205078125,6.469726085662842,3.479003667831421,0.7934569716453552
228060,-0.0059814453125,-0.287353515625,1.475830078125,5.859374523162842,1.0986328125,0.1831054538488388
228076,0.01953125,-0.2801513671875,1.4991455078125,4.94384765625,0.7934569716453552,0.4272460639476776
228093,0.031005859375,-0.2989501953125,1.461181640625,3.479003667831421,0.3662109076976776,0.30517578125
228110,0.0218505859375,-0.273681640625,1.3978271484375,1.220703125,-0.0610351525247097,0.1831054538488388
228134,0.0213623046875,-0.2401123046875,1.3555908203125,0.1831054538488388,0.0,0.1831054538488388
228150,0.0333251953125,-0.23681640625,1.3831787109375,-0.7324218153953552,-0.0610351525247097,0.3662109076976776
228167,0.039306640625,-0.23974609375,1.41162109375,-1.3427733182907104,-0.9155272841453552,0.4272460639476776
228186,0.0443115234375,-0.2652587890625,1.430419921875,-1.5258787870407104,-2.0751953125,0.2441406100988388
228203,0.050537109375,-0.2763671875,1.4437255859375,-2.197265625,-3.112792730331421,-0.30517578125
228236,0.052734375,-0.2442626953125,1.39404296875,-3.112792730331421,-4.45556640625,-0.7324218153953552
228254,0.048095703125,-0.233642578125,1.359130859375,-3.723144292831421,-4.39453125,-0.7934569716453552
228275,0.04931640625,-0.2269287109375,1.3726806640625,-3.845214605331421,-4.82177734375,-1.15966796875
228340,0.047607421875,-0.1595458984375,1.3023681640625,-2.50244140625,-6.042479991912842,-1.4648436307907104
228390,0.021484375,-0.143310546875,1.199951171875,-1.4648436307907104,-6.652831554412842,-1.5869139432907104
228435,0.021728515625,-0.1414794921875,1.067626953125,-2.929687261581421,-5.065917491912842,-1.15966796875
228452,0.011474609375,-0.152587890625,1.049072265625,-4.150390625,-5.126952648162842,-0.9155272841453552
228469,0.0035400390625,-0.1522216796875,1.01953125,-5.310058116912842,-5.249022960662842,-0.7934569716453552
228489,-0.0108642578125,-0.14990234375,0.9410400390625,-6.408690929412842,-4.69970703125,-0.6103515625
228506,-0.0166015625,-0.144287109375,0.89404296875,-7.751464366912842,-3.417968511581421,-0.1220703050494194
228523,-0.01611328125,-0.15869140625,0.9122314453125,-9.27734375,-3.234863042831421,-0.1831054538488388
228540,-0.017333984375,-0.1541748046875,0.8961181640625,-9.8876953125,-3.051757574081421,-0.1220703050494194
228561,-0.01806640625,-0.1614990234375,0.8902587890625,-10.986327171325684,-2.990722417831421,-0.0610351525247097
228577,-0.021240234375,-0.1517333984375,0.8365478515625,-11.840819358825684,-3.112792730331421,-0.1220703050494194
228593,-0.018310546875,-0.143310546875,0.7611083984375,-12.390135765075684,-2.990722417831421,-0.1220703050494194
228658,-0.0142822265625,-0.113037109375,0.6246337890625,-16.29638671875,-1.4038084745407104,0.0610351525247097
228749,-0.0089111328125,-0.0616455078125,0.4708251953125,-17.02880859375,-0.54931640625,-0.0610351525247097
228853,0.001953125,-0.046142578125,0.7984619140625,-10.620116233825684,-0.7324218153953552,-0.3662109076976776
228870,0.001220703125,-0.0474853515625,0.8135986328125,-9.8876953125,-0.6713866591453552,-0.30517578125
228887,0.002197265625,-0.0491943359375,0.88671875,-9.58251953125,-0.54931640625,-0.2441406100988388
228939,-0.010009765625,-0.03857421875,1.0123291015625,-7.690429210662842,-1.03759765625,-0.2441406100988388
229034,-0.0281982421875,-0.0931396484375,1.002197265625,-4.21142578125,-1.7089842557907104,-0.1831054538488388
229051,-0.02978515625,-0.0931396484375,0.984130859375,-4.0283203125,-1.5869139432907104,-0.2441406100988388
229068,-0.0263671875,-0.09765625,0.9932861328125,-3.967284917831421,-1.220703125,-0.1831054538488388
229120,-0.0367431640625,-0.09716796875,1.0440673828125,-1.8310545682907104,-1.6479490995407104,0.1220703050494194
229210,-0.01904296875,-0.1072998046875,0.9840087890625,2.685546636581421,-2.01416015625,0.4882812201976776
229254,-0.0150146484375,-0.0675048828125,0.9837646484375,4.638671875,-2.13623046875,0.30517578125
229350,-0.0225830078125,-0.04296875,1.0400390625,10.192870140075684,-1.5869139432907104,0.3662109076976776
229395,-0.01806640625,-0.049072265625,1.051025390625,12.207030296325684,-1.8310545682907104,0.1831054538488388
229428,-0.0262451171875,-0.0599365234375,1.0076904296875,12.939452171325684,-1.8310545682907104,0.1831054538488388
229469,-0.0267333984375,-0.08056640625,0.9986572265625,12.207030296325684,-1.0986328125,0.30517578125
229530,-0.035400390625,-0.10498046875,1.0032958984375,9.6435546875,-0.30517578125,0.9155272841453552
229570,-0.0296630859375,-0.1220703125,1.0267333984375,7.263183116912842,0.0,1.2817381620407104
229582,-0.0302734375,-0.123779296875,1.020263671875,6.652831554412842,-0.0610351525247097,1.2817381620407104
229615,-0.028076171875,-0.119873046875,1.0113525390625,4.7607421875,0.1220703050494194,1.5869139432907104
229632,-0.0274658203125,-0.118896484375,1.0115966796875,3.540038824081421,0.30517578125,1.7089842557907104
229649,-0.0255126953125,-0.1209716796875,1.0123291015625,2.38037109375,0.54931640625,1.8310545682907104
229680,-0.0240478515625,-0.120849609375,1.0181884765625,0.7934569716453552,0.6103515625,1.9531248807907104
229696,-0.02490234375,-0.1165771484375,1.0213623046875,0.3662109076976776,0.7324218153953552,1.9531248807907104
229713,-0.0242919921875,-0.1146240234375,1.0216064453125,-0.3662109076976776,0.8544921278953552,1.8920897245407104
229730,-0.02197265625,-0.1107177734375,1.01611328125,-1.0986328125,0.9155272841453552,1.9531248807907104
229749,-0.01953125,-0.109130859375,0.9986572265625,-1.4038084745407104,0.9765624403953552,2.01416015625
229798,-0.0169677734375,-0.1124267578125,1.0091552734375,-3.234863042831421,1.5258787870407104,2.0751953125
229870,-0.01318359375,-0.098876953125,1.0184326171875,-3.784179449081421,1.5869139432907104,2.13623046875
229920,-0.0155029296875,-0.0941162109375,1.0252685546875,-3.540038824081421,1.5258787870407104,2.0751953125
229992,-0.0147705078125,-0.094482421875,1.02197265625,-1.9531248807907104,1.4648436307907104,2.01416015625
230009,-0.0150146484375,-0.0921630859375,1.028076171875,-1.5869139432907104,1.4038084745407104,1.9531248807907104
230044,-0.0108642578125,-0.088623046875,1.0233154296875,-0.1831054538488388,0.9155272841453552,1.8920897245407104
230076,-0.0118408203125,-0.0947265625,1.014892578125,0.6713866591453552,0.7324218153953552,2.01416015625
230171,-0.010498046875,-0.1156005859375,0.989013671875,1.4038084745407104,0.0,1.7089842557907104
230187,-0.009765625,-0.1180419921875,0.9810791015625,0.9155272841453552,0.0,1.7700194120407104
230220,-0.0101318359375,-0.12255859375,0.95556640625,-0.0610351525247097,-0.2441406100988388,1.7700194120407104
230286,-0.0147705078125,-0.11083984375,0.9267578125,-2.563476324081421,0.0610351525247097,1.4648436307907104
230306,-0.0166015625,-0.1080322265625,0.933837890625,-2.746581792831421,0.2441406100988388,1.4038084745407104
230322,-0.01708984375,-0.105224609375,0.9503173828125,-2.624511480331421,0.1831054538488388,1.4038084745407104
230339,-0.0164794921875,-0.1033935546875,0.9542236328125,-2.50244140625,0.0,1.2817381620407104
230356,-0.016845703125,-0.1019287109375,0.9434814453125,-2.13623046875,-0.1220703050494194,1.15966796875
230372,-0.01904296875,-0.0980224609375,0.9332275390625,-1.6479490995407104,0.0,0.9765624403953552
230389,-0.021240234375,-0.0948486328125,0.9295654296875,-1.0986328125,0.0610351525247097,0.8544921278953552
230408,-0.02392578125,-0.0928955078125,0.927490234375,-0.3662109076976776,0.30517578125,0.7324218153953552
230430,-0.0247802734375,-0.0926513671875,0.927490234375,0.0,0.2441406100988388,0.7324218153953552
230446,-0.023681640625,-0.0938720703125,0.9132080078125,0.6103515625,0.1831054538488388,0.6103515625
230496,-0.0206298828125,-0.0947265625,0.906005859375,2.25830078125,0.4272460639476776,0.3662109076976776
230611,-0.0135498046875,-0.0924072265625,0.9041748046875,11.840819358825684,-0.3662109076976776,-0.1220703050494194
230654,-0.0069580078125,-0.105712890625,0.902587890625,14.770506858825684,0.3662109076976776,-0.4272460639476776
230671,-0.0062255859375,-0.122314453125,0.944580078125,15.014647483825684,0.4882812201976776,-0.4272460639476776
230688,-0.00732421875,-0.1263427734375,0.9647216796875,15.747069358825684,0.30517578125,-0.6713866591453552
230708,-0.0067138671875,-0.123779296875,0.9637451171875,16.2353515625,-0.54931640625,-0.7934569716453552
230725,-0.0087890625,-0.1219482421875,0.935546875,16.357421875,-0.6103515625,-0.7934569716453552
230741,-0.01025390625,-0.1329345703125,0.9232177734375,15.991209983825684,-0.3662109076976776,-0.6713866591453552
230758,-0.0159912109375,-0.149169921875,0.941650390625,15.747069358825684,-0.1220703050494194,-0.6713866591453552
230806,-0.0079345703125,-0.1661376953125,1.0325927734375,15.014647483825684,-0.6713866591453552,-1.0986328125
230830,-0.011474609375,-0.1414794921875,0.9468994140625,14.709471702575684,-1.2817381620407104,-1.0986328125
230846,-0.0147705078125,-0.1253662109375,0.8670654296875,14.038084983825684,-0.4882812201976776,-0.8544921278953552
230879,-0.0042724609375,-0.1610107421875,0.96484375,12.634276390075684,1.0986328125,-0.30517578125
230949,-0.00390625,-0.1318359375,0.9609375,11.474608421325684,-0.6713866591453552,-0.54931640625
230966,-0.0050048828125,-0.136962890625,0.9515380859375,11.169432640075684,-0.54931640625,-0.4272460639476776
230999,-0.0045166015625,-0.151123046875,0.979736328125,10.375975608825684,-0.30517578125,-0.30517578125
231048,0.0025634765625,-0.1688232421875,1.0882568359375,10.009765625,-1.4038084745407104,-0.4272460639476776
231071,-0.0035400390625,-0.151611328125,1.0435791015625,10.375975608825684,-2.0751953125,-0.4882812201976776
231088,-0.0078125,-0.1490478515625,1.0264892578125,10.803221702575684,-1.8310545682907104,-0.2441406100988388
231121,-0.0130615234375,-0.1796875,1.077880859375,11.108397483825684,-1.5869139432907104,0.0610351525247097
231138,-0.0152587890625,-0.1903076171875,1.0843505859375,10.925292015075684,-2.01416015625,0.1831054538488388
231170,-0.02783203125,-0.2098388671875,1.02978515625,10.375975608825684,-2.0751953125,0.1220703050494194
231310,-0.0301513671875,-0.249267578125,1.06494140625,8.30078125,1.03759765625,0.6713866591453552
231322,-0.0281982421875,-0.2412109375,1.0648193359375,7.873534679412842,0.7324218153953552,0.4882812201976776
231355,-0.0240478515625,-0.2384033203125,1.0269775390625,7.385253429412842,1.4038084745407104,0.6713866591453552
231389,-0.0224609375,-0.2694091796875,1.0679931640625,7.019042491912842,1.8920897245407104,0.54931640625
231570,-0.0064697265625,-0.3187255859375,1.1099853515625,6.347655773162842,1.3427733182907104,-0.6103515625
231673,-0.0010986328125,-0.29638671875,1.0892333984375,8.30078125,-0.8544921278953552,-0.6103515625
231702,-0.0062255859375,-0.2989501953125,1.0762939453125,7.507323741912842,-0.8544921278953552,-0.6713866591453552
231736,-0.0045166015625,-0.29150390625,1.0146484375,7.507323741912842,-1.4038084745407104,-0.7324218153953552
231748,-0.0057373046875,-0.2825927734375,1.0167236328125,5.737304210662842,-0.7934569716453552,-0.6103515625
231781,-0.0887451171875,-0.2138671875,0.773193359375,4.8828125,3.723144292831421,0.8544921278953552
231798,-0.0321044921875,-0.2261962890625,0.790771484375,5.432128429412842,11.413573265075684,3.173827886581421
231814,0.0322265625,-0.27490234375,0.92626953125,2.3193359375,12.268065452575684,3.723144292831421
231830,0.0308837890625,-0.2921142578125,0.9866943359375,1.220703125,11.352538108825684,3.479003667831421
231848,0.0245361328125,-0.3001708984375,1.0130615234375,1.7700194120407104,10.314940452575684,3.173827886581421
231869,0.034912109375,-0.3114013671875,1.0355224609375,0.30517578125,9.8876953125,2.868652105331421
231905,0.0362548828125,-0.3031005859375,0.97802734375,0.1831054538488388,8.30078125,2.44140625
231921,0.035400390625,-0.3275146484375,1.0584716796875,-0.1831054538488388,7.934569835662842,2.25830078125
231938,0.06982421875,-0.58349609375,1.8985595703125,0.0610351525247097,2.746581792831421,0.4272460639476776
231955,0.04931640625,-0.473388671875,1.703369140625,-5.554198741912842,-8.48388671875,-2.563476324081421
232021,-0.0325927734375,-0.1990966796875,0.7376708984375,-0.6713866591453552,5.065917491912842,2.197265625
232037,0.0462646484375,-0.4752197265625,1.6671142578125,0.0,3.112792730331421,1.4648436307907104
232054,0.016357421875,-0.2303466796875,0.79833984375,-3.662109136581421,-3.479003667831421,-0.3662109076976776
232071,-0.0191650390625,-0.1512451171875,0.5107421875,-2.38037109375,-0.4272460639476776,0.30517578125
232121,0.0330810546875,-0.2220458984375,0.8338623046875,-1.4648436307907104,-0.4882812201976776,0.4272460639476776
232171,0.0113525390625,-0.25634765625,0.934326171875,-0.9155272841453552,-0.30517578125,0.4272460639476776
232334,0.0067138671875,-0.2720947265625,0.9930419921875,3.112792730331421,-0.54931640625,0.1220703050494194
232351,0.0072021484375,-0.2720947265625,0.995361328125,3.234863042831421,-0.4882812201976776,0.0610351525247097
232368,0.0126953125,-0.265625,0.986083984375,3.479003667831421,-0.4882812201976776,0.1831054538488388
232419,0.0093994140625,-0.271728515625,0.9923095703125,5.126952648162842,-0.4882812201976776,0.1220703050494194
232451,0.010498046875,-0.2786865234375,0.98779296875,5.615233898162842,-0.54931640625,0.1831054538488388
232468,0.0087890625,-0.2796630859375,0.98583984375,5.676269054412842,-0.54931640625,0.1220703050494194
232501,0.0101318359375,-0.2828369140625,0.9903564453125,5.859374523162842,-0.6713866591453552,0.0610351525247097
232518,0.011962890625,-0.2845458984375,0.9830322265625,6.042479991912842,-0.7324218153953552,0.0610351525247097
232551,0.0059814453125,-0.29052734375,0.988037109375,5.981444835662842,-0.7324218153953552,0.0610351525247097
232630,0.0054931640625,-0.3045654296875,0.9822998046875,4.7607421875,-0.3662109076976776,0.1831054538488388
232647,0.010009765625,-0.3048095703125,0.9765625,4.39453125,-0.4272460639476776,0.1831054538488388
232680,0.0068359375,-0.3065185546875,0.9815673828125,3.234863042831421,-0.4272460639476776,0.1831054538488388
232712,0.00439453125,-0.3101806640625,0.9774169921875,2.13623046875,-0.3662109076976776,0.30517578125
232814,0.009521484375,-0.2978515625,0.983154296875,-0.6713866591453552,-0.1220703050494194,0.3662109076976776
232831,0.0079345703125,-0.2958984375,0.9818115234375,-0.6103515625,-0.1220703050494194,0.4272460639476776
232848,0.00732421875,-0.2958984375,0.978271484375,-0.54931640625,-0.1220703050494194,0.4272460639476776
232866,0.0089111328125,-0.3026123046875,0.9842529296875,-0.7324218153953552,-0.1831054538488388,0.4272460639476776
232882,0.0086669921875,-0.3050537109375,0.9837646484375,-0.9155272841453552,-0.1831054538488388,0.30517578125
232930,0.008544921875,-0.298095703125,0.979736328125,-1.8920897245407104,-0.2441406100988388,0.3662109076976776
232991,0.00830078125,-0.2884521484375,0.9832763671875,-1.8920897245407104,0.0,0.4272460639476776
233007,0.011474609375,-0.282470703125,0.9827880859375,-1.7089842557907104,0.0,0.4272460639476776
233040,0.0076904296875,-0.2840576171875,0.98486328125,-0.7934569716453552,-0.1831054538488388,0.3662109076976776
233055,0.0081787109375,-0.287353515625,0.9832763671875,-0.54931640625,-0.1831054538488388,0.3662109076976776
233077,0.0101318359375,-0.2879638671875,0.980712890625,-0.2441406100988388,-0.2441406100988388,0.30517578125
233093,0.010498046875,-0.284423828125,0.9857177734375,0.0610351525247097,-0.1220703050494194,0.3662109076976776
233109,0.0081787109375,-0.2828369140625,0.9853515625,0.2441406100988388,-0.1220703050494194,0.3662109076976776
233126,0.007568359375,-0.2811279296875,0.9847412109375,0.7934569716453552,-0.2441406100988388,0.30517578125
233159,0.0113525390625,-0.2862548828125,0.986083984375,1.6479490995407104,-0.4272460639476776,0.30517578125
233176,0.008544921875,-0.28564453125,0.981689453125,1.8310545682907104,-0.4272460639476776,0.1831054538488388
233192,0.0078125,-0.284912109375,0.9832763671875,2.13623046875,-0.3662109076976776,0.2441406100988388
233232,0.0113525390625,-0.2852783203125,0.984130859375,2.868652105331421,-0.3662109076976776,0.30517578125
233248,0.00927734375,-0.2899169921875,0.98583984375,3.051757574081421,-0.4272460639476776,0.30517578125
233265,0.007568359375,-0.2900390625,0.98291015625,3.234863042831421,-0.4272460639476776,0.2441406100988388
233282,0.008056640625,-0.291015625,0.9810791015625,3.417968511581421,-0.3662109076976776,0.1831054538488388
233348,0.007568359375,-0.298583984375,0.9808349609375,3.784179449081421,-0.3662109076976776,0.1831054538488388
233425,0.0074462890625,-0.3031005859375,0.978271484375,3.356933355331421,-0.3662109076976776,0.2441406100988388
233530,0.00732421875,-0.309326171875,0.977783203125,2.685546636581421,-0.3662109076976776,0.30517578125
233542,0.007080078125,-0.307861328125,0.97900390625,2.44140625,-0.30517578125,0.2441406100988388
233575,0.007568359375,-0.3076171875,0.97607421875,2.0751953125,-0.3662109076976776,0.1831054538488388
233592,0.0087890625,-0.3077392578125,0.9801025390625,1.8920897245407104,-0.3662109076976776,0.30517578125
233629,0.00634765625,-0.3070068359375,0.976806640625,1.6479490995407104,-0.2441406100988388,0.30517578125
233649,0.0069580078125,-0.3106689453125,0.9771728515625,1.4038084745407104,-0.30517578125,0.2441406100988388
233665,0.0067138671875,-0.310546875,0.9755859375,1.15966796875,-0.30517578125,0.30517578125
233695,0.007080078125,-0.30908203125,0.9776611328125,1.0986328125,-0.2441406100988388,0.30517578125
233711,0.0072021484375,-0.3076171875,0.978271484375,0.9155272841453552,-0.30517578125,0.30517578125
233760,0.007568359375,-0.30908203125,0.97705078125,0.4882812201976776,-0.1831054538488388,0.3662109076976776
233777,0.0078125,-0.310302734375,0.975830078125,0.4882812201976776,-0.1220703050494194,0.3662109076976776
233798,0.00634765625,-0.3060302734375,0.97802734375,0.3662109076976776,-0.1831054538488388,0.4272460639476776
233814,0.00634765625,-0.3077392578125,0.979248046875,0.3662109076976776,-0.2441406100988388,0.30517578125
233831,0.007568359375,-0.30908203125,0.9788818359375,0.30517578125,-0.2441406100988388,0.3662109076976776
233848,0.0072021484375,-0.308837890625,0.97802734375,0.30517578125,-0.1831054538488388,0.3662109076976776
233881,0.008056640625,-0.302734375,0.977294921875,0.4272460639476776,-0.2441406100988388,0.30517578125
233898,0.0076904296875,-0.3023681640625,0.9783935546875,0.54931640625,-0.30517578125,0.30517578125
233915,0.0069580078125,-0.3055419921875,0.9783935546875,0.54931640625,-0.2441406100988388,0.30517578125
233936,0.0074462890625,-0.3074951171875,0.9791259765625,0.6713866591453552,-0.30517578125,0.3662109076976776
233953,0.0072021484375,-0.3033447265625,0.979248046875,0.7324218153953552,-0.2441406100988388,0.30517578125
233970,0.0074462890625,-0.304931640625,0.9775390625,0.7934569716453552,-0.2441406100988388,0.3662109076976776
234005,0.0069580078125,-0.3048095703125,0.9779052734375,1.03759765625,-0.2441406100988388,0.30517578125
234022,0.0054931640625,-0.300537109375,0.9801025390625,1.4038084745407104,-0.30517578125,0.2441406100988388
234054,0.00732421875,-0.301513671875,0.978271484375,1.8920897245407104,-0.30517578125,0.30517578125
234072,0.007568359375,-0.30419921875,0.9786376953125,2.13623046875,-0.2441406100988388,0.30517578125
234093,0.0079345703125,-0.3050537109375,0.98046875,2.25830078125,-0.2441406100988388,0.3662109076976776
234157,0.005615234375,-0.3079833984375,0.9757080078125,2.746581792831421,-0.30517578125,0.2441406100988388
234191,0.007568359375,-0.3106689453125,0.9766845703125,2.685546636581421,-0.3662109076976776,0.2441406100988388
234208,0.0074462890625,-0.3106689453125,0.9761962890625,2.685546636581421,-0.3662109076976776,0.2441406100988388
234237,0.0068359375,-0.31298828125,0.97509765625,2.563476324081421,-0.3662109076976776,0.30517578125
234311,0.0074462890625,-0.312255859375,0.976806640625,2.685546636581421,-0.1220703050494194,0.30517578125
234328,0.007568359375,-0.3118896484375,0.9747314453125,2.807616949081421,-0.1220703050494194,0.30517578125
234361,0.0059814453125,-0.31640625,0.9722900390625,2.807616949081421,-0.0610351525247097,0.30517578125
234378,0.0057373046875,-0.31689453125,0.97607421875,2.807616949081421,-0.0610351525247097,0.2441406100988388
234394,0.0078125,-0.310546875,0.9757080078125,3.051757574081421,-0.1831054538488388,0.2441406100988388
234410,0.007080078125,-0.3079833984375,0.978515625,3.356933355331421,-0.30517578125,0.1831054538488388
234467,0.0068359375,-0.3221435546875,0.974853515625,4.5166015625,-0.30517578125,0.1831054538488388
234492,0.007080078125,-0.3155517578125,0.9737548828125,4.5166015625,-0.30517578125,0.1220703050494194
234509,0.0064697265625,-0.3145751953125,0.9730224609375,5.0048828125,-0.3662109076976776,0.1831054538488388
234542,0.00732421875,-0.320068359375,0.970947265625,5.920409679412842,-0.30517578125,0.1831054538488388
234559,0.0084228515625,-0.319580078125,0.97021484375,6.164550304412842,-0.2441406100988388,0.1831054538488388
234575,0.007568359375,-0.3233642578125,0.9678955078125,6.652831554412842,-0.0610351525247097,0.30517578125
234592,0.0062255859375,-0.3236083984375,0.971435546875,6.896972179412842,0.0610351525247097,0.4272460639476776
234616,0.0050048828125,-0.32861328125,0.9681396484375,7.019042491912842,0.1220703050494194,0.4272460639476776
234628,0.0028076171875,-0.31689453125,0.9637451171875,7.385253429412842,0.1220703050494194,0.4272460639476776
234644,0.00244140625,-0.327880859375,0.974365234375,7.812499523162842,0.30517578125,0.6103515625
234661,0.00341796875,-0.309814453125,0.9691162109375,8.97216796875,1.3427733182907104,0.54931640625
234678,0.005615234375,-0.310302734375,0.9989013671875,10.864256858825684,2.868652105331421,1.2817381620407104
234695,-0.010009765625,-0.2947998046875,1.000244140625,13.793944358825684,4.33349609375,2.25830078125
234715,0.0057373046875,-0.422119140625,1.182373046875,15.747069358825684,4.94384765625,2.868652105331421
234727,0.0152587890625,-0.492919921875,1.309814453125,18.798828125,1.7089842557907104,0.8544921278953552
234743,0.0125732421875,-0.5111083984375,1.46484375,20.324705123901367,0.6713866591453552,0.2441406100988388
234758,0.0157470703125,-0.512939453125,1.47998046875,23.742673873901367,-1.4038084745407104,-0.3662109076976776
234807,0.0238037109375,-0.4439697265625,1.240234375,27.282712936401367,-1.5869139432907104,-0.1220703050494194
234847,0.014404296875,-0.494873046875,1.2647705078125,27.832029342651367,-1.6479490995407104,-0.6103515625
234864,0.02490234375,-0.554443359375,1.3526611328125,28.503416061401367,-1.8310545682907104,-0.7934569716453552
234880,0.029052734375,-0.57666015625,1.3663330078125,29.357908248901367,-2.990722417831421,-1.2817381620407104
234893,0.029052734375,-0.604248046875,1.3587646484375,29.968259811401367,-4.150390625,-2.197265625
234913,0.0189208984375,-0.6007080078125,1.310546875,30.395505905151367,-4.638671875,-2.685546636581421
234929,0.0155029296875,-0.5936279296875,1.2847900390625,30.273435592651367,-4.8828125,-2.929687261581421
234965,0.010009765625,-0.574462890625,1.2001953125,28.198240280151367,-4.5166015625,-2.746581792831421
234976,0.0123291015625,-0.57861328125,1.214111328125,27.160642623901367,-4.33349609375,-2.868652105331421
234993,0.0072021484375,-0.57763671875,1.21630859375,27.038572311401367,-4.638671875,-3.051757574081421
235010,0.00341796875,-0.5804443359375,1.204833984375,25.817869186401367,-5.187987804412842,-3.356933355331421
235029,-0.0009765625,-0.563720703125,1.1497802734375,23.986814498901367,-5.554198741912842,-3.417968511581421
235045,-0.0020751953125,-0.5872802734375,1.1009521484375,22.033689498901367,-5.554198741912842,-3.417968511581421
235061,0.0003662109375,-0.5899658203125,1.097412109375,21.789548873901367,-5.554198741912842,-3.784179449081421
235080,-0.0006103515625,-0.6044921875,1.0875244140625,19.71435546875,-6.286620616912842,-4.2724609375
235142,-0.025146484375,-0.562255859375,0.9925537109375,12.512206077575684,-7.080077648162842,-4.7607421875
235158,-0.0303955078125,-0.5587158203125,0.9395751953125,9.82666015625,-6.958007335662842,-4.69970703125
235174,-0.0328369140625,-0.5531005859375,0.91259765625,7.385253429412842,-6.591796398162842,-4.57763671875
235191,-0.0311279296875,-0.5516357421875,0.9146728515625,6.225585460662842,-6.713866710662842,-4.638671875
235216,-0.03662109375,-0.503662109375,0.844970703125,3.356933355331421,-6.958007335662842,-4.638671875
235232,-0.043212890625,-0.4593505859375,0.75,0.6713866591453552,-6.652831554412842,-4.45556640625
235249,-0.0445556640625,-0.411865234375,0.67919921875,-2.13623046875,-5.676269054412842,-3.662109136581421
235268,-0.0457763671875,-0.3922119140625,0.638671875,-3.356933355331421,-5.432128429412842,-3.417968511581421
235318,-0.0391845703125,-0.3155517578125,0.5286865234375,-9.6435546875,-4.0283203125,-2.38037109375
235334,-0.031494140625,-0.290283203125,0.4920654296875,-11.596678733825684,-3.723144292831421,-2.0751953125
235351,-0.0296630859375,-0.2728271484375,0.460205078125,-12.207030296325684,-3.540038824081421,-1.9531248807907104
235372,-0.0233154296875,-0.255859375,0.4354248046875,-13.549803733825684,-2.990722417831421,-1.5869139432907104
235422,-0.0123291015625,-0.2550048828125,0.4666748046875,-15.502928733825684,-2.25830078125,-0.8544921278953552
235514,-0.02294921875,-0.3316650390625,0.6197509765625,-15.930174827575684,-1.8310545682907104,-0.3662109076976776
235530,-0.022216796875,-0.33203125,0.627685546875,-16.11328125,-1.4648436307907104,-0.3662109076976776
235547,-0.0164794921875,-0.3397216796875,0.684326171875,-16.17431640625,-1.220703125,-0.2441406100988388
235567,-0.0205078125,-0.34814453125,0.7266845703125,-15.747069358825684,-1.4038084745407104,-0.1220703050494194
235584,-0.0274658203125,-0.361328125,0.7626953125,-14.953612327575684,-1.3427733182907104,0.0
235601,-0.0302734375,-0.368408203125,0.780029296875,-13.671874046325684,-1.2817381620407104,0.1220703050494194
235618,-0.0306396484375,-0.3892822265625,0.830322265625,-12.207030296325684,-0.9155272841453552,0.0610351525247097
235639,-0.0281982421875,-0.40478515625,0.9044189453125,-11.291502952575684,-1.03759765625,0.0
235704,-0.0467529296875,-0.4317626953125,0.968505859375,-3.723144292831421,-1.5258787870407104,0.3662109076976776
235812,-0.0635986328125,-0.4278564453125,0.891845703125,4.0283203125,-0.9765624403953552,1.4038084745407104
235828,-0.0673828125,-0.42431640625,0.877197265625,4.39453125,-0.7934569716453552,1.5258787870407104
235861,-0.0716552734375,-0.4278564453125,0.893798828125,5.798339366912842,-0.1220703050494194,2.13623046875
235935,-0.0745849609375,-0.431640625,0.8836669921875,7.934569835662842,0.6103515625,3.112792730331421
235952,-0.0731201171875,-0.4342041015625,0.881103515625,8.23974609375,1.03759765625,3.417968511581421
235969,-0.06982421875,-0.4339599609375,0.88916015625,8.48388671875,1.15966796875,3.540038824081421
235989,-0.065673828125,-0.4371337890625,0.905517578125,9.09423828125,1.4648436307907104,3.723144292831421
236006,-0.0615234375,-0.4384765625,0.911865234375,10.131834983825684,1.4648436307907104,3.845214605331421
236023,-0.058837890625,-0.4390869140625,0.9097900390625,10.375975608825684,1.5258787870407104,3.784179449081421
236042,-0.0540771484375,-0.4375,0.9112548828125,10.742186546325684,1.7089842557907104,3.784179449081421
236058,-0.05029296875,-0.4403076171875,0.923583984375,11.047362327575684,1.7700194120407104,3.845214605331421
236092,-0.0445556640625,-0.44482421875,0.9239501953125,11.840819358825684,1.220703125,3.662109136581421
236110,-0.042724609375,-0.456298828125,0.920654296875,12.023924827575684,1.220703125,3.601073980331421
236126,-0.0435791015625,-0.4630126953125,0.921875,12.023924827575684,1.0986328125,3.417968511581421
236159,-0.041748046875,-0.47021484375,0.9281005859375,11.840819358825684,0.9155272841453552,3.112792730331421
236228,-0.042236328125,-0.4935302734375,0.94140625,11.413573265075684,0.0,2.38037109375
236244,-0.042724609375,-0.495361328125,0.9383544921875,11.047362327575684,-0.2441406100988388,2.0751953125
236261,-0.0435791015625,-0.49658203125,0.9300537109375,10.925292015075684,-0.4272460639476776,2.01416015625
236278,-0.0458984375,-0.501953125,0.92529296875,10.375975608825684,-0.54931640625,1.7700194120407104
236328,-0.0537109375,-0.4962158203125,0.920166015625,8.72802734375,-1.220703125,0.7934569716453552
236411,-0.06103515625,-0.4971923828125,0.86474609375,6.591796398162842,-1.03759765625,0.6713866591453552
236423,-0.0616455078125,-0.502685546875,0.8671875,5.798339366912842,-0.7934569716453552,0.54931640625
236456,-0.06298828125,-0.5009765625,0.8597412109375,4.45556640625,-0.4882812201976776,0.4882812201976776
236473,-0.0604248046875,-0.501708984375,0.8607177734375,3.845214605331421,-0.2441406100988388,0.6103515625
236489,-0.0587158203125,-0.5059814453125,0.8695068359375,2.929687261581421,0.1220703050494194,0.6103515625
236525,-0.0537109375,-0.5174560546875,0.8870849609375,1.8920897245407104,0.4272460639476776,0.4882812201976776
236558,-0.051025390625,-0.5135498046875,0.8851318359375,0.9155272841453552,0.4882812201976776,0.4272460639476776
236711,-0.0311279296875,-0.504638671875,0.8917236328125,-1.3427733182907104,0.6713866591453552,0.2441406100988388
236728,-0.0316162109375,-0.5037841796875,0.888427734375,-1.220703125,0.4882812201976776,0.2441406100988388
236757,-0.031982421875,-0.511962890625,0.90625,-0.9155272841453552,0.54931640625,0.1220703050494194
236774,-0.032470703125,-0.511474609375,0.9141845703125,-0.54931640625,0.30517578125,0.0
236790,-0.032470703125,-0.5032958984375,0.9090576171875,0.0,-0.0610351525247097,-0.1831054538488388
236825,-0.0328369140625,-0.4898681640625,0.887451171875,0.6713866591453552,-0.0610351525247097,0.0
236841,-0.0347900390625,-0.495849609375,0.8837890625,0.8544921278953552,-0.0610351525247097,0.0
236858,-0.0361328125,-0.496826171875,0.882080078125,1.0986328125,0.0610351525247097,0.1220703050494194
236874,-0.0379638671875,-0.4954833984375,0.8798828125,1.5258787870407104,0.0610351525247097,0.1831054538488388
236893,-0.03759765625,-0.4954833984375,0.881103515625,1.8920897245407104,0.0610351525247097,0.1831054538488388
236909,-0.0382080078125,-0.490966796875,0.8768310546875,2.0751953125,0.1220703050494194,0.1831054538488388
236939,-0.03662109375,-0.4952392578125,0.8739013671875,2.44140625,0.1220703050494194,0.3662109076976776
236960,-0.0364990234375,-0.4990234375,0.8748779296875,2.685546636581421,0.2441406100988388,0.4272460639476776
236977,-0.0377197265625,-0.5010986328125,0.87939453125,2.807616949081421,0.4882812201976776,0.4882812201976776
236993,-0.0384521484375,-0.502197265625,0.887939453125,2.868652105331421,0.4882812201976776,0.4882812201976776
237059,-0.033447265625,-0.4993896484375,0.8780517578125,3.051757574081421,0.0610351525247097,0.6713866591453552
237131,-0.032470703125,-0.5159912109375,0.912841796875,3.295898199081421,-0.54931640625,0.4882812201976776
237148,-0.033203125,-0.5118408203125,0.91015625,3.662109136581421,-0.9765624403953552,0.30517578125
237181,-0.03564453125,-0.510498046875,0.9017333984375,4.7607421875,-1.3427733182907104,0.3662109076976776
237198,-0.0369873046875,-0.511474609375,0.8983154296875,5.493163585662842,-1.5258787870407104,0.3662109076976776
237215,-0.039794921875,-0.5164794921875,0.88623046875,6.042479991912842,-1.5869139432907104,0.3662109076976776
237231,-0.042236328125,-0.519775390625,0.8734130859375,6.408690929412842,-1.6479490995407104,0.4272460639476776
237256,-0.0455322265625,-0.52392578125,0.8564453125,6.286620616912842,-1.5258787870407104,0.4882812201976776
237272,-0.04638671875,-0.5225830078125,0.843505859375,6.164550304412842,-1.4038084745407104,0.4882812201976776
237289,-0.04638671875,-0.52197265625,0.838134765625,5.798339366912842,-1.220703125,0.54931640625
237308,-0.04736328125,-0.52001953125,0.836669921875,5.187987804412842,-0.9155272841453552,0.6713866591453552
237325,-0.0498046875,-0.5179443359375,0.837890625,4.638671875,-0.4882812201976776,0.8544921278953552
237358,-0.0465087890625,-0.5135498046875,0.85107421875,3.540038824081421,-0.1831054538488388,0.9155272841453552
237374,-0.045654296875,-0.5087890625,0.849609375,2.868652105331421,0.1220703050494194,1.220703125
237390,-0.0418701171875,-0.5133056640625,0.8658447265625,2.44140625,0.3662109076976776,1.4038084745407104
237426,-0.0400390625,-0.5159912109375,0.8768310546875,1.5869139432907104,0.3662109076976776,1.4648436307907104
237442,-0.037109375,-0.5101318359375,0.8741455078125,1.3427733182907104,0.30517578125,1.5258787870407104
237458,-0.036865234375,-0.508056640625,0.8734130859375,1.03759765625,0.3662109076976776,1.5869139432907104
237475,-0.0362548828125,-0.501953125,0.865234375,0.6713866591453552,0.30517578125,1.6479490995407104
237491,-0.0369873046875,-0.5006103515625,0.8572998046875,0.0,0.3662109076976776,1.7700194120407104
237507,-0.0380859375,-0.502685546875,0.8553466796875,-0.7934569716453552,0.3662109076976776,2.01416015625
237539,-0.0369873046875,-0.5152587890625,0.8502197265625,-2.0751953125,0.6103515625,2.25830078125
237558,-0.03564453125,-0.5174560546875,0.8504638671875,-3.173827886581421,0.6713866591453552,2.25830078125
237574,-0.0335693359375,-0.517333984375,0.8509521484375,-3.662109136581421,0.6713866591453552,2.25830078125
237586,-0.0322265625,-0.5146484375,0.84912109375,-4.638671875,0.6103515625,2.197265625
237653,-0.036376953125,-0.4832763671875,0.7674560546875,-8.544921875,0.6713866591453552,2.25830078125
237675,-0.0313720703125,-0.484619140625,0.767822265625,-9.1552734375,0.8544921278953552,2.3193359375
237692,-0.0296630859375,-0.47900390625,0.7591552734375,-10.375975608825684,0.9765624403953552,2.25830078125
237709,-0.0281982421875,-0.4779052734375,0.762451171875,-11.352538108825684,1.220703125,2.25830078125
237761,-0.02685546875,-0.4879150390625,0.7843017578125,-12.878417015075684,1.0986328125,2.197265625
237791,-0.0220947265625,-0.486083984375,0.7783203125,-13.610838890075684,1.4038084745407104,2.25830078125
237808,-0.020751953125,-0.4908447265625,0.80078125,-13.793944358825684,1.4648436307907104,2.0751953125
237841,-0.0238037109375,-0.478759765625,0.789794921875,-13.916014671325684,0.7324218153953552,1.5869139432907104
237857,-0.0235595703125,-0.4429931640625,0.7373046875,-14.221190452575684,0.6103515625,1.4038084745407104
237873,-0.0189208984375,-0.4173583984375,0.702880859375,-14.770506858825684,0.9765624403953552,1.5869139432907104
237890,-0.01708984375,-0.4141845703125,0.7039794921875,-15.014647483825684,1.15966796875,1.7089842557907104
237913,-0.01806640625,-0.420166015625,0.7249755859375,-15.319823265075684,1.5258787870407104,1.8310545682907104
237930,-0.0208740234375,-0.4420166015625,0.765380859375,-15.136717796325684,1.5869139432907104,1.6479490995407104
237947,-0.0245361328125,-0.4403076171875,0.7938232421875,-14.892577171325684,1.4648436307907104,1.4648436307907104
237966,-0.0299072265625,-0.41943359375,0.7706298828125,-14.099120140075684,0.9765624403953552,1.15966796875
237982,-0.0272216796875,-0.40771484375,0.7587890625,-13.854979515075684,1.220703125,1.2817381620407104
238004,-0.023681640625,-0.410400390625,0.765869140625,-13.305663108825684,1.7700194120407104,1.4038084745407104
238023,-0.017822265625,-0.4283447265625,0.8076171875,-12.512206077575684,2.01416015625,1.4648436307907104
238089,-0.0174560546875,-0.3837890625,0.8482666015625,-8.4228515625,0.9765624403953552,0.7324218153953552
238151,-0.0191650390625,-0.411376953125,0.914306640625,-4.08935546875,0.4272460639476776,0.0610351525247097
238168,-0.01904296875,-0.3814697265625,0.88330078125,-3.479003667831421,0.30517578125,0.0
238200,-0.018310546875,-0.377197265625,0.8892822265625,-1.0986328125,1.4038084745407104,0.4882812201976776
238217,-0.0123291015625,-0.4058837890625,0.96142578125,0.7324218153953552,1.4648436307907104,0.3662109076976776
238233,-0.0074462890625,-0.426025390625,1.0035400390625,1.7089842557907104,1.0986328125,0.1220703050494194
238252,-0.0050048828125,-0.4180908203125,1.00048828125,3.479003667831421,-0.1220703050494194,-0.7324218153953552
238297,-0.0068359375,-0.344970703125,0.8782958984375,6.042479991912842,0.6103515625,-0.3662109076976776
238331,-0.0048828125,-0.395263671875,1.003173828125,8.9111328125,0.6713866591453552,-0.2441406100988388
238381,-0.001220703125,-0.405029296875,0.946533203125,11.840819358825684,-0.6103515625,-0.8544921278953552
238398,0.001220703125,-0.418701171875,0.96533203125,12.329100608825684,-0.7324218153953552,-0.9765624403953552
238430,-0.009765625,-0.4190673828125,0.959716796875,13.305663108825684,-1.2817381620407104,-1.220703125
238512,-0.02734375,-0.4429931640625,0.951171875,15.014647483825684,-0.4882812201976776,-0.9155272841453552
238529,-0.0260009765625,-0.4593505859375,0.9755859375,15.319823265075684,-0.3662109076976776,-0.9155272841453552
238564,-0.0218505859375,-0.4697265625,0.9754638671875,15.747069358825684,-0.30517578125,-0.8544921278953552
238597,-0.0264892578125,-0.4881591796875,0.98291015625,15.747069358825684,0.1831054538488388,-0.4882812201976776
238629,-0.0345458984375,-0.516357421875,0.9932861328125,15.258788108825684,0.30517578125,-0.4272460639476776
238641,-0.03515625,-0.5264892578125,0.986328125,14.648436546325684,0.30517578125,-0.30517578125
238674,-0.028564453125,-0.5455322265625,1.003173828125,13.793944358825684,0.6713866591453552,-0.1831054538488388
238693,-0.02783203125,-0.5521240234375,1.0048828125,13.366698265075684,0.54931640625,-0.1220703050494194
238710,-0.0291748046875,-0.55078125,0.9930419921875,13.000487327575684,0.4882812201976776,-0.1831054538488388
238742,-0.036865234375,-0.533203125,0.9295654296875,11.718749046325684,0.9155272841453552,-0.1220703050494194
238790,-0.0262451171875,-0.5792236328125,1.0003662109375,9.3994140625,2.13623046875,0.4882812201976776
238809,-0.034912109375,-0.5936279296875,0.998779296875,8.85009765625,2.44140625,0.3662109076976776
238831,-0.033203125,-0.6015625,1.0316162109375,8.4228515625,2.01416015625,-0.0610351525247097
238847,-0.0350341796875,-0.5577392578125,0.9686279296875,8.11767578125,1.7089842557907104,-0.2441406100988388
238868,-0.0343017578125,-0.539794921875,0.933837890625,7.141112804412842,2.13623046875,0.1220703050494194
238885,-0.0233154296875,-0.5609130859375,0.9637451171875,6.164550304412842,2.929687261581421,0.6713866591453552
238901,-0.013671875,-0.591552734375,1.0120849609375,5.493163585662842,2.50244140625,0.4272460639476776
238918,-0.0111083984375,-0.581298828125,1.0147705078125,5.371093273162842,2.13623046875,0.2441406100988388
238934,-0.0096435546875,-0.576171875,1.02294921875,5.310058116912842,2.0751953125,0.30517578125
238950,-0.013671875,-0.5772705078125,1.028076171875,5.249022960662842,1.2817381620407104,0.1831054538488388
238970,-0.0179443359375,-0.56201171875,0.97900390625,5.0048828125,1.15966796875,0.2441406100988388
238990,-0.0108642578125,-0.5638427734375,0.969970703125,4.39453125,1.220703125,0.30517578125
239012,-0.0040283203125,-0.5557861328125,0.9517822265625,3.906249761581421,1.03759765625,0.4272460639476776
239028,0.00048828125,-0.55224609375,0.947021484375,3.662109136581421,1.03759765625,0.4882812201976776
239078,-0.0072021484375,-0.550537109375,0.9237060546875,2.01416015625,0.30517578125,0.4272460639476776
239116,-0.015869140625,-0.4228515625,0.7362060546875,3.662109136581421,5.126952648162842,4.21142578125
239132,0.0047607421875,-0.4837646484375,0.793701171875,2.13623046875,6.896972179412842,5.554198741912842
239149,0.023193359375,-0.74072265625,1.172119140625,1.5869139432907104,6.652831554412842,5.493163585662842
239200,-0.00048828125,-0.32275390625,0.5477294921875,0.4272460639476776,-3.173827886581421,-1.3427733182907104
239291,0.025146484375,-0.8505859375,1.3018798828125,0.9765624403953552,-0.8544921278953552,0.4882812201976776
239308,0.01318359375,-0.340576171875,0.519775390625,-2.990722417831421,-3.112792730331421,-1.6479490995407104
239324,-0.0054931640625,-0.40966796875,0.6466064453125,-2.01416015625,0.6103515625,0.4882812201976776
239341,-0.004150390625,-0.6334228515625,1.047607421875,-3.173827886581421,-0.30517578125,-0.1220703050494194
239358,0.00048828125,-0.470703125,0.7958984375,-2.929687261581421,-0.4272460639476776,0.2441406100988388
239374,-0.009033203125,-0.502197265625,0.8438720703125,-2.807616949081421,-0.2441406100988388,0.4882812201976776
239390,-0.01171875,-0.54541015625,0.893798828125,-3.417968511581421,-0.7934569716453552,0.2441406100988388
239408,-0.003173828125,-0.53173828125,0.8544921875,-4.08935546875,-0.4272460639476776,0.30517578125
239430,-0.0042724609375,-0.548828125,0.8897705078125,-4.45556640625,-0.3662109076976776,0.2441406100988388
239446,-0.0069580078125,-0.5142822265625,0.8614501953125,-4.69970703125,-0.2441406100988388,0.2441406100988388
239467,-0.008544921875,-0.5185546875,0.89111328125,-4.33349609375,-0.2441406100988388,0.3662109076976776
239484,-0.004638671875,-0.5159912109375,0.881103515625,-4.39453125,-0.4272460639476776,0.30517578125
239500,-0.0069580078125,-0.52587890625,0.8707275390625,-4.45556640625,-0.3662109076976776,0.4272460639476776
239517,-0.0068359375,-0.5279541015625,0.8812255859375,-4.7607421875,-0.3662109076976776,0.30517578125
239533,-0.0062255859375,-0.523681640625,0.88037109375,-5.065917491912842,-0.30517578125,0.2441406100988388
239549,-0.0064697265625,-0.5068359375,0.8831787109375,-5.065917491912842,-0.1831054538488388,0.30517578125
239586,-0.0059814453125,-0.502197265625,0.8909912109375,-4.21142578125,-0.1831054538488388,0.3662109076976776
239602,-0.0037841796875,-0.5035400390625,0.8836669921875,-3.967284917831421,-0.30517578125,0.4272460639476776
239619,-0.0059814453125,-0.5118408203125,0.8897705078125,-3.601073980331421,-0.30517578125,0.3662109076976776
239636,-0.006591796875,-0.5115966796875,0.8885498046875,-3.295898199081421,-0.1831054538488388,0.3662109076976776
239652,-0.007568359375,-0.5025634765625,0.884765625,-3.234863042831421,-0.1220703050494194,0.3662109076976776
239669,-0.0074462890625,-0.5062255859375,0.8941650390625,-2.990722417831421,-0.1220703050494194,0.4272460639476776
239701,-0.0059814453125,-0.503173828125,0.8848876953125,-2.807616949081421,-0.0610351525247097,0.4882812201976776
239717,-0.0059814453125,-0.5025634765625,0.888671875,-2.807616949081421,-0.0610351525247097,0.4272460639476776
239734,-0.00439453125,-0.501708984375,0.8931884765625,-2.563476324081421,-0.1220703050494194,0.4272460639476776
239755,-0.0050048828125,-0.497802734375,0.8878173828125,-2.25830078125,-0.1831054538488388,0.3662109076976776
239771,-0.007080078125,-0.4991455078125,0.893310546875,-2.197265625,-0.1220703050494194,0.3662109076976776
239788,-0.00732421875,-0.502197265625,0.8992919921875,-1.9531248807907104,-0.1220703050494194,0.3662109076976776
239823,-0.0047607421875,-0.493896484375,0.8916015625,-1.220703125,-0.1831054538488388,0.30517578125
239840,-0.0045166015625,-0.4959716796875,0.8944091796875,-0.7934569716453552,-0.2441406100988388,0.2441406100988388
239857,-0.005126953125,-0.4952392578125,0.8951416015625,-0.54931640625,-0.1831054538488388,0.2441406100988388
239873,-0.006591796875,-0.4891357421875,0.896728515625,0.1220703050494194,-0.1220703050494194,0.30517578125
239890,-0.0042724609375,-0.48828125,0.895263671875,0.9765624403953552,-0.1831054538488388,0.2441406100988388
239911,-0.0050048828125,-0.488525390625,0.8931884765625,1.4038084745407104,-0.1831054538488388,0.30517578125
239928,-0.0047607421875,-0.490234375,0.8931884765625,2.13623046875,-0.30517578125,0.30517578125
239947,-0.00390625,-0.493896484375,0.8917236328125,2.624511480331421,-0.3662109076976776,0.1831054538488388
239964,-0.00732421875,-0.4984130859375,0.896240234375,2.990722417831421,-0.30517578125,0.2441406100988388
239980,-0.0057373046875,-0.494140625,0.890869140625,3.417968511581421,-0.30517578125,0.2441406100988388
239997,-0.004150390625,-0.493408203125,0.8914794921875,3.723144292831421,-0.3662109076976776,0.1831054538488388
240014,-0.0042724609375,-0.4974365234375,0.8958740234375,4.21142578125,-0.3662109076976776,0.1220703050494194
240034,-0.0076904296875,-0.4984130859375,0.888427734375,4.57763671875,-0.3662109076976776,0.1831054538488388
240050,-0.0072021484375,-0.50244140625,0.8885498046875,4.69970703125,-0.4272460639476776,0.2441406100988388
240069,-0.0062255859375,-0.501953125,0.886474609375,4.94384765625,-0.30517578125,0.1831054538488388
240086,-0.005126953125,-0.507568359375,0.89306640625,5.126952648162842,-0.3662109076976776,0.1831054538488388
240118,-0.00634765625,-0.5057373046875,0.884033203125,5.249022960662842,-0.54931640625,0.1220703050494194
240133,-0.0067138671875,-0.5059814453125,0.88427734375,5.371093273162842,-0.54931640625,0.0610351525247097
240153,-0.0068359375,-0.51123046875,0.886962890625,5.554198741912842,-0.54931640625,0.1220703050494194
240169,-0.0078125,-0.5147705078125,0.88671875,5.554198741912842,-0.4882812201976776,0.1220703050494194
240188,-0.0079345703125,-0.5111083984375,0.8814697265625,5.615233898162842,-0.4272460639476776,0.1831054538488388
240237,-0.00830078125,-0.524658203125,0.8790283203125,5.0048828125,-0.4272460639476776,0.1831054538488388
240253,-0.008544921875,-0.52099609375,0.8795166015625,4.57763671875,-0.3662109076976776,0.1831054538488388
240269,-0.007568359375,-0.5201416015625,0.8765869140625,4.39453125,-0.3662109076976776,0.1831054538488388
240305,-0.00732421875,-0.5250244140625,0.88037109375,4.21142578125,-0.4882812201976776,0.1831054538488388
240317,-0.0101318359375,-0.526611328125,0.874755859375,3.845214605331421,-0.4882812201976776,0.1831054538488388
240333,-0.01025390625,-0.5267333984375,0.87060546875,3.601073980331421,-0.4882812201976776,0.2441406100988388
240350,-0.0062255859375,-0.528564453125,0.8756103515625,3.112792730331421,-0.30517578125,0.30517578125
240369,-0.005615234375,-0.5308837890625,0.87646484375,2.44140625,-0.30517578125,0.30517578125
240390,-0.0076904296875,-0.5299072265625,0.873291015625,1.7700194120407104,-0.3662109076976776,0.2441406100988388
240406,-0.0093994140625,-0.5311279296875,0.872802734375,1.0986328125,-0.3662109076976776,0.2441406100988388
240426,-0.0074462890625,-0.5281982421875,0.8760986328125,0.6713866591453552,-0.1831054538488388,0.2441406100988388
240443,-0.008056640625,-0.52685546875,0.875,0.4882812201976776,-0.1831054538488388,0.30517578125
240476,-0.008544921875,-0.526611328125,0.8753662109375,-0.1831054538488388,-0.1831054538488388,0.30517578125
240495,-0.0076904296875,-0.525634765625,0.876220703125,-0.3662109076976776,-0.1220703050494194,0.30517578125
240511,-0.008544921875,-0.5223388671875,0.877197265625,-0.4882812201976776,-0.1831054538488388,0.3662109076976776
240547,-0.0078125,-0.52099609375,0.878173828125,-0.4882812201976776,-0.1831054538488388,0.30517578125
240569,-0.0079345703125,-0.5185546875,0.879150390625,-0.3662109076976776,-0.1831054538488388,0.30517578125
240585,-0.00732421875,-0.5169677734375,0.8802490234375,-0.2441406100988388,-0.1831054538488388,0.3662109076976776
240604,-0.0089111328125,-0.518310546875,0.8795166015625,0.0,-0.1220703050494194,0.3662109076976776
240621,-0.00927734375,-0.519775390625,0.881103515625,0.1831054538488388,-0.1220703050494194,0.4272460639476776
240637,-0.00732421875,-0.5172119140625,0.8780517578125,0.3662109076976776,-0.1831054538488388,0.3662109076976776
240652,-0.006103515625,-0.517333984375,0.8798828125,0.4882812201976776,-0.1831054538488388,0.30517578125
240709,-0.0079345703125,-0.52001953125,0.881103515625,0.6713866591453552,-0.30517578125,0.1831054538488388
240760,-0.0086669921875,-0.5213623046875,0.8790283203125,0.7324218153953552,-0.2441406100988388,0.2441406100988388
240792,-0.00830078125,-0.519775390625,0.8785400390625,0.7934569716453552,-0.2441406100988388,0.30517578125
240804,-0.0081787109375,-0.5189208984375,0.87939453125,0.8544921278953552,-0.1220703050494194,0.2441406100988388
240837,-0.006103515625,-0.51904296875,0.880126953125,1.03759765625,-0.2441406100988388,0.2441406100988388
240854,-0.0084228515625,-0.51904296875,0.8785400390625,1.220703125,-0.2441406100988388,0.2441406100988388
240870,-0.009521484375,-0.51904296875,0.8792724609375,1.3427733182907104,-0.30517578125,0.30517578125
240903,-0.0074462890625,-0.521728515625,0.8765869140625,1.4648436307907104,-0.2441406100988388,0.2441406100988388
240924,-0.0089111328125,-0.521484375,0.8768310546875,1.4038084745407104,-0.2441406100988388,0.1831054538488388
240940,-0.0084228515625,-0.521484375,0.8756103515625,1.4038084745407104,-0.2441406100988388,0.1831054538488388
240955,-0.0079345703125,-0.525390625,0.880126953125,1.4038084745407104,-0.2441406100988388,0.2441406100988388
240972,-0.007080078125,-0.5224609375,0.8765869140625,1.2817381620407104,-0.30517578125,0.30517578125
240989,-0.0076904296875,-0.522216796875,0.876708984375,1.15966796875,-0.30517578125,0.30517578125
241022,-0.0086669921875,-0.5224609375,0.8773193359375,0.9155272841453552,-0.2441406100988388,0.30517578125
241038,-0.0067138671875,-0.5235595703125,0.8770751953125,0.9765624403953552,-0.2441406100988388,0.30517578125
241054,-0.008056640625,-0.521728515625,0.8765869140625,0.8544921278953552,-0.2441406100988388,0.3662109076976776
241071,-0.009765625,-0.5218505859375,0.876953125,0.7934569716453552,-0.2441406100988388,0.3662109076976776
241091,-0.0081787109375,-0.5203857421875,0.878173828125,0.7934569716453552,-0.1831054538488388,0.3662109076976776
241103,-0.007080078125,-0.522705078125,0.876708984375,0.7934569716453552,-0.1831054538488388,0.30517578125
241119,-0.008056640625,-0.522705078125,0.876220703125,0.7324218153953552,-0.1831054538488388,0.30517578125
241136,-0.0107421875,-0.523681640625,0.878662109375,0.7934569716453552,-0.1831054538488388,0.3662109076976776
241153,-0.0087890625,-0.520751953125,0.8768310546875,0.7934569716453552,-0.1831054538488388,0.3662109076976776
241170,-0.0079345703125,-0.5216064453125,0.8758544921875,0.6713866591453552,-0.2441406100988388,0.4272460639476776
241190,-0.0084228515625,-0.5244140625,0.875244140625,0.6103515625,-0.2441406100988388,0.3662109076976776
241209,-0.009521484375,-0.5242919921875,0.876953125,0.4882812201976776,-0.2441406100988388,0.30517578125
241259,-0.0089111328125,-0.521240234375,0.87744140625,0.1831054538488388,-0.1831054538488388,0.4272460639476776
241276,-0.007568359375,-0.5218505859375,0.8775634765625,0.1220703050494194,-0.1831054538488388,0.4272460639476776
241292,-0.0072021484375,-0.5223388671875,0.879150390625,0.1831054538488388,-0.1831054538488388,0.3662109076976776
241328,-0.0087890625,-0.5189208984375,0.878173828125,0.4272460639476776,-0.1831054538488388,0.3662109076976776
241350,-0.0074462890625,-0.5186767578125,0.8790283203125,0.54931640625,-0.1831054538488388,0.4272460639476776
241366,-0.00732421875,-0.52001953125,0.88037109375,0.6103515625,-0.1831054538488388,0.3662109076976776
241387,-0.0084228515625,-0.520751953125,0.88037109375,0.6713866591453552,-0.2441406100988388,0.30517578125
241404,-0.0101318359375,-0.51953125,0.87939453125,0.8544921278953552,-0.1831054538488388,0.2441406100988388
241420,-0.0074462890625,-0.51708984375,0.8809814453125,1.0986328125,-0.2441406100988388,0.30517578125
241437,-0.0062255859375,-0.518798828125,0.8804931640625,1.3427733182907104,-0.1831054538488388,0.30517578125
241454,-0.0089111328125,-0.517333984375,0.8780517578125,1.4648436307907104,-0.1831054538488388,0.3662109076976776
241471,-0.0087890625,-0.5167236328125,0.8763427734375,1.7700194120407104,-0.1220703050494194,0.4272460639476776
241492,-0.0072021484375,-0.516357421875,0.8790283203125,2.197265625,-0.0610351525247097,0.4272460639476776
241511,-0.00634765625,-0.514892578125,0.8792724609375,2.685546636581421,-0.1831054538488388,0.4272460639476776
241526,-0.0086669921875,-0.517578125,0.880615234375,2.868652105331421,-0.1831054538488388,0.3662109076976776
241559,-0.00634765625,-0.5211181640625,0.8768310546875,3.540038824081421,-0.1831054538488388,0.3662109076976776
241575,-0.0069580078125,-0.5205078125,0.874267578125,3.967284917831421,-0.2441406100988388,0.30517578125
241592,-0.0081787109375,-0.52197265625,0.87548828125,4.08935546875,-0.1831054538488388,0.3662109076976776
241634,-0.0078125,-0.5257568359375,0.875244140625,4.5166015625,0.0610351525247097,0.54931640625
241650,-0.007080078125,-0.527587890625,0.8734130859375,4.638671875,0.0,0.4882812201976776
241667,-0.007080078125,-0.5274658203125,0.8681640625,4.69970703125,-0.1220703050494194,0.4882812201976776
241688,-0.0054931640625,-0.5218505859375,0.87255859375,4.638671875,-0.2441406100988388,0.54931640625
241704,-0.00927734375,-0.526123046875,0.8736572265625,4.7607421875,0.1220703050494194,0.54931640625
241721,-0.0078125,-0.522705078125,0.8714599609375,5.126952648162842,0.3662109076976776,0.8544921278953552
241738,-0.005859375,-0.52734375,0.871826171875,5.432128429412842,1.220703125,1.2817381620407104
241754,-0.004150390625,-0.5482177734375,0.892822265625,5.554198741912842,1.7089842557907104,1.8310545682907104
241775,-0.00439453125,-0.55126953125,0.86181640625,5.981444835662842,2.746581792831421,2.807616949081421
241791,-0.0009765625,-0.6024169921875,0.9200439453125,5.554198741912842,3.479003667831421,2.929687261581421
241810,-0.000732421875,-0.6982421875,1.0855712890625,4.82177734375,2.746581792831421,1.7089842557907104
241827,-0.0032958984375,-0.6873779296875,1.173095703125,3.906249761581421,0.7324218153953552,0.0610351525247097
241859,-0.01123046875,-0.6405029296875,1.100830078125,0.54931640625,0.6103515625,0.9155272841453552
241876,0.01220703125,-0.7193603515625,1.172607421875,-2.44140625,0.7934569716453552,0.6103515625
241893,0.014892578125,-0.7359619140625,1.1888427734375,-3.967284917831421,0.3662109076976776,0.0610351525247097
241914,0.01171875,-0.7076416015625,1.185546875,-6.164550304412842,0.2441406100988388,-0.4272460639476776
241930,0.014892578125,-0.6932373046875,1.2489013671875,-6.591796398162842,0.3662109076976776,-0.3662109076976776
241942,0.0198974609375,-0.711669921875,1.315673828125,-6.591796398162842,-0.4272460639476776,-0.6103515625
241975,0.0313720703125,-0.741943359375,1.3062744140625,-6.774901866912842,-2.25830078125,-1.4648436307907104
241992,0.027587890625,-0.7408447265625,1.275390625,-7.080077648162842,-3.601073980331421,-2.3193359375
242008,0.013916015625,-0.720458984375,1.2122802734375,-7.385253429412842,-3.906249761581421,-2.929687261581421
242040,-0.0013427734375,-0.6917724609375,1.186767578125,-7.019042491912842,-3.295898199081421,-3.173827886581421
242061,-0.004150390625,-0.7183837890625,1.266845703125,-6.896972179412842,-3.356933355331421,-3.112792730331421
242077,-0.0181884765625,-0.71923828125,1.266845703125,-6.042479991912842,-4.21142578125,-3.540038824081421
242089,-0.021728515625,-0.71630859375,1.2645263671875,-5.0048828125,-4.638671875,-3.845214605331421
242109,-0.02490234375,-0.7044677734375,1.253173828125,-4.5166015625,-4.94384765625,-3.967284917831421
242171,-0.0263671875,-0.6181640625,1.130615234375,-2.25830078125,-3.540038824081421,-3.112792730331421
242231,-0.0418701171875,-0.5059814453125,0.897216796875,-1.5258787870407104,-3.417968511581421,-3.051757574081421
242248,-0.044677734375,-0.4853515625,0.8419189453125,-1.8310545682907104,-1.9531248807907104,-2.197265625
242281,-0.0435791015625,-0.4649658203125,0.789794921875,-2.868652105331421,-1.03759765625,-1.5869139432907104
242298,-0.0447998046875,-0.4344482421875,0.716552734375,-3.540038824081421,-0.30517578125,-1.220703125
242315,-0.0443115234375,-0.4141845703125,0.6748046875,-3.906249761581421,0.0610351525247097,-0.9765624403953552
242331,-0.03955078125,-0.365478515625,0.59228515625,-4.5166015625,0.9155272841453552,-0.6713866591453552
242351,-0.03076171875,-0.326904296875,0.537841796875,-4.94384765625,1.8310545682907104,-0.1831054538488388
242368,-0.0252685546875,-0.2840576171875,0.478515625,-5.676269054412842,2.25830078125,0.1220703050494194
242389,-0.02197265625,-0.26904296875,0.456298828125,-5.981444835662842,2.50244140625,0.3662109076976776
242408,-0.0185546875,-0.251953125,0.4332275390625,-6.347655773162842,2.929687261581421,0.6713866591453552
242424,-0.015869140625,-0.24365234375,0.41748046875,-6.652831554412842,3.173827886581421,0.8544921278953552
242457,-0.011474609375,-0.2197265625,0.3966064453125,-6.469726085662842,2.929687261581421,0.7324218153953552
242474,-0.0107421875,-0.2220458984375,0.401123046875,-6.164550304412842,3.051757574081421,0.8544921278953552
242491,-0.009765625,-0.23291015625,0.4295654296875,-5.554198741912842,3.234863042831421,1.03759765625
242523,-0.00927734375,-0.280517578125,0.5267333984375,-4.150390625,2.868652105331421,1.03759765625
242540,-0.0113525390625,-0.3211669921875,0.57958984375,-2.990722417831421,2.38037109375,0.8544921278953552
242573,-0.0184326171875,-0.3470458984375,0.5830078125,-2.01416015625,1.9531248807907104,0.4882812201976776
242592,-0.0194091796875,-0.3665771484375,0.6103515625,-1.8920897245407104,2.0751953125,0.54931640625
242639,-0.015625,-0.4295654296875,0.712158203125,-0.8544921278953552,2.3193359375,0.7324218153953552
242661,-0.0133056640625,-0.443359375,0.746337890625,-0.2441406100988388,2.3193359375,0.6713866591453552
242676,-0.0074462890625,-0.4683837890625,0.80615234375,1.0986328125,2.13623046875,0.54931640625
242693,-0.0048828125,-0.477783203125,0.837646484375,1.8920897245407104,1.9531248807907104,0.4882812201976776
242709,-0.0020751953125,-0.502685546875,0.884765625,3.784179449081421,1.8920897245407104,0.7324218153953552
242759,-0.0029296875,-0.5164794921875,0.9185791015625,9.94873046875,0.8544921278953552,0.1220703050494194
242775,-0.0009765625,-0.5150146484375,0.921142578125,10.986327171325684,0.6713866591453552,0.0610351525247097
242791,0.00048828125,-0.5150146484375,0.92822265625,13.244627952575684,0.4272460639476776,0.1220703050494194
242829,-0.00537109375,-0.52783203125,0.93408203125,16.05224609375,-0.4272460639476776,-0.0610351525247097
242845,-0.0113525390625,-0.5306396484375,0.9285888671875,17.88330078125,-0.7324218153953552,0.0610351525247097
242862,-0.01513671875,-0.52734375,0.9130859375,18.6767578125,-0.9155272841453552,0.0610351525247097
242907,-0.0191650390625,-0.518798828125,0.853759765625,21.118162155151367,-1.3427733182907104,0.0610351525247097
242955,-0.0267333984375,-0.532958984375,0.814453125,20.874021530151367,-1.03759765625,0.3662109076976776
242989,-0.0220947265625,-0.5450439453125,0.8350830078125,20.263669967651367,-0.8544921278953552,0.4882812201976776
243013,-0.019287109375,-0.5595703125,0.8443603515625,19.71435546875,-0.9765624403953552,0.6103515625
243030,-0.020751953125,-0.5631103515625,0.83154296875,18.798828125,-1.0986328125,0.6713866591453552
243047,-0.0213623046875,-0.5640869140625,0.8233642578125,17.9443359375,-1.03759765625,0.7324218153953552
243101,-0.0133056640625,-0.5927734375,0.8643798828125,15.258788108825684,-1.0986328125,0.7934569716453552
243133,-0.0107421875,-0.5921630859375,0.851806640625,14.343260765075684,-1.220703125,0.9155272841453552
243150,-0.0098876953125,-0.5938720703125,0.8485107421875,13.061522483825684,-1.0986328125,1.03759765625
243182,-0.010986328125,-0.594970703125,0.8294677734375,11.108397483825684,-1.220703125,0.9155272841453552
243251,-0.0106201171875,-0.581787109375,0.8035888671875,6.164550304412842,-1.0986328125,1.220703125
243263,-0.010009765625,-0.5828857421875,0.8040771484375,4.57763671875,-0.9155272841453552,1.220703125
243296,-0.00830078125,-0.57666015625,0.7906494140625,2.685546636581421,-0.9765624403953552,1.3427733182907104
243313,-0.0087890625,-0.574951171875,0.78564453125,1.5258787870407104,-1.15966796875,1.3427733182907104
243330,-0.00927734375,-0.571533203125,0.7681884765625,1.03759765625,-1.15966796875,1.3427733182907104
243363,-0.0101318359375,-0.5609130859375,0.735595703125,-0.9155272841453552,-1.3427733182907104,1.4648436307907104
243383,-0.00927734375,-0.558349609375,0.7296142578125,-1.3427733182907104,-1.4038084745407104,1.5258787870407104
243400,-0.0079345703125,-0.544921875,0.7108154296875,-2.25830078125,-1.4038084745407104,1.6479490995407104
243417,-0.0067138671875,-0.5411376953125,0.70947265625,-2.25830078125,-1.3427733182907104,1.6479490995407104
243433,-0.0072021484375,-0.535888671875,0.7078857421875,-1.9531248807907104,-1.3427733182907104,1.6479490995407104
243450,-0.01025390625,-0.545166015625,0.72509765625,-0.9155272841453552,-1.2817381620407104,1.6479490995407104
243484,-0.0118408203125,-0.5482177734375,0.71484375,3.601073980331421,-1.8310545682907104,1.15966796875
243499,-0.012451171875,-0.53125,0.6993408203125,3.967284917831421,-1.8920897245407104,1.0986328125
243516,-0.01416015625,-0.5267333984375,0.6871337890625,5.065917491912842,-1.9531248807907104,1.03759765625
243533,-0.0146484375,-0.5235595703125,0.666015625,6.774901866912842,-1.8920897245407104,0.9155272841453552
243552,-0.0125732421875,-0.524658203125,0.66796875,8.23974609375,-1.6479490995407104,0.9155272841453552
243568,-0.0106201171875,-0.5345458984375,0.6795654296875,9.27734375,-1.5869139432907104,0.9765624403953552
243602,-0.0067138671875,-0.5357666015625,0.67333984375,11.718749046325684,-2.13623046875,0.30517578125
243623,-0.0057373046875,-0.5291748046875,0.6666259765625,12.084959983825684,-2.01416015625,0.30517578125
243639,-0.0064697265625,-0.5364990234375,0.6690673828125,13.061522483825684,-2.0751953125,0.30517578125
243689,-0.0123291015625,-0.59326171875,0.7259521484375,14.770506858825684,-2.38037109375,-0.3662109076976776
243731,-0.023193359375,-0.5235595703125,0.6336669921875,15.686034202575684,-2.25830078125,-0.4272460639476776
243743,-0.0177001953125,-0.5545654296875,0.667236328125,15.869139671325684,-1.6479490995407104,0.1831054538488388
243776,-0.0098876953125,-0.6517333984375,0.7740478515625,17.7001953125,-2.197265625,-0.54931640625
243793,-0.011962890625,-0.6287841796875,0.7620849609375,19.775390625,-3.295898199081421,-1.6479490995407104
243809,-0.0164794921875,-0.5980224609375,0.7164306640625,20.263669967651367,-3.479003667831421,-1.7089842557907104
243841,-0.02294921875,-0.5594482421875,0.6644287109375,20.568845748901367,-2.0751953125,-0.54931640625
243862,-0.0281982421875,-0.6156005859375,0.7197265625,20.812986373901367,-1.8310545682907104,-0.30517578125
243891,-0.0303955078125,-0.6444091796875,0.7559814453125,21.606443405151367,-2.807616949081421,-1.2817381620407104
243915,-0.032958984375,-0.58349609375,0.68359375,21.606443405151367,-2.929687261581421,-1.220703125
243927,-0.032470703125,-0.58154296875,0.67529296875,21.118162155151367,-2.01416015625,-0.30517578125
243956,-0.030029296875,-0.6533203125,0.7470703125,19.95849609375,-1.5258787870407104,0.30517578125
244035,-0.0355224609375,-0.6549072265625,0.71728515625,17.2119140625,-1.8920897245407104,0.30517578125
244052,-0.03564453125,-0.656982421875,0.7198486328125,15.930174827575684,-0.9765624403953552,1.3427733182907104
244069,-0.03369140625,-0.71337890625,0.77587890625,14.770506858825684,-0.30517578125,2.0751953125
244121,-0.0225830078125,-0.7916259765625,0.85107421875,14.099120140075684,-2.13623046875,0.6713866591453552
244151,-0.03076171875,-0.67431640625,0.7109375,12.390135765075684,-1.4648436307907104,1.4648436307907104
244168,-0.028076171875,-0.6968994140625,0.7257080078125,11.657713890075684,-0.9765624403953552,1.9531248807907104
244201,-0.0218505859375,-0.7802734375,0.8131103515625,9.521484375,-0.8544921278953552,1.9531248807907104
244218,-0.0240478515625,-0.7840576171875,0.808349609375,9.46044921875,-1.8310545682907104,1.15966796875
244234,-0.0333251953125,-0.7476806640625,0.74853515625,9.27734375,-1.6479490995407104,1.2817381620407104
244251,-0.038330078125,-0.7427978515625,0.735107421875,9.27734375,-1.15966796875,1.6479490995407104
244274,-0.0428466796875,-0.78076171875,0.7769775390625,8.97216796875,-0.8544921278953552,1.7700194120407104
244290,-0.0440673828125,-0.78515625,0.794189453125,8.7890625,-0.9765624403953552,1.7700194120407104
244302,-0.0399169921875,-0.7867431640625,0.789794921875,8.85009765625,-1.03759765625,1.6479490995407104
244317,-0.0382080078125,-0.7786865234375,0.7774658203125,8.85009765625,-1.220703125,1.5869139432907104
244334,-0.0423583984375,-0.7557373046875,0.744384765625,8.97216796875,-1.03759765625,1.7089842557907104
244350,-0.0458984375,-0.767822265625,0.747314453125,9.09423828125,-0.1831054538488388,2.38037109375
244384,-0.0465087890625,-0.811767578125,0.7908935546875,9.33837890625,-0.0610351525247097,2.38037109375
244403,-0.045654296875,-0.797607421875,0.7752685546875,9.33837890625,-0.0610351525247097,2.13623046875
244419,-0.0401611328125,-0.7843017578125,0.746826171875,9.33837890625,0.3662109076976776,2.563476324081421
244436,-0.0374755859375,-0.7994384765625,0.7432861328125,9.21630859375,0.54931640625,2.685546636581421
244453,-0.0377197265625,-0.8084716796875,0.746826171875,9.1552734375,1.03759765625,2.807616949081421
244469,-0.0311279296875,-0.8450927734375,0.78955078125,9.3994140625,1.0986328125,2.563476324081421
244503,-0.0230712890625,-0.845947265625,0.7982177734375,9.765625,0.1831054538488388,1.4038084745407104
244519,-0.0230712890625,-0.8206787109375,0.755126953125,9.6435546875,0.0,1.03759765625
244572,-0.022705078125,-0.8663330078125,0.778564453125,8.9111328125,-0.1831054538488388,0.1220703050494194
244631,-0.02392578125,-0.86181640625,0.7757568359375,9.27734375,-1.220703125,-1.4038084745407104
244648,-0.0263671875,-0.8402099609375,0.7598876953125,9.21630859375,-1.2817381620407104,-1.4648436307907104
244681,-0.029541015625,-0.8118896484375,0.7198486328125,8.85009765625,-1.2817381620407104,-1.4038084745407104
244698,-0.0299072265625,-0.82421875,0.7198486328125,8.23974609375,-1.0986328125,-1.2817381620407104
244714,-0.03125,-0.8306884765625,0.7103271484375,7.934569835662842,-1.220703125,-1.5258787870407104
244746,-0.03271484375,-0.7894287109375,0.6768798828125,6.896972179412842,-1.0986328125,-1.8920897245407104
244828,-0.0355224609375,-0.8038330078125,0.6549072265625,5.0048828125,0.0610351525247097,-0.6713866591453552
244948,0.004638671875,-1.4432373046875,1.1826171875,8.23974609375,3.417968511581421,4.08935546875
245053,-0.0118408203125,-0.806396484375,0.647216796875,2.868652105331421,-2.197265625,-2.44140625
245070,-0.025146484375,-0.5648193359375,0.45263671875,4.0283203125,-1.220703125,-0.9155272841453552
245087,-0.028076171875,-0.9564208984375,0.8043212890625,4.39453125,-0.1831054538488388,0.6103515625
245107,-0.0126953125,-0.7030029296875,0.5535888671875,4.638671875,-1.4038084745407104,-0.6103515625
245124,-0.0264892578125,-0.7474365234375,0.5587158203125,5.126952648162842,-0.4882812201976776,0.0
245141,-0.0450439453125,-0.865234375,0.657470703125,3.967284917831421,-0.3662109076976776,-0.54931640625
245157,-0.021240234375,-0.7276611328125,0.614501953125,4.57763671875,-0.4272460639476776,-0.1831054538488388
245207,-0.025146484375,-0.780029296875,0.601318359375,5.310058116912842,-0.9765624403953552,0.0610351525247097
245226,-0.0352783203125,-0.829345703125,0.608154296875,3.906249761581421,-0.6713866591453552,0.0
245243,-0.0350341796875,-0.814697265625,0.59765625,2.13623046875,-0.2441406100988388,-0.0610351525247097
245276,-0.029296875,-0.7991943359375,0.6253662109375,0.8544921278953552,-0.30517578125,0.30517578125
245293,-0.0289306640625,-0.7978515625,0.62158203125,0.1831054538488388,-0.30517578125,0.3662109076976776
245342,-0.0325927734375,-0.8038330078125,0.6202392578125,-1.7089842557907104,-0.1220703050494194,0.1220703050494194
245363,-0.031005859375,-0.7850341796875,0.630126953125,-1.7089842557907104,-0.30517578125,0.2441406100988388
245379,-0.0294189453125,-0.796142578125,0.632080078125,-1.5869139432907104,-0.30517578125,0.30517578125
245396,-0.0277099609375,-0.79296875,0.62744140625,-1.5869139432907104,-0.30517578125,0.30517578125
245412,-0.02978515625,-0.79931640625,0.6197509765625,-1.5869139432907104,-0.2441406100988388,0.3662109076976776
245429,-0.030517578125,-0.79638671875,0.628173828125,-1.8920897245407104,-0.2441406100988388,0.30517578125
245463,-0.0301513671875,-0.7933349609375,0.6353759765625,-1.7700194120407104,-0.2441406100988388,0.30517578125
245478,-0.0294189453125,-0.7901611328125,0.6231689453125,-1.8310545682907104,-0.2441406100988388,0.3662109076976776
245495,-0.030517578125,-0.7965087890625,0.628173828125,-2.01416015625,-0.1831054538488388,0.4272460639476776
245512,-0.0325927734375,-0.7943115234375,0.6265869140625,-2.13623046875,-0.1220703050494194,0.3662109076976776
245531,-0.0306396484375,-0.7886962890625,0.635498046875,-2.0751953125,0.0,0.4272460639476776
245547,-0.029052734375,-0.7879638671875,0.6392822265625,-1.8920897245407104,-0.0610351525247097,0.3662109076976776
245579,-0.03125,-0.7882080078125,0.63623046875,-1.220703125,-0.1220703050494194,0.4272460639476776
245600,-0.030517578125,-0.7845458984375,0.635986328125,-1.0986328125,-0.1831054538488388,0.3662109076976776
245616,-0.029052734375,-0.7891845703125,0.6358642578125,-0.7934569716453552,-0.1831054538488388,0.3662109076976776
245628,-0.0286865234375,-0.786865234375,0.6365966796875,-0.6713866591453552,-0.1831054538488388,0.4272460639476776
245647,-0.029052734375,-0.78515625,0.633056640625,-0.54931640625,-0.1831054538488388,0.4882812201976776
245664,-0.02978515625,-0.7880859375,0.6334228515625,-0.54931640625,-0.1831054538488388,0.4882812201976776
245679,-0.029296875,-0.792236328125,0.6324462890625,-0.7934569716453552,0.0,0.4272460639476776
245696,-0.0294189453125,-0.785400390625,0.632080078125,-0.9155272841453552,0.0,0.4272460639476776
245715,-0.031005859375,-0.7880859375,0.6385498046875,-0.9765624403953552,-0.0610351525247097,0.30517578125
245736,-0.02880859375,-0.785888671875,0.64111328125,-0.8544921278953552,-0.2441406100988388,0.30517578125
245752,-0.0291748046875,-0.7850341796875,0.6390380859375,-0.7324218153953552,-0.2441406100988388,0.2441406100988388
245814,-0.0306396484375,-0.7806396484375,0.638671875,0.0610351525247097,-0.1831054538488388,0.2441406100988388
245833,-0.029296875,-0.7811279296875,0.6407470703125,0.4882812201976776,-0.30517578125,0.30517578125
245850,-0.0281982421875,-0.7833251953125,0.6416015625,0.8544921278953552,-0.4272460639476776,0.30517578125
245871,-0.0294189453125,-0.7830810546875,0.640869140625,0.9765624403953552,-0.4272460639476776,0.2441406100988388
245890,-0.0311279296875,-0.7830810546875,0.6402587890625,1.220703125,-0.30517578125,0.2441406100988388
245906,-0.028564453125,-0.7818603515625,0.6380615234375,1.5869139432907104,-0.30517578125,0.2441406100988388
245939,-0.0306396484375,-0.78466796875,0.6383056640625,1.9531248807907104,-0.30517578125,0.30517578125
245956,-0.03173828125,-0.7864990234375,0.6409912109375,2.197265625,-0.2441406100988388,0.30517578125
245972,-0.0301513671875,-0.788818359375,0.6363525390625,2.3193359375,-0.30517578125,0.3662109076976776
246014,-0.0296630859375,-0.7864990234375,0.635986328125,2.3193359375,-0.30517578125,0.1831054538488388
246029,-0.0316162109375,-0.789306640625,0.6358642578125,2.3193359375,-0.30517578125,0.2441406100988388
246046,-0.0321044921875,-0.7901611328125,0.6343994140625,2.3193359375,-0.30517578125,0.2441406100988388
246067,-0.031494140625,-0.7877197265625,0.63232421875,2.197265625,-0.2441406100988388,0.2441406100988388
246083,-0.030029296875,-0.7921142578125,0.632568359375,2.0751953125,-0.2441406100988388,0.30517578125
246100,-0.0296630859375,-0.791748046875,0.6329345703125,1.7700194120407104,-0.2441406100988388,0.2441406100988388
246117,-0.030517578125,-0.7913818359375,0.632568359375,1.7089842557907104,-0.2441406100988388,0.1831054538488388
246137,-0.0303955078125,-0.7891845703125,0.6324462890625,1.7089842557907104,-0.30517578125,0.2441406100988388
246154,-0.030517578125,-0.789794921875,0.6319580078125,1.5869139432907104,-0.2441406100988388,0.2441406100988388
246170,-0.030517578125,-0.7899169921875,0.6314697265625,1.5258787870407104,-0.30517578125,0.2441406100988388
246188,-0.031005859375,-0.7911376953125,0.633544921875,1.4648436307907104,-0.30517578125,0.2441406100988388
246204,-0.031494140625,-0.791259765625,0.6339111328125,1.4648436307907104,-0.2441406100988388,0.2441406100988388
246237,-0.0296630859375,-0.7896728515625,0.6322021484375,1.4038084745407104,-0.2441406100988388,0.30517578125
246253,-0.0284423828125,-0.7899169921875,0.631103515625,1.5258787870407104,-0.2441406100988388,0.2441406100988388
246269,-0.0291748046875,-0.789306640625,0.6318359375,1.5869139432907104,-0.30517578125,0.2441406100988388
246305,-0.031494140625,-0.789794921875,0.630859375,1.8310545682907104,-0.3662109076976776,0.30517578125
246321,-0.0289306640625,-0.792724609375,0.6302490234375,1.8920897245407104,-0.2441406100988388,0.30517578125
246338,-0.0302734375,-0.7945556640625,0.62890625,1.7700194120407104,-0.1831054538488388,0.30517578125
246354,-0.031005859375,-0.79150390625,0.6304931640625,1.7089842557907104,-0.2441406100988388,0.30517578125
246373,-0.0302734375,-0.7919921875,0.6302490234375,1.7089842557907104,-0.2441406100988388,0.30517578125
