tMillis,ax,ay,az,gx,gy,gz
156015,0.0396728515625,0.1427001953125,1.01416015625,0.6713866591453552,-0.1831054538488388,0.2441406100988388
156032,0.038818359375,0.142822265625,1.0147705078125,0.7324218153953552,-0.1831054538488388,0.30517578125
156051,0.0394287109375,0.1434326171875,1.0146484375,0.7324218153953552,-0.1831054538488388,0.30517578125
156070,0.038818359375,0.143310546875,1.015380859375,0.6713866591453552,-0.1220703050494194,0.2441406100988388
156089,0.03955078125,0.14306640625,1.0135498046875,0.6713866591453552,-0.1831054538488388,0.30517578125
156108,0.039794921875,0.142822265625,1.0150146484375,0.6713866591453552,-0.1831054538488388,0.30517578125
156131,0.040283203125,0.1422119140625,1.015380859375,0.6713866591453552,-0.1831054538488388,0.30517578125
156147,0.040771484375,0.1435546875,1.0145263671875,0.6713866591453552,-0.1831054538488388,0.2441406100988388
156164,0.039794921875,0.143310546875,1.013916015625,0.6103515625,-0.1831054538488388,0.30517578125
156182,0.038330078125,0.1427001953125,1.0140380859375,0.6713866591453552,-0.1831054538488388,0.30517578125
156201,0.0400390625,0.1435546875,1.0146484375,0.6713866591453552,-0.1220703050494194,0.30517578125
156218,0.0386962890625,0.1434326171875,1.0152587890625,0.6713866591453552,-0.1220703050494194,0.2441406100988388
156239,0.038330078125,0.142333984375,1.0147705078125,0.6713866591453552,-0.1831054538488388,0.2441406100988388
156255,0.0391845703125,0.1429443359375,1.0162353515625,0.6713866591453552,-0.1220703050494194,0.2441406100988388
156274,0.038818359375,0.14306640625,1.01513671875,0.6713866591453552,-0.1220703050494194,0.2441406100988388
156292,0.0386962890625,0.1431884765625,1.01416015625,0.6713866591453552,-0.1220703050494194,0.2441406100988388
156311,0.0390625,0.1424560546875,1.014404296875,0.6713866591453552,-0.2441406100988388,0.30517578125
156331,0.0394287109375,0.14306640625,1.015380859375,0.6713866591453552,-0.1220703050494194,0.30517578125
156350,0.039306640625,0.143798828125,1.0146484375,0.6103515625,-0.1831054538488388,0.30517578125
156375,0.039306640625,0.1435546875,1.01416015625,0.6713866591453552,-0.2441406100988388,0.3662109076976776
156389,0.0390625,0.1435546875,1.0145263671875,0.6713866591453552,-0.1831054538488388,0.3662109076976776
156401,0.039306640625,0.1429443359375,1.013671875,0.6103515625,-0.1220703050494194,0.2441406100988388
156421,0.03955078125,0.142578125,1.013916015625,0.6713866591453552,-0.1220703050494194,0.30517578125
156441,0.039306640625,0.142822265625,1.0159912109375,0.6713866591453552,-0.1831054538488388,0.30517578125
156459,0.03955078125,0.14306640625,1.014404296875,0.6713866591453552,-0.1831054538488388,0.2441406100988388
156475,0.03955078125,0.142822265625,1.013916015625,0.6713866591453552,-0.2441406100988388,0.30517578125
156489,0.0389404296875,0.1429443359375,1.0157470703125,0.6713866591453552,-0.1831054538488388,0.30517578125
156514,0.0394287109375,0.14306640625,1.0147705078125,0.6713866591453552,-0.1831054538488388,0.30517578125
156527,0.0390625,0.1424560546875,1.0145263671875,0.6713866591453552,-0.1831054538488388,0.30517578125
156543,0.0391845703125,0.1424560546875,1.0145263671875,0.6713866591453552,-0.1831054538488388,0.30517578125
156559,0.039794921875,0.1431884765625,1.014404296875,0.6713866591453552,-0.1220703050494194,0.2441406100988388
156577,0.039306640625,0.1431884765625,1.014404296875,0.54931640625,-0.1220703050494194,0.1831054538488388
156596,0.0396728515625,0.14306640625,1.014892578125,0.6713866591453552,-0.1831054538488388,0.2441406100988388
156618,0.0389404296875,0.1434326171875,1.0155029296875,0.7324218153953552,-0.1831054538488388,0.2441406100988388
156634,0.0400390625,0.142333984375,1.0147705078125,0.6713866591453552,-0.1220703050494194,0.2441406100988388
156651,0.0384521484375,0.143798828125,1.0146484375,0.6713866591453552,-0.1831054538488388,0.30517578125
156669,0.0379638671875,0.143798828125,1.0142822265625,0.6713866591453552,-0.1831054538488388,0.30517578125
156687,0.03857421875,0.1429443359375,1.0152587890625,0.6103515625,-0.1831054538488388,0.30517578125
156705,0.0389404296875,0.1435546875,1.0146484375,0.6103515625,-0.1220703050494194,0.30517578125
156725,0.0401611328125,0.1429443359375,1.01318359375,0.6713866591453552,-0.1831054538488388,0.30517578125
156743,0.0400390625,0.1429443359375,1.0150146484375,0.6103515625,-0.1831054538488388,0.2441406100988388
156764,0.0396728515625,0.142822265625,1.015869140625,0.6103515625,-0.1831054538488388,0.2441406100988388
156782,0.039306640625,0.142822265625,1.015380859375,0.6103515625,-0.1831054538488388,0.2441406100988388
156798,0.0391845703125,0.1427001953125,1.0155029296875,0.6713866591453552,-0.1831054538488388,0.30517578125
156817,0.0396728515625,0.1435546875,1.0150146484375,0.7324218153953552,-0.2441406100988388,0.2441406100988388
156835,0.0394287109375,0.144287109375,1.0142822265625,0.7324218153953552,-0.2441406100988388,0.30517578125
156856,0.03955078125,0.1419677734375,1.0147705078125,0.7324218153953552,-0.2441406100988388,0.30517578125
156874,0.0391845703125,0.142822265625,1.0155029296875,0.6713866591453552,-0.2441406100988388,0.2441406100988388
156886,0.0391845703125,0.1429443359375,1.0157470703125,0.6713866591453552,-0.1831054538488388,0.30517578125
156898,0.039306640625,0.143798828125,1.0137939453125,0.7324218153953552,-0.2441406100988388,0.30517578125
156933,0.0400390625,0.143310546875,1.0146484375,0.6103515625,-0.2441406100988388,0.30517578125
156952,0.039794921875,0.14306640625,1.0145263671875,0.6713866591453552,-0.2441406100988388,0.30517578125
156964,0.039306640625,0.1431884765625,1.0150146484375,0.6713866591453552,-0.1831054538488388,0.30517578125
156977,0.039306640625,0.1435546875,1.014892578125,0.6713866591453552,-0.2441406100988388,0.30517578125
156995,0.039306640625,0.14306640625,1.013671875,0.6713866591453552,-0.2441406100988388,0.30517578125
157007,0.0391845703125,0.1419677734375,1.015625,0.6713866591453552,-0.1831054538488388,0.30517578125
157023,0.039306640625,0.1416015625,1.0146484375,0.6713866591453552,-0.1220703050494194,0.30517578125
157044,0.0394287109375,0.1436767578125,1.0133056640625,0.7324218153953552,-0.2441406100988388,0.30517578125
157063,0.0401611328125,0.14306640625,1.0147705078125,0.6713866591453552,-0.1831054538488388,0.30517578125
157087,0.0389404296875,0.14306640625,1.0167236328125,0.6713866591453552,-0.1831054538488388,0.30517578125
157103,0.040283203125,0.1429443359375,1.0150146484375,0.6713866591453552,-0.1831054538488388,0.30517578125
157119,0.039794921875,0.1419677734375,1.0137939453125,0.6713866591453552,-0.1831054538488388,0.30517578125
157136,0.038330078125,0.1435546875,1.0137939453125,0.6713866591453552,-0.1831054538488388,0.2441406100988388
157153,0.0389404296875,0.143310546875,1.015625,0.6713866591453552,-0.1220703050494194,0.2441406100988388
157185,0.0386962890625,0.14306640625,1.0146484375,0.6713866591453552,-0.2441406100988388,0.30517578125
157205,0.0391845703125,0.1431884765625,1.0155029296875,0.7324218153953552,-0.2441406100988388,0.30517578125
157227,0.0389404296875,0.143310546875,1.01513671875,0.6713866591453552,-0.1831054538488388,0.2441406100988388
157243,0.0396728515625,0.142822265625,1.01513671875,0.6713866591453552,-0.1831054538488388,0.2441406100988388
157260,0.0399169921875,0.1419677734375,1.0152587890625,0.6713866591453552,-0.2441406100988388,0.30517578125
157309,0.038818359375,0.1434326171875,1.013671875,0.6713866591453552,-0.1220703050494194,0.30517578125
157329,0.0391845703125,0.1431884765625,1.0164794921875,0.6713866591453552,-0.1831054538488388,0.2441406100988388
157346,0.0396728515625,0.142822265625,1.0150146484375,0.6103515625,-0.1220703050494194,0.2441406100988388
157362,0.03955078125,0.142822265625,1.014404296875,0.6713866591453552,-0.1831054538488388,0.1831054538488388
157383,0.038818359375,0.142822265625,1.0150146484375,0.6103515625,-0.2441406100988388,0.2441406100988388
157400,0.0391845703125,0.1431884765625,1.01513671875,0.6713866591453552,-0.2441406100988388,0.3662109076976776
157416,0.0394287109375,0.1436767578125,1.0146484375,0.6103515625,-0.2441406100988388,0.30517578125
157433,0.0394287109375,0.1429443359375,1.0155029296875,0.6713866591453552,-0.1831054538488388,0.2441406100988388
157450,0.0394287109375,0.1427001953125,1.015380859375,0.6713866591453552,-0.1831054538488388,0.30517578125
157467,0.0382080078125,0.142578125,1.01416015625,0.6713866591453552,-0.2441406100988388,0.30517578125
157488,0.0399169921875,0.1417236328125,1.0157470703125,0.6103515625,-0.1831054538488388,0.30517578125
157506,0.0406494140625,0.142578125,1.015380859375,0.6103515625,-0.1831054538488388,0.2441406100988388
157522,0.0400390625,0.142333984375,1.015625,0.7324218153953552,-0.2441406100988388,0.2441406100988388
157555,0.040283203125,0.1427001953125,1.0147705078125,0.6713866591453552,-0.1831054538488388,0.2441406100988388
157571,0.039794921875,0.1429443359375,1.0152587890625,0.7324218153953552,-0.2441406100988388,0.30517578125
157588,0.0391845703125,0.1429443359375,1.01416015625,0.6713866591453552,-0.1831054538488388,0.2441406100988388
157628,0.0390625,0.1424560546875,1.015380859375,0.7324218153953552,-0.1831054538488388,0.3662109076976776
157644,0.0384521484375,0.1434326171875,1.0147705078125,0.7324218153953552,-0.1220703050494194,0.30517578125
157661,0.0389404296875,0.1434326171875,1.014404296875,0.6103515625,-0.1831054538488388,0.2441406100988388
157682,0.0386962890625,0.14306640625,1.014404296875,0.6713866591453552,-0.1831054538488388,0.30517578125
157698,0.03955078125,0.1435546875,1.013916015625,0.6713866591453552,-0.2441406100988388,0.30517578125
157715,0.0391845703125,0.143310546875,1.0146484375,0.6713866591453552,-0.2441406100988388,0.30517578125
157732,0.0391845703125,0.1429443359375,1.014892578125,0.7324218153953552,-0.1831054538488388,0.30517578125
157749,0.038818359375,0.1422119140625,1.014892578125,0.6713866591453552,-0.1831054538488388,0.30517578125
157786,0.0390625,0.1429443359375,1.015625,0.6713866591453552,-0.1831054538488388,0.2441406100988388
157854,0.0382080078125,0.14306640625,1.0152587890625,0.7324218153953552,-0.2441406100988388,0.30517578125
157874,0.0386962890625,0.1431884765625,1.0147705078125,0.6713866591453552,-0.1831054538488388,0.30517578125
157890,0.0390625,0.142333984375,1.0142822265625,0.6713866591453552,-0.1220703050494194,0.30517578125
157906,0.039794921875,0.142578125,1.0147705078125,0.6713866591453552,-0.1831054538488388,0.30517578125
157926,0.039794921875,0.142578125,1.0145263671875,0.7324218153953552,-0.1831054538488388,0.2441406100988388
157943,0.0384521484375,0.1435546875,1.0157470703125,0.6103515625,-0.1831054538488388,0.30517578125
157975,0.038818359375,0.142578125,1.0145263671875,0.6713866591453552,-0.1220703050494194,0.1831054538488388
157992,0.03857421875,0.1424560546875,1.014892578125,0.6103515625,-0.1220703050494194,0.1831054538488388
158009,0.0390625,0.1422119140625,1.0135498046875,0.6103515625,-0.1220703050494194,0.1831054538488388
158026,0.038818359375,0.142578125,1.0159912109375,0.6713866591453552,-0.1220703050494194,0.30517578125
158046,0.0396728515625,0.142333984375,1.01611328125,0.6713866591453552,-0.1831054538488388,0.30517578125
158060,0.0391845703125,0.1416015625,1.015869140625,0.7324218153953552,-0.1831054538488388,0.30517578125
158093,0.0391845703125,0.14208984375,1.0140380859375,0.6103515625,-0.2441406100988388,0.30517578125
158115,0.0391845703125,0.1424560546875,1.0145263671875,0.6103515625,-0.2441406100988388,0.30517578125
158130,0.0399169921875,0.143310546875,1.0157470703125,0.6713866591453552,-0.1831054538488388,0.2441406100988388
158147,0.0396728515625,0.143310546875,1.0174560546875,0.6713866591453552,-0.1831054538488388,0.2441406100988388
158216,0.036865234375,0.140869140625,1.0078125,0.6713866591453552,-0.1220703050494194,0.2441406100988388
158288,0.0345458984375,0.142578125,1.0089111328125,0.6713866591453552,-0.1831054538488388,0.2441406100988388
158305,0.0380859375,0.1417236328125,1.00927734375,0.6713866591453552,-0.1831054538488388,0.30517578125
158342,0.0379638671875,0.1435546875,1.0167236328125,0.6713866591453552,-0.1831054538488388,0.2441406100988388
158359,0.03759765625,0.141845703125,1.0052490234375,0.6713866591453552,-0.2441406100988388,0.30517578125
158376,0.0411376953125,0.143798828125,1.0224609375,0.6713866591453552,-0.2441406100988388,0.30517578125
158393,0.0406494140625,0.1448974609375,1.02392578125,0.6713866591453552,-0.2441406100988388,0.30517578125
158414,0.0374755859375,0.1424560546875,1.0123291015625,0.6103515625,-0.2441406100988388,0.2441406100988388
158426,0.038330078125,0.14306640625,1.0147705078125,0.6713866591453552,-0.1831054538488388,0.30517578125
158443,0.0408935546875,0.143310546875,1.018798828125,0.7324218153953552,-0.2441406100988388,0.30517578125
158463,0.0401611328125,0.141845703125,1.012939453125,0.7324218153953552,-0.2441406100988388,0.30517578125
158480,0.03662109375,0.1431884765625,1.0159912109375,0.6713866591453552,-0.1831054538488388,0.2441406100988388
158497,0.0400390625,0.143310546875,1.0162353515625,0.6713866591453552,-0.1831054538488388,0.30517578125
158514,0.0404052734375,0.142578125,1.0123291015625,0.6713866591453552,-0.1220703050494194,0.30517578125
158529,0.03955078125,0.14306640625,1.0146484375,0.6713866591453552,-0.1220703050494194,0.30517578125
158546,0.0386962890625,0.142822265625,1.016357421875,0.6103515625,-0.1831054538488388,0.3662109076976776
158583,0.03955078125,0.1419677734375,1.013671875,0.7324218153953552,-0.1831054538488388,0.30517578125
158600,0.038330078125,0.1431884765625,1.0147705078125,0.6713866591453552,-0.2441406100988388,0.30517578125
158617,0.0379638671875,0.1441650390625,1.01708984375,0.6713866591453552,-0.1831054538488388,0.30517578125
158633,0.0386962890625,0.1427001953125,1.0145263671875,0.6713866591453552,-0.1831054538488388,0.2441406100988388
158653,0.0394287109375,0.140869140625,1.010009765625,0.6713866591453552,-0.1831054538488388,0.30517578125
158669,0.040771484375,0.142333984375,1.0174560546875,0.6713866591453552,-0.2441406100988388,0.30517578125
158686,0.0394287109375,0.1427001953125,1.017333984375,0.6713866591453552,-0.1831054538488388,0.2441406100988388
158705,0.037353515625,0.142333984375,1.014892578125,0.6713866591453552,-0.1831054538488388,0.30517578125
158722,0.0386962890625,0.1435546875,1.016357421875,0.7324218153953552,-0.2441406100988388,0.30517578125
158755,0.0399169921875,0.1422119140625,1.0146484375,0.6713866591453552,-0.2441406100988388,0.30517578125
158772,0.0389404296875,0.1441650390625,1.014404296875,0.7324218153953552,-0.1220703050494194,0.1831054538488388
158788,0.0394287109375,0.1451416015625,1.015380859375,0.8544921278953552,-0.1220703050494194,0.1831054538488388
158805,0.0401611328125,0.1434326171875,1.0166015625,0.9765624403953552,-0.1831054538488388,0.30517578125
158874,0.041259765625,0.144775390625,1.015380859375,2.197265625,-0.1220703050494194,0.30517578125
158891,0.0350341796875,0.1475830078125,1.0093994140625,2.563476324081421,0.30517578125,0.30517578125
158910,0.0355224609375,0.1220703125,1.00830078125,2.50244140625,0.7324218153953552,0.2441406100988388
158926,0.0411376953125,0.1234130859375,1.0076904296875,2.13623046875,1.4648436307907104,-0.4272460639476776
158946,0.0477294921875,0.1435546875,1.0142822265625,2.3193359375,2.624511480331421,-0.2441406100988388
158963,0.0447998046875,0.1368408203125,1.0242919921875,2.3193359375,3.967284917831421,-0.6103515625
158996,0.063720703125,0.1622314453125,1.1273193359375,3.295898199081421,6.347655773162842,-2.25830078125
159045,0.07568359375,0.242431640625,1.495361328125,9.27734375,-0.3662109076976776,-0.9765624403953552
159067,0.073486328125,0.22412109375,1.5255126953125,10.437010765075684,-1.5869139432907104,-1.15966796875
159084,0.060791015625,0.199462890625,1.44580078125,9.82666015625,-2.0751953125,-1.220703125
159117,0.0521240234375,0.1884765625,1.391845703125,7.812499523162842,-1.03759765625,-1.7700194120407104
159133,0.0513916015625,0.21044921875,1.4205322265625,6.164550304412842,-1.15966796875,-1.8310545682907104
159150,0.052978515625,0.2203369140625,1.4608154296875,5.554198741912842,-1.8920897245407104,-1.4038084745407104
159166,0.053955078125,0.208984375,1.4739990234375,5.187987804412842,-2.3193359375,-1.4038084745407104
159184,0.0513916015625,0.1988525390625,1.4749755859375,5.187987804412842,-2.868652105331421,-1.15966796875
159206,0.0521240234375,0.19677734375,1.4930419921875,4.7607421875,-3.784179449081421,-1.2817381620407104
159222,0.04736328125,0.1942138671875,1.4808349609375,4.82177734375,-4.21142578125,-1.220703125
159237,0.043701171875,0.2000732421875,1.444091796875,4.94384765625,-4.82177734375,-1.3427733182907104
159253,0.04296875,0.20068359375,1.44189453125,4.82177734375,-4.82177734375,-1.2817381620407104
159270,0.034423828125,0.1968994140625,1.4339599609375,4.8828125,-5.126952648162842,-1.15966796875
159287,0.0302734375,0.196044921875,1.423095703125,4.69970703125,-5.371093273162842,-1.03759765625
159311,0.0255126953125,0.181640625,1.3695068359375,4.638671875,-5.432128429412842,-1.220703125
159327,0.0328369140625,0.188232421875,1.3463134765625,4.21142578125,-4.82177734375,-1.15966796875
159344,0.0350341796875,0.1669921875,1.3232421875,3.845214605331421,-5.249022960662842,-1.0986328125
159364,0.0302734375,0.1480712890625,1.2557373046875,2.746581792831421,-5.676269054412842,-0.9765624403953552
159381,0.024658203125,0.130859375,1.1575927734375,1.5869139432907104,-5.187987804412842,-1.15966796875
159413,0.03369140625,0.126220703125,1.10693359375,-0.2441406100988388,-5.920409679412842,-0.7934569716453552
159434,0.0277099609375,0.1068115234375,0.988525390625,-1.7089842557907104,-6.225585460662842,-0.4272460639476776
159467,0.0166015625,0.078369140625,0.84619140625,-3.906249761581421,-5.798339366912842,-0.4882812201976776
159535,0.0042724609375,0.059814453125,0.5810546875,-7.873534679412842,-5.920409679412842,0.1220703050494194
159551,-0.001220703125,0.0526123046875,0.501953125,-8.85009765625,-5.432128429412842,0.30517578125
159567,-0.001708984375,0.0477294921875,0.480712890625,-9.21630859375,-5.126952648162842,0.4272460639476776
159600,-0.0009765625,0.0350341796875,0.39892578125,-10.131834983825684,-4.69970703125,0.6103515625
159621,-0.0009765625,0.035888671875,0.38037109375,-10.620116233825684,-4.150390625,0.54931640625
159636,0.0003662109375,0.0345458984375,0.3662109375,-11.352538108825684,-3.417968511581421,0.6713866591453552
159653,0.0035400390625,0.04052734375,0.3807373046875,-11.657713890075684,-3.051757574081421,0.6713866591453552
159669,0.0015869140625,0.03857421875,0.4200439453125,-12.207030296325684,-2.25830078125,0.7934569716453552
159685,-0.000244140625,0.0482177734375,0.4510498046875,-12.207030296325684,-1.4648436307907104,0.7934569716453552
159713,-0.0045166015625,0.062255859375,0.529052734375,-11.901854515075684,-0.7324218153953552,1.03759765625
159734,-0.006103515625,0.061767578125,0.5545654296875,-11.840819358825684,-0.4882812201976776,1.0986328125
159766,0.004150390625,0.0684814453125,0.678955078125,-12.084959983825684,1.5258787870407104,0.9155272841453552
159785,0.006591796875,0.1015625,0.763427734375,-12.023924827575684,1.9531248807907104,0.9155272841453552
159802,0.0125732421875,0.1148681640625,0.870849609375,-10.620116233825684,2.990722417831421,0.9765624403953552
159835,0.0224609375,0.1519775390625,1.021484375,-7.934569835662842,2.868652105331421,1.7089842557907104
159851,0.0191650390625,0.149658203125,1.048583984375,-5.920409679412842,2.197265625,2.01416015625
159868,0.018310546875,0.1376953125,1.0501708984375,-4.94384765625,2.25830078125,2.197265625
159889,0.0240478515625,0.1256103515625,1.0670166015625,-3.234863042831421,2.25830078125,2.13623046875
159905,0.028564453125,0.1317138671875,1.0718994140625,-2.44140625,2.01416015625,2.25830078125
159921,0.028564453125,0.1422119140625,1.05517578125,-0.6103515625,1.5869139432907104,2.38037109375
159953,0.02294921875,0.140625,1.016845703125,1.8310545682907104,1.15966796875,2.563476324081421
159970,0.0220947265625,0.1368408203125,1.0166015625,3.417968511581421,1.2817381620407104,2.685546636581421
159986,0.0181884765625,0.13623046875,1.010986328125,4.8828125,1.03759765625,2.50244140625
160019,0.0155029296875,0.1456298828125,0.994140625,7.141112804412842,0.8544921278953552,2.0751953125
160039,0.0184326171875,0.1605224609375,1.010498046875,8.7890625,0.7324218153953552,1.9531248807907104
160051,0.0186767578125,0.169921875,1.0289306640625,9.6435546875,0.4882812201976776,1.8920897245407104
160068,0.016845703125,0.1668701171875,1.02392578125,11.413573265075684,0.0,1.8920897245407104
160087,0.01416015625,0.166015625,1.01611328125,13.061522483825684,-0.1831054538488388,1.5869139432907104
160103,0.01025390625,0.1658935546875,1.0164794921875,14.831542015075684,-0.1831054538488388,1.4648436307907104
160136,0.0023193359375,0.156982421875,1.0107421875,17.2119140625,-0.30517578125,1.15966796875
160156,0.0045166015625,0.1590576171875,1.015869140625,18.6767578125,-0.0610351525247097,0.8544921278953552
160172,0.0108642578125,0.16015625,1.0322265625,19.287109375,-0.1220703050494194,0.8544921278953552
160189,0.010498046875,0.1510009765625,1.0225830078125,20.324705123901367,-0.54931640625,0.7934569716453552
160207,0.0078125,0.1263427734375,0.9859619140625,20.874021530151367,-0.30517578125,0.4882812201976776
160224,0.00927734375,0.1138916015625,0.9749755859375,20.996091842651367,0.0610351525247097,0.1831054538488388
160254,0.0076904296875,0.1031494140625,0.9764404296875,20.568845748901367,0.30517578125,-0.0610351525247097
160274,0.007568359375,0.099365234375,0.9775390625,20.324705123901367,0.4272460639476776,-0.1831054538488388
160290,0.00830078125,0.0914306640625,0.9742431640625,19.4091796875,0.54931640625,-0.3662109076976776
160307,0.0079345703125,0.084228515625,0.9671630859375,18.5546875,1.03759765625,-0.4882812201976776
160326,0.01025390625,0.083740234375,0.9869384765625,18.06640625,1.220703125,-0.54931640625
160343,0.0089111328125,0.076171875,0.9874267578125,16.66259765625,1.4038084745407104,-0.54931640625
160376,0.0118408203125,0.0645751953125,0.9903564453125,15.075682640075684,2.25830078125,-0.9155272841453552
160393,0.0181884765625,0.0694580078125,1.01806640625,14.160155296325684,2.624511480331421,-0.9155272841453552
160409,0.02197265625,0.0726318359375,1.0360107421875,13.793944358825684,2.563476324081421,-0.7934569716453552
160442,0.0230712890625,0.0677490234375,1.0399169921875,12.451170921325684,2.38037109375,-0.6713866591453552
160458,0.0234375,0.0628662109375,1.0458984375,11.474608421325684,2.50244140625,-0.54931640625
160475,0.025146484375,0.0606689453125,1.05322265625,10.375975608825684,2.3193359375,-0.4882812201976776
160492,0.024658203125,0.0533447265625,1.042236328125,9.82666015625,2.197265625,-0.3662109076976776
160510,0.0242919921875,0.0504150390625,1.036376953125,8.6669921875,2.197265625,-0.30517578125
160531,0.02490234375,0.04541015625,1.0361328125,7.507323741912842,2.13623046875,-0.2441406100988388
160548,0.0208740234375,0.041015625,1.0189208984375,6.164550304412842,1.9531248807907104,-0.0610351525247097
160567,0.018310546875,0.0367431640625,1.00390625,5.615233898162842,1.9531248807907104,0.0
160584,0.0213623046875,0.0313720703125,1.0035400390625,4.21142578125,2.13623046875,0.0
160614,0.0196533203125,0.0296630859375,1.0228271484375,3.234863042831421,1.8920897245407104,0.0610351525247097
160636,0.01904296875,0.030517578125,1.024169921875,2.929687261581421,1.7700194120407104,0.0610351525247097
160652,0.019287109375,0.034912109375,1.0247802734375,2.563476324081421,1.7700194120407104,-0.0610351525247097
160669,0.0223388671875,0.04541015625,1.056396484375,2.25830078125,1.8310545682907104,0.0
160687,0.0279541015625,0.05419921875,1.1016845703125,2.25830078125,1.5869139432907104,0.0
160704,0.025634765625,0.047119140625,1.0970458984375,2.01416015625,0.6103515625,0.0610351525247097
160737,0.0211181640625,0.0498046875,1.07275390625,1.4038084745407104,0.4272460639476776,0.1220703050494194
160753,0.020751953125,0.046142578125,1.0594482421875,1.0986328125,0.3662109076976776,0.1220703050494194
160769,0.0196533203125,0.039794921875,1.048828125,0.30517578125,0.1831054538488388,0.1831054538488388
160786,0.017578125,0.0323486328125,1.020263671875,-0.7324218153953552,0.0610351525247097,0.1831054538488388
160811,0.0174560546875,0.0294189453125,0.99072265625,-1.7700194120407104,0.2441406100988388,0.0610351525247097
160827,0.021484375,0.033203125,0.984130859375,-2.3193359375,0.4272460639476776,0.0610351525247097
160844,0.0234375,0.032470703125,0.983642578125,-3.112792730331421,0.3662109076976776,0.1831054538488388
160864,0.024658203125,0.027099609375,0.9716796875,-3.784179449081421,0.1831054538488388,0.30517578125
160881,0.027587890625,0.0247802734375,0.9649658203125,-4.2724609375,0.30517578125,0.2441406100988388
160943,0.03076171875,0.0419921875,0.976318359375,-3.479003667831421,-0.1831054538488388,0.4272460639476776
160985,0.0289306640625,0.0404052734375,0.9505615234375,-2.0751953125,-0.4882812201976776,0.4272460639476776
161002,0.0272216796875,0.036376953125,0.9288330078125,-1.6479490995407104,-0.7324218153953552,0.54931640625
161034,0.023193359375,0.0184326171875,0.86474609375,-1.5869139432907104,-0.4272460639476776,0.6103515625
161050,0.022705078125,0.0174560546875,0.85986328125,-1.8920897245407104,-0.1220703050494194,0.6103515625
161066,0.0224609375,0.0184326171875,0.8487548828125,-2.3193359375,0.2441406100988388,0.6103515625
161103,0.0218505859375,0.0252685546875,0.8470458984375,-3.051757574081421,0.6103515625,0.6103515625
161114,0.0216064453125,0.0260009765625,0.8389892578125,-3.356933355331421,0.6713866591453552,0.6713866591453552
161131,0.021728515625,0.0257568359375,0.8297119140625,-4.08935546875,0.8544921278953552,0.8544921278953552
161148,0.021484375,0.0224609375,0.805908203125,-4.94384765625,1.2817381620407104,0.8544921278953552
161167,0.0234375,0.0274658203125,0.812744140625,-5.920409679412842,2.01416015625,0.8544921278953552
161183,0.026123046875,0.0321044921875,0.8348388671875,-6.286620616912842,2.13623046875,0.8544921278953552
161221,0.0272216796875,0.0447998046875,0.8304443359375,-7.873534679412842,1.4038084745407104,1.220703125
161237,0.0299072265625,0.039794921875,0.8074951171875,-8.36181640625,1.7700194120407104,1.2817381620407104
161254,0.0325927734375,0.0394287109375,0.8214111328125,-9.521484375,2.3193359375,1.3427733182907104
161271,0.0367431640625,0.0450439453125,0.8720703125,-10.620116233825684,2.197265625,1.4038084745407104
161287,0.03857421875,0.05615234375,0.8857421875,-10.986327171325684,1.8310545682907104,1.4648436307907104
161304,0.036865234375,0.0584716796875,0.868896484375,-11.840819358825684,0.9765624403953552,1.5869139432907104
161334,0.029052734375,0.0516357421875,0.778564453125,-13.549803733825684,1.6479490995407104,1.8310545682907104
161356,0.03271484375,0.0531005859375,0.80322265625,-14.831542015075684,2.197265625,1.8920897245407104
161372,0.0386962890625,0.0679931640625,0.8729248046875,-15.502928733825684,2.685546636581421,1.7700194120407104
161389,0.0526123046875,0.1103515625,1.000244140625,-15.441893577575684,2.624511480331421,1.7089842557907104
161406,0.0574951171875,0.134765625,1.0299072265625,-14.709471702575684,1.0986328125,2.0751953125
161456,0.0570068359375,0.1573486328125,0.996826171875,-12.145995140075684,0.7934569716453552,2.563476324081421
161477,0.060791015625,0.163818359375,1.0216064453125,-11.169432640075684,0.30517578125,2.685546636581421
161493,0.0654296875,0.1685791015625,1.048583984375,-10.131834983825684,-0.9155272841453552,2.746581792831421
161505,0.056396484375,0.1732177734375,0.990234375,-9.70458984375,-1.5258787870407104,2.807616949081421
161523,0.05126953125,0.1766357421875,0.9583740234375,-9.033203125,-1.6479490995407104,2.746581792831421
161540,0.0443115234375,0.1990966796875,0.9676513671875,-8.11767578125,-0.9155272841453552,2.685546636581421
161573,0.046875,0.23046875,1.084716796875,-6.103515148162842,-0.9155272841453552,2.624511480331421
161590,0.053466796875,0.23291015625,1.1378173828125,-4.2724609375,-2.50244140625,2.929687261581421
161611,0.0399169921875,0.2056884765625,1.080810546875,-3.417968511581421,-2.868652105331421,2.990722417831421
161627,0.0333251953125,0.1953125,1.0814208984375,-1.8310545682907104,-2.3193359375,2.685546636581421
161646,0.031982421875,0.1959228515625,1.0968017578125,-0.3662109076976776,-2.3193359375,2.50244140625
161696,0.0269775390625,0.17724609375,1.09228515625,2.563476324081421,-1.0986328125,1.9531248807907104
161712,0.0281982421875,0.181884765625,1.1448974609375,3.845214605331421,-0.3662109076976776,1.7700194120407104
161729,0.0224609375,0.1749267578125,1.19921875,5.493163585662842,-0.8544921278953552,1.6479490995407104
161783,0.0084228515625,0.14306640625,1.0615234375,7.873534679412842,0.6713866591453552,0.9155272841453552
161827,0.0059814453125,0.12451171875,1.0797119140625,7.995604991912842,2.01416015625,0.4882812201976776
161844,0.0040283203125,0.1180419921875,1.055908203125,7.812499523162842,2.685546636581421,0.30517578125
161877,0.0181884765625,0.1104736328125,1.0667724609375,6.713866710662842,4.2724609375,-0.1220703050494194
161911,0.0240478515625,0.1282958984375,1.086181640625,5.371093273162842,4.7607421875,-0.1831054538488388
161946,0.0252685546875,0.1075439453125,1.0438232421875,4.21142578125,4.94384765625,0.0
161962,0.029052734375,0.0927734375,1.0496826171875,3.601073980331421,5.432128429412842,-0.1220703050494194
162007,0.0572509765625,0.133056640625,1.1578369140625,1.2817381620407104,5.0048828125,-0.30517578125
162069,0.067138671875,0.1214599609375,1.14599609375,-0.6713866591453552,3.906249761581421,0.1831054538488388
162081,0.071044921875,0.123779296875,1.18359375,-1.3427733182907104,3.479003667831421,0.1831054538488388
162114,0.0816650390625,0.137451171875,1.206298828125,-1.6479490995407104,0.9765624403953552,0.4882812201976776
162131,0.07421875,0.1258544921875,1.1282958984375,-2.197265625,0.7324218153953552,0.6713866591453552
162148,0.0738525390625,0.1217041015625,1.1317138671875,-2.50244140625,0.8544921278953552,0.6713866591453552
162164,0.07275390625,0.1162109375,1.1287841796875,-3.295898199081421,0.4882812201976776,0.6103515625
162184,0.0740966796875,0.1204833984375,1.1337890625,-3.723144292831421,0.2441406100988388,0.3662109076976776
162200,0.07080078125,0.135986328125,1.126220703125,-3.723144292831421,-0.1831054538488388,0.3662109076976776
162217,0.0655517578125,0.1412353515625,1.103515625,-3.784179449081421,-0.7324218153953552,0.4882812201976776
162234,0.0570068359375,0.1363525390625,1.0594482421875,-3.845214605331421,-0.7324218153953552,0.7324218153953552
162251,0.05322265625,0.12255859375,1.0457763671875,-4.150390625,0.0,0.54931640625
162267,0.0548095703125,0.1253662109375,1.066162109375,-4.08935546875,0.0610351525247097,0.4882812201976776
162283,0.0550537109375,0.1312255859375,1.072265625,-3.967284917831421,-0.0610351525247097,0.3662109076976776
162302,0.057861328125,0.1466064453125,1.0748291015625,-3.662109136581421,0.0,0.30517578125
162318,0.0548095703125,0.1427001953125,1.0447998046875,-3.112792730331421,-0.1831054538488388,0.4272460639476776
162335,0.05419921875,0.139892578125,1.031005859375,-2.746581792831421,0.0610351525247097,0.4272460639476776
162352,0.056396484375,0.13134765625,1.024169921875,-2.3193359375,0.4882812201976776,0.2441406100988388
162371,0.0555419921875,0.138427734375,1.0509033203125,-1.6479490995407104,1.03759765625,-0.0610351525247097
162387,0.0577392578125,0.1456298828125,1.08251953125,-1.15966796875,0.8544921278953552,-0.1220703050494194
162404,0.0587158203125,0.156494140625,1.085693359375,-0.6713866591453552,0.4272460639476776,-0.1220703050494194
162423,0.0618896484375,0.15673828125,1.0494384765625,0.4272460639476776,-0.1220703050494194,-0.0610351525247097
162439,0.0633544921875,0.1539306640625,1.0374755859375,1.220703125,0.0610351525247097,0.0
162456,0.0643310546875,0.1533203125,1.0501708984375,2.0751953125,0.2441406100988388,-0.1220703050494194
162472,0.0638427734375,0.1590576171875,1.0703125,2.990722417831421,-0.3662109076976776,0.0
162495,0.0601806640625,0.1549072265625,1.05029296875,3.784179449081421,-0.7324218153953552,0.0
162511,0.1151123046875,0.255615234375,1.4376220703125,3.112792730331421,-1.03759765625,0.2441406100988388
162523,0.1468505859375,0.301025390625,1.594482421875,-2.563476324081421,-5.371093273162842,1.6479490995407104
162543,0.1156005859375,0.2440185546875,1.3094482421875,-3.540038824081421,-7.141112804412842,2.01416015625
162558,0.0374755859375,0.1285400390625,0.9127197265625,-5.615233898162842,-5.798339366912842,2.50244140625
162575,0.044677734375,0.162109375,0.9759521484375,-4.45556640625,-5.798339366912842,2.3193359375
162592,0.0421142578125,0.1448974609375,0.9881591796875,-3.723144292831421,-6.042479991912842,2.50244140625
162611,0.035888671875,0.1580810546875,0.9495849609375,-2.25830078125,-6.286620616912842,2.563476324081421
162632,0.0255126953125,0.13427734375,0.924560546875,-1.4648436307907104,-6.103515148162842,2.50244140625
162648,-0.048583984375,0.0999755859375,0.7177734375,-4.39453125,-0.9765624403953552,1.7700194120407104
162667,0.001953125,0.10400390625,0.7667236328125,-5.859374523162842,6.103515148162842,0.6103515625
162684,0.1507568359375,0.22216796875,1.851806640625,-2.25830078125,3.906249761581421,0.6713866591453552
162714,-0.030517578125,0.056640625,0.4549560546875,-1.5258787870407104,-1.3427733182907104,0.30517578125
162731,0.070068359375,0.1885986328125,1.3172607421875,-1.0986328125,0.6103515625,-0.1831054538488388
162747,0.0992431640625,0.1942138671875,1.2633056640625,-0.9765624403953552,-1.4648436307907104,0.2441406100988388
162785,0.02978515625,0.1923828125,1.1322021484375,0.4272460639476776,-0.54931640625,0.4882812201976776
162801,0.0281982421875,0.1246337890625,0.96044921875,0.4882812201976776,-1.4038084745407104,0.9155272841453552
162813,0.0328369140625,0.112060546875,0.9322509765625,-0.30517578125,-0.8544921278953552,0.6103515625
162830,0.0419921875,0.122314453125,1.0341796875,-0.9155272841453552,-0.7324218153953552,0.4882812201976776
162849,0.0484619140625,0.1461181640625,1.013916015625,-2.01416015625,-1.0986328125,0.30517578125
162865,0.0396728515625,0.16455078125,1.001953125,-1.8920897245407104,-0.8544921278953552,0.30517578125
162895,0.035888671875,0.152587890625,1.0045166015625,-1.3427733182907104,-0.7324218153953552,0.6713866591453552
162917,0.04296875,0.152099609375,1.0140380859375,-1.0986328125,-0.54931640625,0.4272460639476776
162933,0.0443115234375,0.1678466796875,1.0135498046875,-0.8544921278953552,-0.4272460639476776,0.2441406100988388
162950,0.040283203125,0.1766357421875,1.0093994140625,0.0610351525247097,-0.4272460639476776,0.30517578125
162967,0.0364990234375,0.1707763671875,1.0072021484375,1.03759765625,-0.4882812201976776,0.4272460639476776
162983,0.041748046875,0.1549072265625,1.01806640625,1.3427733182907104,-0.4272460639476776,0.4272460639476776
163014,0.0408935546875,0.1622314453125,1.01318359375,1.8310545682907104,-0.4272460639476776,0.0
163035,0.036865234375,0.1593017578125,1.0140380859375,2.01416015625,-0.6713866591453552,0.30517578125
163051,0.0408935546875,0.1572265625,1.0062255859375,2.01416015625,-0.4272460639476776,0.3662109076976776
163068,0.0416259765625,0.1441650390625,1.0146484375,1.8310545682907104,-0.3662109076976776,0.4882812201976776
163087,0.0372314453125,0.1448974609375,1.0145263671875,1.220703125,-0.4272460639476776,0.1831054538488388
163103,0.0341796875,0.1451416015625,1.009521484375,1.03759765625,-0.4882812201976776,0.2441406100988388
163137,0.043212890625,0.1431884765625,1.0164794921875,-0.1220703050494194,-0.1831054538488388,0.4272460639476776
163153,0.0391845703125,0.1397705078125,1.0133056640625,-1.03759765625,-0.1831054538488388,0.3662109076976776
163191,0.0379638671875,0.154541015625,1.01806640625,-1.9531248807907104,-0.2441406100988388,0.2441406100988388
163207,0.0419921875,0.1650390625,1.0068359375,-1.6479490995407104,-0.2441406100988388,0.30517578125
163224,0.0374755859375,0.1666259765625,1.0140380859375,-1.4038084745407104,-0.1831054538488388,0.3662109076976776
163257,0.0394287109375,0.1541748046875,1.01220703125,-0.9155272841453552,-0.1220703050494194,0.3662109076976776
163274,0.0399169921875,0.163330078125,1.0135498046875,-0.7934569716453552,-0.0610351525247097,0.30517578125
163291,0.0400390625,0.167236328125,1.00732421875,-0.6103515625,0.0,0.30517578125
163308,0.0413818359375,0.1685791015625,1.0125732421875,0.0,0.0,0.3662109076976776
163331,0.0391845703125,0.1690673828125,1.01025390625,0.7934569716453552,-0.0610351525247097,0.2441406100988388
163364,0.041259765625,0.1680908203125,1.0081787109375,1.9531248807907104,-0.2441406100988388,0.1831054538488388
163385,0.04150390625,0.164306640625,1.0096435546875,2.563476324081421,-0.2441406100988388,0.2441406100988388
163401,0.039306640625,0.1580810546875,1.0145263671875,2.624511480331421,-0.1831054538488388,0.1831054538488388
163418,0.03857421875,0.15185546875,1.0115966796875,2.563476324081421,-0.1831054538488388,0.1831054538488388
163435,0.0406494140625,0.1552734375,1.010498046875,2.44140625,-0.2441406100988388,0.1220703050494194
163456,0.041748046875,0.158447265625,1.012451171875,2.44140625,-0.2441406100988388,0.1831054538488388
163472,0.0401611328125,0.1600341796875,1.0126953125,2.624511480331421,-0.30517578125,0.1831054538488388
163489,0.0369873046875,0.153564453125,1.0133056640625,2.746581792831421,-0.2441406100988388,0.2441406100988388
163507,0.040283203125,0.1534423828125,1.0157470703125,2.746581792831421,-0.4272460639476776,0.1831054538488388
163524,0.0377197265625,0.1513671875,1.0096435546875,2.746581792831421,-0.4272460639476776,0.1831054538488388
163557,0.041259765625,0.1512451171875,1.013671875,2.807616949081421,-0.30517578125,0.1220703050494194
163575,0.037841796875,0.1524658203125,1.013916015625,2.807616949081421,-0.2441406100988388,0.1831054538488388
163612,0.0411376953125,0.1517333984375,1.0123291015625,2.929687261581421,-0.30517578125,0.2441406100988388
163624,0.041259765625,0.146484375,1.016357421875,2.807616949081421,-0.3662109076976776,0.1831054538488388
163640,0.03857421875,0.14453125,1.014404296875,2.685546636581421,-0.30517578125,0.1831054538488388
163674,0.0399169921875,0.141845703125,1.0152587890625,1.8920897245407104,-0.1831054538488388,0.30517578125
163691,0.0416259765625,0.1414794921875,1.016357421875,1.6479490995407104,-0.1831054538488388,0.2441406100988388
163712,0.039306640625,0.1434326171875,1.01611328125,1.15966796875,-0.1831054538488388,0.30517578125
163728,0.037109375,0.1390380859375,1.0126953125,0.9155272841453552,-0.1831054538488388,0.30517578125
163747,0.0394287109375,0.140869140625,1.0164794921875,0.4272460639476776,-0.1220703050494194,0.30517578125
163764,0.04052734375,0.1422119140625,1.01806640625,-0.0610351525247097,-0.1220703050494194,0.30517578125
163794,0.039794921875,0.144287109375,1.0137939453125,-0.7324218153953552,-0.1220703050494194,0.3662109076976776
163811,0.0396728515625,0.145263671875,1.013427734375,-0.8544921278953552,0.0,0.3662109076976776
163849,0.0384521484375,0.1512451171875,1.0133056640625,-0.9765624403953552,-0.1831054538488388,0.2441406100988388
163868,0.0380859375,0.152587890625,1.0076904296875,-0.9155272841453552,-0.0610351525247097,0.30517578125
163885,0.04150390625,0.1549072265625,1.0140380859375,-0.7324218153953552,0.0610351525247097,0.30517578125
163918,0.0384521484375,0.158935546875,1.0118408203125,-0.0610351525247097,0.0,0.2441406100988388
163935,0.0400390625,0.1612548828125,1.012939453125,0.54931640625,-0.0610351525247097,0.30517578125
163951,0.041259765625,0.161376953125,1.0089111328125,0.9155272841453552,-0.0610351525247097,0.30517578125
163967,0.0408935546875,0.160400390625,1.013916015625,1.4648436307907104,-0.0610351525247097,0.30517578125
163985,0.038818359375,0.156494140625,1.0125732421875,1.7089842557907104,-0.1220703050494194,0.30517578125
164002,0.038330078125,0.1561279296875,1.013427734375,2.197265625,-0.1220703050494194,0.1220703050494194
164035,0.041259765625,0.155517578125,1.014404296875,2.746581792831421,-0.1831054538488388,0.1831054538488388
164051,0.03955078125,0.1527099609375,1.0113525390625,2.990722417831421,-0.1831054538488388,0.2441406100988388
164068,0.038818359375,0.1474609375,1.011962890625,3.112792730331421,-0.1831054538488388,0.2441406100988388
164104,0.03955078125,0.1490478515625,1.0162353515625,3.051757574081421,-0.3662109076976776,0.1220703050494194
164124,0.0386962890625,0.1497802734375,1.0162353515625,2.990722417831421,-0.2441406100988388,0.1220703050494194
164140,0.04052734375,0.14892578125,1.015625,3.112792730331421,-0.1220703050494194,0.1220703050494194
164161,0.038818359375,0.1444091796875,1.014404296875,3.234863042831421,0.0610351525247097,0.1831054538488388
164178,0.0364990234375,0.1412353515625,1.011474609375,3.234863042831421,0.0610351525247097,0.1831054538488388
164194,0.038818359375,0.138671875,1.0172119140625,3.112792730331421,0.1831054538488388,0.1831054538488388
164211,0.0450439453125,0.141845703125,1.014892578125,2.868652105331421,0.3662109076976776,0.2441406100988388
164229,0.0401611328125,0.126220703125,1.0072021484375,2.25830078125,0.9765624403953552,0.2441406100988388
164245,0.0350341796875,0.1259765625,1.009033203125,1.8310545682907104,1.4648436307907104,0.0610351525247097
164279,0.03173828125,0.160400390625,1.0323486328125,0.30517578125,4.33349609375,-0.6713866591453552
164295,0.02734375,0.16455078125,1.0496826171875,0.6103515625,5.676269054412842,-0.8544921278953552
164312,0.0322265625,0.218994140625,1.0948486328125,2.25830078125,5.371093273162842,-1.0986328125
164329,0.0555419921875,0.244384765625,1.297119140625,3.540038824081421,4.08935546875,-0.6713866591453552
164346,0.0836181640625,0.2374267578125,1.382080078125,5.920409679412842,2.685546636581421,-0.3662109076976776
164363,0.08984375,0.2164306640625,1.355224609375,6.530761241912842,1.7089842557907104,-0.2441406100988388
164395,0.0921630859375,0.2144775390625,1.2852783203125,5.920409679412842,3.051757574081421,-0.4272460639476776
164416,0.0902099609375,0.2252197265625,1.3265380859375,5.187987804412842,4.08935546875,-0.30517578125
164432,0.090576171875,0.2435302734375,1.4141845703125,4.5166015625,3.601073980331421,-0.1220703050494194
164449,0.099853515625,0.2501220703125,1.4639892578125,4.5166015625,3.417968511581421,0.0
164468,0.1026611328125,0.2388916015625,1.4635009765625,4.69970703125,2.685546636581421,0.54931640625
164485,0.102783203125,0.1865234375,1.434814453125,3.967284917831421,2.990722417831421,0.4882812201976776
164515,0.095947265625,0.1915283203125,1.463623046875,2.929687261581421,2.746581792831421,0.0
164532,0.0938720703125,0.216552734375,1.4638671875,3.356933355331421,2.807616949081421,-0.0610351525247097
164553,0.097900390625,0.2301025390625,1.4693603515625,4.0283203125,2.38037109375,0.3662109076976776
164569,0.1068115234375,0.2021484375,1.4541015625,4.21142578125,2.197265625,0.6713866591453552
164586,0.111328125,0.1754150390625,1.4537353515625,4.21142578125,1.7089842557907104,0.7934569716453552
164603,0.11376953125,0.169921875,1.4398193359375,3.662109136581421,0.6103515625,0.4882812201976776
164634,0.09326171875,0.1806640625,1.343017578125,3.112792730331421,-0.8544921278953552,0.4882812201976776
164650,0.086181640625,0.1707763671875,1.310546875,2.624511480331421,-1.8920897245407104,0.7934569716453552
164667,0.0814208984375,0.150146484375,1.2593994140625,2.01416015625,-2.197265625,0.9155272841453552
164688,0.0816650390625,0.1392822265625,1.2445068359375,0.6103515625,-2.929687261581421,0.9155272841453552
164706,0.0810546875,0.134521484375,1.2144775390625,-0.3662109076976776,-3.906249761581421,0.7934569716453552
164722,0.0784912109375,0.1326904296875,1.1815185546875,-1.0986328125,-5.065917491912842,0.9765624403953552
164753,0.0540771484375,0.1068115234375,1.0712890625,-2.624511480331421,-5.859374523162842,1.2817381620407104
164769,0.041748046875,0.0909423828125,1.029541015625,-3.356933355331421,-6.164550304412842,1.3427733182907104
164786,0.0360107421875,0.0855712890625,0.9993896484375,-3.601073980331421,-6.408690929412842,1.3427733182907104
164822,0.027587890625,0.073974609375,0.8851318359375,-3.173827886581421,-6.286620616912842,1.15966796875
164838,0.0228271484375,0.0545654296875,0.7928466796875,-2.50244140625,-6.774901866912842,1.3427733182907104
164855,0.0167236328125,0.04931640625,0.7216796875,-1.8920897245407104,-7.202147960662842,1.2817381620407104
164871,0.00927734375,0.0352783203125,0.596435546875,-1.7089842557907104,-7.080077648162842,1.220703125
164888,0.0029296875,0.033447265625,0.4970703125,-1.3427733182907104,-6.042479991912842,0.9155272841453552
164905,0.001953125,0.0294189453125,0.46142578125,-1.220703125,-5.798339366912842,0.8544921278953552
164940,0.0010986328125,0.0272216796875,0.409423828125,-1.03759765625,-4.2724609375,0.8544921278953552
164956,0.0,0.0299072265625,0.4144287109375,-0.7324218153953552,-3.845214605331421,0.7324218153953552
164973,-0.0023193359375,0.020263671875,0.413818359375,-0.3662109076976776,-3.662109136581421,0.6713866591453552
164990,-0.007080078125,0.025390625,0.4090576171875,-0.1220703050494194,-3.234863042831421,0.4882812201976776
165008,-0.0030517578125,0.04541015625,0.472900390625,0.30517578125,-2.197265625,0.1220703050494194
165024,-0.0023193359375,0.0543212890625,0.4976806640625,1.03759765625,-1.8310545682907104,0.0
165058,-0.00537109375,0.08203125,0.5736083984375,2.13623046875,-1.03759765625,-0.2441406100988388
165078,-0.0045166015625,0.083740234375,0.5970458984375,2.807616949081421,-0.4882812201976776,-0.30517578125
165094,0.0047607421875,0.1065673828125,0.66455078125,3.234863042831421,0.0,-0.54931640625
165111,0.011962890625,0.1270751953125,0.736572265625,3.540038824081421,0.0610351525247097,-0.6103515625
165128,0.0137939453125,0.137939453125,0.7711181640625,4.33349609375,0.2441406100988388,-0.6713866591453552
165176,0.019287109375,0.1676025390625,0.9718017578125,7.995604991912842,-0.30517578125,-0.54931640625
165193,0.0218505859375,0.1591796875,1.02294921875,10.009765625,-1.220703125,-0.3662109076976776
165212,0.0191650390625,0.1324462890625,1.0230712890625,11.901854515075684,-1.5258787870407104,-0.0610351525247097
165228,0.0205078125,0.11083984375,1.0419921875,12.695311546325684,-1.4038084745407104,0.0
165246,0.025146484375,0.0755615234375,1.08251953125,14.038084983825684,-2.01416015625,-0.1220703050494194
165263,0.0263671875,0.0374755859375,1.0732421875,14.709471702575684,-2.25830078125,0.0
165296,0.0355224609375,0.0118408203125,1.055908203125,17.333984375,-2.44140625,-0.30517578125
165313,0.0389404296875,0.0313720703125,1.0528564453125,18.73779296875,-2.868652105331421,-0.7324218153953552
165329,0.03564453125,0.05322265625,1.0093994140625,19.4091796875,-2.990722417831421,-0.7324218153953552
165346,0.0362548828125,0.066650390625,0.9930419921875,20.629880905151367,-2.807616949081421,-0.7934569716453552
165369,0.0386962890625,0.08642578125,0.983642578125,21.545408248901367,-2.624511480331421,-0.54931640625
165381,0.0369873046875,0.088134765625,0.984375,22.033689498901367,-2.563476324081421,-0.3662109076976776
165398,0.0347900390625,0.08203125,0.9913330078125,22.094724655151367,-2.50244140625,-0.30517578125
165413,0.03173828125,0.06787109375,1.0135498046875,21.911619186401367,-2.624511480331421,-0.30517578125
165430,0.0302734375,0.0560302734375,1.0189208984375,21.240232467651367,-2.44140625,-0.54931640625
165446,0.030517578125,0.0582275390625,1.0323486328125,20.751951217651367,-2.3193359375,-0.6713866591453552
165483,0.0260009765625,0.0416259765625,1.0499267578125,19.10400390625,-2.563476324081421,-0.30517578125
165495,0.0162353515625,-0.00537109375,1.0372314453125,17.63916015625,-2.3193359375,-0.2441406100988388
165545,0.0059814453125,-0.0379638671875,1.02734375,12.939452171325684,-1.8920897245407104,-0.6103515625
165611,-0.0072021484375,-0.0230712890625,1.0074462890625,7.995604991912842,-1.15966796875,-0.7934569716453552
165628,-0.0078125,-0.0169677734375,1.011474609375,6.652831554412842,-0.8544921278953552,-0.9155272841453552
165645,-0.0074462890625,0.0015869140625,1.0257568359375,6.042479991912842,-0.7324218153953552,-0.9765624403953552
165665,-0.0052490234375,0.0191650390625,1.0281982421875,4.5166015625,-0.7324218153953552,-0.9765624403953552
165682,-0.0029296875,0.02734375,1.0272216796875,3.662109136581421,-0.54931640625,-0.9155272841453552
165699,-0.001708984375,0.0264892578125,1.02685546875,3.234863042831421,-0.4882812201976776,-0.9765624403953552
165716,-0.0009765625,0.0203857421875,1.02734375,2.44140625,-0.4272460639476776,-0.9155272841453552
165732,0.000732421875,0.0128173828125,1.0255126953125,2.0751953125,-0.4272460639476776,-0.9155272841453552
165744,0.001953125,0.00830078125,1.017822265625,1.15966796875,-0.4272460639476776,-0.9155272841453552
165777,0.007080078125,-0.005126953125,0.991455078125,-0.54931640625,0.0610351525247097,-0.9155272841453552
165794,0.0118408203125,-0.0089111328125,0.993408203125,-1.6479490995407104,0.30517578125,-1.0986328125
165810,0.0166015625,-0.0023193359375,1.008544921875,-2.13623046875,0.3662109076976776,-1.0986328125
165826,0.0177001953125,0.001708984375,1.010986328125,-3.112792730331421,0.4882812201976776,-1.0986328125
165846,0.0177001953125,0.0047607421875,1.0042724609375,-4.0283203125,0.54931640625,-1.0986328125
165868,0.01904296875,0.010009765625,1.006591796875,-4.7607421875,0.8544921278953552,-1.0986328125
165884,0.0228271484375,0.023193359375,1.0303955078125,-5.065917491912842,0.9765624403953552,-1.0986328125
165902,0.0230712890625,0.0281982421875,1.0364990234375,-5.554198741912842,0.7934569716453552,-1.0986328125
165919,0.021240234375,0.0340576171875,1.029541015625,-5.981444835662842,0.7324218153953552,-0.9765624403953552
165952,0.0186767578125,0.0255126953125,1.025390625,-6.530761241912842,1.03759765625,-0.9765624403953552
165969,0.0194091796875,0.0240478515625,1.026123046875,-6.652831554412842,1.03759765625,-1.03759765625
166018,0.01806640625,0.0242919921875,1.0123291015625,-7.568358898162842,1.5869139432907104,-0.7934569716453552
166039,0.0196533203125,0.0250244140625,1.030517578125,-7.690429210662842,1.5869139432907104,-0.7934569716453552
166055,0.0191650390625,0.0281982421875,1.0247802734375,-7.812499523162842,1.5258787870407104,-0.7324218153953552
166071,0.0166015625,0.0340576171875,1.00390625,-7.934569835662842,1.5258787870407104,-0.6713866591453552
166087,0.0162353515625,0.041748046875,1.0035400390625,-8.056640625,1.7700194120407104,-0.6713866591453552
166104,0.0191650390625,0.0557861328125,1.018310546875,-7.934569835662842,1.8920897245407104,-0.3662109076976776
166138,0.0252685546875,0.0570068359375,1.0341796875,-7.629394054412842,1.8920897245407104,-0.1220703050494194
166159,0.0274658203125,0.061767578125,1.041748046875,-7.202147960662842,1.6479490995407104,0.0
166175,0.02587890625,0.063232421875,1.0321044921875,-6.958007335662842,1.5869139432907104,0.0610351525247097
166190,0.0257568359375,0.0615234375,1.029052734375,-6.469726085662842,1.7089842557907104,0.0610351525247097
166256,0.0361328125,0.0455322265625,1.0240478515625,-4.39453125,1.15966796875,0.3662109076976776
166277,0.0350341796875,0.051513671875,1.0164794921875,-3.845214605331421,0.9155272841453552,0.4272460639476776
166293,0.0367431640625,0.066162109375,1.01123046875,-3.540038824081421,0.8544921278953552,0.4882812201976776
166310,0.0360107421875,0.0677490234375,1.0025634765625,-2.807616949081421,0.6103515625,0.7324218153953552
166327,0.0357666015625,0.0714111328125,0.9918212890625,-2.38037109375,0.54931640625,0.8544921278953552
166343,0.03369140625,0.0750732421875,0.9873046875,-1.7089842557907104,0.3662109076976776,0.9155272841453552
166377,0.0262451171875,0.0701904296875,0.96728515625,-0.6103515625,-0.30517578125,1.15966796875
166431,0.037109375,0.048095703125,0.931884765625,-1.03759765625,-1.2817381620407104,1.6479490995407104
166448,0.0303955078125,0.023681640625,0.902587890625,-1.5258787870407104,-1.5258787870407104,1.6479490995407104
166464,0.020751953125,0.01318359375,0.8983154296875,-1.9531248807907104,-1.7089842557907104,1.5869139432907104
166495,0.0106201171875,0.014404296875,0.8529052734375,-3.723144292831421,-2.3193359375,1.5869139432907104
166511,0.0079345703125,0.01171875,0.837890625,-4.33349609375,-2.3193359375,1.5869139432907104
166527,0.0040283203125,0.0069580078125,0.820556640625,-5.615233898162842,-2.0751953125,1.5258787870407104
166565,0.0008544921875,-0.0040283203125,0.8265380859375,-7.690429210662842,-1.6479490995407104,1.3427733182907104
166582,0.00439453125,0.0025634765625,0.836669921875,-8.97216796875,-1.8920897245407104,1.03759765625
166599,0.006591796875,0.0115966796875,0.8016357421875,-10.192870140075684,-2.3193359375,1.0986328125
166615,0.0020751953125,0.0050048828125,0.7371826171875,-10.925292015075684,-2.13623046875,1.03759765625
166632,0.0008544921875,0.0048828125,0.728515625,-12.573241233825684,-0.9155272841453552,0.7934569716453552
166649,0.007568359375,0.022216796875,0.8074951171875,-13.854979515075684,0.30517578125,0.4272460639476776
166685,0.0123291015625,0.07958984375,0.9122314453125,-14.343260765075684,-1.7700194120407104,0.4272460639476776
166706,0.005859375,0.0762939453125,0.8121337890625,-14.526366233825684,-1.6479490995407104,0.4882812201976776
166723,0.0113525390625,0.08056640625,0.8114013671875,-14.709471702575684,-0.1220703050494194,0.3662109076976776
166744,0.02783203125,0.10107421875,0.888916015625,-14.648436546325684,-0.1831054538488388,0.4272460639476776
166760,0.026611328125,0.1109619140625,0.881591796875,-13.671874046325684,-0.6713866591453552,0.3662109076976776
166777,0.028564453125,0.1314697265625,0.9078369140625,-12.023924827575684,-0.4272460639476776,0.30517578125
166794,0.0291748046875,0.134765625,0.945556640625,-11.047362327575684,-0.6103515625,0.4272460639476776
166811,0.0311279296875,0.13818359375,0.9622802734375,-9.09423828125,-0.8544921278953552,0.30517578125
166831,0.036865234375,0.145263671875,1.00341796875,-6.774901866912842,-1.15966796875,0.2441406100988388
166847,0.03662109375,0.1527099609375,1.02099609375,-5.554198741912842,-1.5258787870407104,0.2441406100988388
166866,0.037841796875,0.1484375,1.01708984375,-3.112792730331421,-2.197265625,0.30517578125
166883,0.0347900390625,0.1373291015625,0.973876953125,-1.0986328125,-2.01416015625,0.1220703050494194
166915,0.021484375,0.13427734375,0.976806640625,2.807616949081421,-0.7324218153953552,-0.2441406100988388
166931,0.017333984375,0.1312255859375,0.9952392578125,3.845214605331421,-0.4882812201976776,-0.4272460639476776
166947,0.01318359375,0.13427734375,1.015869140625,5.920409679412842,-0.3662109076976776,-0.4882812201976776
166982,0.02099609375,0.117919921875,0.9832763671875,8.36181640625,0.7324218153953552,-0.9155272841453552
166998,0.0250244140625,0.1290283203125,0.998046875,9.033203125,0.9765624403953552,-1.03759765625
167032,0.03564453125,0.1380615234375,1.0513916015625,11.535643577575684,2.197265625,-1.0986328125
167048,0.0404052734375,0.141357421875,1.069580078125,12.084959983825684,1.8920897245407104,-0.9765624403953552
167065,0.0313720703125,0.1226806640625,1.013671875,13.549803733825684,1.8310545682907104,-0.7324218153953552
167101,0.0238037109375,0.1351318359375,1.0701904296875,14.892577171325684,2.563476324081421,-0.9765624403953552
167117,0.021484375,0.1207275390625,1.051025390625,15.380858421325684,2.3193359375,-0.7934569716453552
167134,0.02197265625,0.1131591796875,1.0208740234375,15.930174827575684,2.38037109375,-0.9765624403953552
167151,0.029296875,0.1025390625,1.016845703125,15.991209983825684,3.295898199081421,-1.0986328125
167217,0.0322265625,0.1162109375,1.15625,17.51708984375,3.356933355331421,-0.7934569716453552
167234,0.0296630859375,0.1094970703125,1.131103515625,17.578125,3.173827886581421,-0.7324218153953552
167253,0.0269775390625,0.0928955078125,1.0938720703125,17.7001953125,4.2724609375,-0.7324218153953552
167269,0.0352783203125,0.100341796875,1.1533203125,17.822265625,4.57763671875,-0.8544921278953552
167287,0.041259765625,0.089599609375,1.18408203125,18.00537109375,4.39453125,-0.6713866591453552
167303,0.040771484375,0.0849609375,1.1607666015625,18.24951171875,3.356933355331421,-0.6103515625
167335,0.0426025390625,0.052734375,1.0633544921875,16.9677734375,4.150390625,-0.6713866591453552
167351,0.045654296875,0.0474853515625,1.096435546875,15.563963890075684,5.065917491912842,-0.6103515625
167368,0.04931640625,0.05517578125,1.1839599609375,14.709471702575684,4.5166015625,-0.4882812201976776
167389,0.0458984375,0.0533447265625,1.1942138671875,14.343260765075684,3.784179449081421,-0.4272460639476776
167404,0.0364990234375,0.0472412109375,1.138427734375,13.305663108825684,2.990722417831421,-0.2441406100988388
167454,0.0506591796875,0.0164794921875,1.111083984375,9.09423828125,3.601073980331421,0.0
167471,0.051513671875,0.02001953125,1.1602783203125,7.690429210662842,2.746581792831421,-0.0610351525247097
167488,0.045166015625,0.026611328125,1.154296875,6.652831554412842,1.6479490995407104,0.0
167523,0.0462646484375,0.01171875,1.15234375,4.82177734375,2.3193359375,0.1220703050494194
167534,0.056640625,-0.0062255859375,1.2117919921875,4.21142578125,2.13623046875,0.1220703050494194
167551,0.060791015625,-0.0069580078125,1.2410888671875,3.540038824081421,1.8920897245407104,0.0
167568,0.058349609375,-0.006591796875,1.228759765625,2.3193359375,0.0,-0.30517578125
167586,0.0516357421875,-0.0035400390625,1.1962890625,1.8310545682907104,-0.1220703050494194,-0.30517578125
167602,0.047607421875,0.0054931640625,1.1627197265625,0.9155272841453552,-0.30517578125,-0.1220703050494194
167634,0.0516357421875,0.00048828125,1.1307373046875,-1.15966796875,-0.1831054538488388,-0.2441406100988388
167650,0.0545654296875,0.0115966796875,1.106689453125,-2.197265625,-0.7324218153953552,-0.30517578125
167666,0.05322265625,0.0238037109375,1.0703125,-2.685546636581421,-0.9155272841453552,-0.3662109076976776
167704,0.052490234375,0.003662109375,1.0537109375,-4.45556640625,-0.6103515625,-0.2441406100988388
167720,0.057861328125,-0.00146484375,1.0946044921875,-4.82177734375,-0.9155272841453552,-0.30517578125
167737,0.0574951171875,0.00439453125,1.10302734375,-5.493163585662842,-1.5869139432907104,-0.4272460639476776
167754,0.05322265625,0.01708984375,1.0870361328125,-5.615233898162842,-2.25830078125,-0.3662109076976776
167770,0.049560546875,0.02587890625,1.0538330078125,-5.737304210662842,-2.13623046875,-0.2441406100988388
167787,0.0511474609375,0.0242919921875,1.0576171875,-5.798339366912842,-2.0751953125,-0.1831054538488388
167819,0.0545654296875,0.0303955078125,1.0921630859375,-5.920409679412842,-2.25830078125,-0.3662109076976776
167835,0.05078125,0.03662109375,1.086669921875,-5.798339366912842,-2.44140625,-0.30517578125
167851,0.041259765625,0.0474853515625,1.06689453125,-5.737304210662842,-2.44140625,-0.1831054538488388
167868,0.0340576171875,0.0504150390625,1.0313720703125,-5.615233898162842,-2.38037109375,0.0
167893,0.034423828125,0.0494384765625,1.0194091796875,-5.615233898162842,-1.7089842557907104,0.0610351525247097
167909,0.0335693359375,0.0523681640625,1.0213623046875,-5.432128429412842,-1.4648436307907104,0.0610351525247097
167938,0.0345458984375,0.0653076171875,1.03125,-4.7607421875,-1.4038084745407104,0.2441406100988388
167954,0.0340576171875,0.0684814453125,1.0147705078125,-4.0283203125,-1.3427733182907104,0.30517578125
167971,0.13720703125,0.0557861328125,1.56103515625,-1.220703125,-3.540038824081421,0.30517578125
167987,0.0928955078125,0.06298828125,1.1199951171875,0.0610351525247097,-6.896972179412842,0.2441406100988388
168061,0.0733642578125,0.0360107421875,1.218017578125,7.385253429412842,-1.7089842557907104,0.1831054538488388
168129,0.03271484375,-0.010986328125,1.0291748046875,8.6669921875,-2.01416015625,0.3662109076976776
168141,0.024658203125,-0.00927734375,0.8983154296875,6.835937023162842,-2.0751953125,-0.1220703050494194
168173,0.040771484375,0.0076904296875,1.1104736328125,5.554198741912842,-0.9765624403953552,0.1831054538488388
168189,0.04150390625,0.0201416015625,0.9744873046875,4.33349609375,-1.4648436307907104,0.1220703050494194
168206,0.0391845703125,0.014892578125,0.988037109375,4.21142578125,-1.220703125,0.30517578125
168242,0.034912109375,0.009765625,1.01611328125,3.234863042831421,-1.03759765625,0.2441406100988388
168258,0.0350341796875,0.0054931640625,1.006591796875,2.563476324081421,-0.8544921278953552,0.3662109076976776
168275,0.0335693359375,0.0018310546875,1.037109375,1.3427733182907104,-0.7934569716453552,0.2441406100988388
168291,0.031982421875,-0.003662109375,1.0205078125,0.6713866591453552,-0.7324218153953552,0.3662109076976776
168309,0.03466796875,-0.0010986328125,1.0302734375,-0.7324218153953552,-0.6713866591453552,0.4272460639476776
168326,0.0369873046875,-0.0009765625,1.0291748046875,-2.3193359375,-0.6103515625,0.4882812201976776
168359,0.03759765625,0.00634765625,1.0284423828125,-4.33349609375,-0.54931640625,0.4272460639476776
168378,0.03076171875,0.009765625,1.0223388671875,-5.0048828125,-0.4272460639476776,0.4882812201976776
168394,0.0325927734375,0.023193359375,1.02783203125,-5.310058116912842,-0.2441406100988388,0.4272460639476776
168411,0.0372314453125,0.0194091796875,1.0272216796875,-5.676269054412842,-0.30517578125,0.6103515625
168428,0.0384521484375,0.0186767578125,1.025390625,-6.225585460662842,-0.30517578125,0.6103515625
168444,0.0343017578125,0.021728515625,1.025634765625,-6.530761241912842,-0.1831054538488388,0.6103515625
168475,0.0318603515625,0.03759765625,1.0235595703125,-6.896972179412842,-0.1831054538488388,0.54931640625
168492,0.0372314453125,0.047607421875,1.025146484375,-6.469726085662842,-0.2441406100988388,0.4272460639476776
168513,0.0386962890625,0.054931640625,1.0306396484375,-6.042479991912842,-0.30517578125,0.54931640625
168529,0.0343017578125,0.0467529296875,1.0228271484375,-5.310058116912842,-0.1220703050494194,0.6713866591453552
168548,0.033447265625,0.050537109375,1.025390625,-4.69970703125,0.0,0.6103515625
168565,0.0335693359375,0.0498046875,1.020751953125,-4.39453125,-0.0610351525247097,0.4882812201976776
168598,0.0361328125,0.0592041015625,1.0235595703125,-2.746581792831421,0.0610351525247097,0.3662109076976776
168614,0.0374755859375,0.06787109375,1.027099609375,-1.5869139432907104,-0.0610351525247097,0.4882812201976776
168631,0.0335693359375,0.0576171875,1.02001953125,-0.6713866591453552,-0.0610351525247097,0.4272460639476776
168652,0.0325927734375,0.0516357421875,1.0208740234375,-0.4272460639476776,0.0,0.4882812201976776
168668,0.0341796875,0.0460205078125,1.0286865234375,-0.0610351525247097,-0.0610351525247097,0.30517578125
168685,0.037353515625,0.0555419921875,1.0225830078125,0.1220703050494194,-0.1220703050494194,0.2441406100988388
168718,0.03662109375,0.0572509765625,1.025634765625,1.0986328125,-0.1220703050494194,0.30517578125
168768,0.0361328125,0.0523681640625,1.0223388671875,2.0751953125,-0.30517578125,0.1831054538488388
168790,0.0364990234375,0.0560302734375,1.0240478515625,2.624511480331421,-0.30517578125,0.1831054538488388
168802,0.0338134765625,0.052978515625,1.024658203125,3.112792730331421,-0.3662109076976776,0.2441406100988388
168835,0.037353515625,0.0518798828125,1.0240478515625,3.479003667831421,-0.3662109076976776,0.1220703050494194
168851,0.037109375,0.0560302734375,1.0234375,4.5166015625,-0.3662109076976776,0.1220703050494194
168868,0.0347900390625,0.0550537109375,1.024169921875,4.94384765625,-0.3662109076976776,0.1220703050494194
168904,0.0355224609375,0.050048828125,1.021240234375,6.652831554412842,-0.4882812201976776,0.0610351525247097
168920,0.0377197265625,0.045654296875,1.0228271484375,6.958007335662842,-0.4882812201976776,0.1220703050494194
168937,0.0361328125,0.038818359375,1.0240478515625,7.324218273162842,-0.3662109076976776,0.0610351525247097
168952,0.0330810546875,0.0362548828125,1.02490234375,7.385253429412842,-0.3662109076976776,0.0
168969,0.032958984375,0.0341796875,1.0260009765625,7.446288585662842,-0.4272460639476776,0.0
169016,0.035400390625,0.0318603515625,1.0260009765625,7.995604991912842,-0.54931640625,0.0
169037,0.033447265625,0.022705078125,1.026123046875,8.1787109375,-0.54931640625,0.0610351525247097
169054,0.0333251953125,0.0174560546875,1.0242919921875,8.11767578125,-0.4882812201976776,0.0
169071,0.0341796875,0.0157470703125,1.0244140625,7.934569835662842,-0.4272460639476776,-0.0610351525247097
169090,0.0340576171875,0.01708984375,1.0274658203125,7.751464366912842,-0.4272460639476776,-0.0610351525247097
169106,0.0321044921875,0.0140380859375,1.0220947265625,7.690429210662842,-0.4882812201976776,-0.0610351525247097
169139,0.033935546875,0.00537109375,1.026123046875,7.385253429412842,-0.4882812201976776,0.0610351525247097
169192,0.0284423828125,-0.001220703125,1.023681640625,6.408690929412842,-0.54931640625,0.0610351525247097
169208,0.0303955078125,-0.000732421875,1.024169921875,5.920409679412842,-0.3662109076976776,0.0
169225,0.03759765625,-0.0001220703125,1.0274658203125,5.737304210662842,-0.30517578125,0.0610351525247097
169258,0.031005859375,-0.0042724609375,1.0242919921875,5.187987804412842,-0.30517578125,0.1220703050494194
169275,0.031494140625,-0.0030517578125,1.0267333984375,4.8828125,-0.1831054538488388,0.1220703050494194
169291,0.0325927734375,-0.0048828125,1.026123046875,4.69970703125,-0.1831054538488388,0.1220703050494194
169308,0.03466796875,-0.0081787109375,1.0286865234375,4.33349609375,-0.1831054538488388,0.1220703050494194
169331,0.032470703125,-0.0064697265625,1.0244140625,4.0283203125,-0.2441406100988388,0.1220703050494194
169364,0.033203125,-0.0047607421875,1.0250244140625,3.845214605331421,-0.3662109076976776,0.1220703050494194
169385,0.0335693359375,-0.005126953125,1.0244140625,3.845214605331421,-0.4272460639476776,0.1220703050494194
169401,0.0335693359375,-0.0089111328125,1.027099609375,3.845214605331421,-0.3662109076976776,0.1831054538488388
169418,0.0321044921875,-0.0120849609375,1.025634765625,3.540038824081421,-0.30517578125,0.2441406100988388
169435,0.0316162109375,-0.015380859375,1.027099609375,3.112792730331421,-0.3662109076976776,0.1831054538488388
169451,0.03173828125,-0.01513671875,1.0272216796875,2.868652105331421,-0.3662109076976776,0.1831054538488388
169467,0.0330810546875,-0.0146484375,1.0245361328125,2.563476324081421,-0.30517578125,0.1831054538488388
169501,0.0333251953125,-0.011962890625,1.02734375,2.13623046875,-0.30517578125,0.1831054538488388
169518,0.03125,-0.013671875,1.024169921875,2.01416015625,-0.30517578125,0.2441406100988388
169535,0.03125,-0.0155029296875,1.026123046875,1.9531248807907104,-0.30517578125,0.2441406100988388
169551,0.0318603515625,-0.0150146484375,1.0250244140625,1.7089842557907104,-0.30517578125,0.2441406100988388
169569,0.03173828125,-0.0146484375,1.0242919921875,1.5258787870407104,-0.1831054538488388,0.2441406100988388
169586,0.031982421875,-0.015380859375,1.0260009765625,1.2817381620407104,-0.1220703050494194,0.30517578125
169616,0.033935546875,-0.015625,1.026123046875,0.9765624403953552,-0.1831054538488388,0.30517578125
169637,0.0318603515625,-0.0135498046875,1.024658203125,0.9155272841453552,-0.1831054538488388,0.2441406100988388
169654,0.031982421875,-0.0125732421875,1.027099609375,0.7934569716453552,-0.1831054538488388,0.2441406100988388
169671,0.0325927734375,-0.01220703125,1.0272216796875,0.7324218153953552,-0.1831054538488388,0.2441406100988388
169690,0.033203125,-0.0130615234375,1.026123046875,0.7324218153953552,-0.1831054538488388,0.2441406100988388
169705,0.032958984375,-0.0115966796875,1.0255126953125,0.7934569716453552,-0.1831054538488388,0.2441406100988388
169741,0.0330810546875,-0.0120849609375,1.026611328125,0.9155272841453552,-0.1831054538488388,0.2441406100988388
169757,0.0323486328125,-0.009033203125,1.02685546875,0.9765624403953552,-0.2441406100988388,0.2441406100988388
169774,0.0313720703125,-0.0084228515625,1.0247802734375,1.4038084745407104,-0.3662109076976776,0.2441406100988388
169791,0.0313720703125,-0.0087890625,1.0240478515625,1.7700194120407104,-0.3662109076976776,0.30517578125
169811,0.032958984375,-0.010009765625,1.02490234375,2.01416015625,-0.3662109076976776,0.1831054538488388
169827,0.0321044921875,-0.008056640625,1.027099609375,2.38037109375,-0.4272460639476776,0.2441406100988388
169860,0.0333251953125,-0.01025390625,1.025634765625,2.990722417831421,-0.30517578125,0.30517578125
169877,0.03173828125,-0.014892578125,1.0234375,3.173827886581421,-0.2441406100988388,0.1831054538488388
169898,0.0313720703125,-0.0164794921875,1.026611328125,3.234863042831421,-0.2441406100988388,0.1220703050494194
169914,0.0321044921875,-0.015625,1.025634765625,3.356933355331421,-0.2441406100988388,0.1220703050494194
169931,0.0343017578125,-0.013671875,1.025146484375,3.540038824081421,-0.30517578125,0.2441406100988388
169948,0.0325927734375,-0.015380859375,1.0283203125,3.662109136581421,-0.30517578125,0.2441406100988388
169964,0.030517578125,-0.021240234375,1.024169921875,3.784179449081421,-0.30517578125,0.1831054538488388
169985,0.029296875,-0.0264892578125,1.02490234375,3.601073980331421,-0.2441406100988388,0.1831054538488388
170002,0.0299072265625,-0.02587890625,1.0247802734375,3.479003667831421,-0.1831054538488388,0.1831054538488388
170019,0.0347900390625,-0.022705078125,1.025634765625,3.295898199081421,-0.1831054538488388,0.1831054538488388
170040,0.0328369140625,-0.0267333984375,1.0303955078125,3.173827886581421,-0.3662109076976776,0.3662109076976776
170056,0.0281982421875,-0.031982421875,1.020751953125,2.929687261581421,-0.30517578125,0.30517578125
170073,0.0289306640625,-0.0333251953125,1.0220947265625,2.44140625,0.0,0.2441406100988388
170090,0.0328369140625,-0.02880859375,1.0279541015625,2.3193359375,0.0610351525247097,0.2441406100988388
170109,0.034423828125,-0.022705078125,1.027587890625,2.13623046875,0.0610351525247097,0.1220703050494194
170125,0.03125,-0.022216796875,1.0230712890625,2.25830078125,0.0610351525247097,0.1831054538488388
170155,0.02880859375,-0.0321044921875,1.025634765625,2.197265625,0.0,0.30517578125
170175,0.031005859375,-0.0311279296875,1.0250244140625,2.01416015625,0.2441406100988388,0.2441406100988388
170191,0.0343017578125,-0.028076171875,1.0223388671875,2.01416015625,0.2441406100988388,0.30517578125
170208,0.03369140625,-0.0308837890625,1.0302734375,2.01416015625,0.2441406100988388,0.30517578125
170227,0.03173828125,-0.032958984375,1.0296630859375,1.5869139432907104,0.1831054538488388,0.30517578125
170244,0.029296875,-0.0374755859375,1.0240478515625,1.0986328125,0.0,0.3662109076976776
170275,0.035400390625,-0.0433349609375,1.0274658203125,-0.1831054538488388,0.0,0.30517578125
170297,0.034912109375,-0.0369873046875,1.0269775390625,-1.15966796875,0.1220703050494194,0.30517578125
170313,0.03125,-0.030029296875,1.0269775390625,-1.7089842557907104,0.1831054538488388,0.6103515625
170330,0.0296630859375,-0.04541015625,1.02490234375,-2.0751953125,0.2441406100988388,0.7324218153953552
170395,0.030517578125,-0.030029296875,1.02490234375,-5.249022960662842,0.1220703050494194,0.54931640625
170417,0.03173828125,-0.0244140625,1.023681640625,-5.920409679412842,0.30517578125,0.54931640625
170433,0.03515625,-0.02392578125,1.0267333984375,-6.347655773162842,0.2441406100988388,0.6103515625
170450,0.0345458984375,-0.016357421875,1.023681640625,-6.469726085662842,0.1831054538488388,0.4882812201976776
170469,0.0362548828125,-0.0120849609375,1.025634765625,-6.469726085662842,0.3662109076976776,0.54931640625
170486,0.0364990234375,-0.00830078125,1.0234375,-6.347655773162842,0.54931640625,0.4882812201976776
170519,0.029541015625,-0.00048828125,1.024658203125,-5.676269054412842,1.220703125,0.30517578125
170535,0.02880859375,0.0042724609375,1.0181884765625,-5.371093273162842,1.6479490995407104,0.2441406100988388
170555,0.0330810546875,0.00732421875,1.02978515625,-4.8828125,2.624511480331421,0.3662109076976776
170571,0.031494140625,0.0052490234375,1.035888671875,-4.57763671875,3.356933355331421,0.3662109076976776
170588,0.03466796875,0.0081787109375,1.0828857421875,-4.21142578125,4.39453125,0.2441406100988388
170605,0.032958984375,0.0142822265625,1.1162109375,-5.310058116912842,5.126952648162842,0.4882812201976776
170634,0.0675048828125,0.002685546875,1.57373046875,-10.070799827575684,2.44140625,0.7934569716453552
170651,0.070556640625,0.0302734375,1.565185546875,-12.390135765075684,0.1220703050494194,0.1831054538488388
170667,0.07470703125,0.07080078125,1.46728515625,-13.793944358825684,-0.1220703050494194,0.54931640625
170700,0.085693359375,0.0552978515625,1.43505859375,-18.4326171875,0.7324218153953552,1.4648436307907104
170721,0.0880126953125,0.0518798828125,1.45849609375,-19.34814453125,0.6103515625,1.220703125
170737,0.0897216796875,0.0821533203125,1.483642578125,-20.263669967651367,-0.1831054538488388,1.3427733182907104
170753,0.078369140625,0.097900390625,1.45263671875,-20.568845748901367,-1.4038084745407104,1.4038084745407104
170769,0.0693359375,0.09228515625,1.3768310546875,-20.263669967651367,-1.5869139432907104,1.6479490995407104
170786,0.0704345703125,0.0855712890625,1.3577880859375,-20.568845748901367,-1.220703125,1.7700194120407104
170820,0.073486328125,0.1019287109375,1.3642578125,-19.83642578125,-1.8920897245407104,1.5258787870407104
170841,0.068603515625,0.11767578125,1.3460693359375,-18.98193359375,-2.01416015625,1.5258787870407104
170857,0.0631103515625,0.1419677734375,1.3438720703125,-16.90673828125,-2.3193359375,1.6479490995407104
170874,0.0595703125,0.142822265625,1.3287353515625,-15.014647483825684,-2.13623046875,1.7089842557907104
170891,0.05908203125,0.1566162109375,1.361328125,-13.854979515075684,-2.25830078125,1.5869139432907104
170906,0.0523681640625,0.15869140625,1.3348388671875,-11.779784202575684,-3.295898199081421,1.7089842557907104
170940,0.0421142578125,0.1456298828125,1.218994140625,-7.751464366912842,-3.784179449081421,1.4648436307907104
170956,0.0404052734375,0.158447265625,1.2081298828125,-6.835937023162842,-3.356933355331421,1.4038084745407104
170972,0.0347900390625,0.1549072265625,1.2264404296875,-5.187987804412842,-3.662109136581421,1.4648436307907104
170988,0.0262451171875,0.165283203125,1.1807861328125,-4.57763671875,-4.150390625,1.4038084745407104
171008,0.0169677734375,0.139892578125,1.087890625,-3.051757574081421,-4.69970703125,1.6479490995407104
171025,0.014404296875,0.13671875,1.053466796875,-2.38037109375,-3.967284917831421,1.4648436307907104
171041,0.0133056640625,0.124755859375,1.052978515625,-1.9531248807907104,-3.601073980331421,1.4648436307907104
171058,0.0064697265625,0.1251220703125,1.008056640625,-1.4038084745407104,-4.08935546875,1.4648436307907104
171075,0.0030517578125,0.1170654296875,0.9739990234375,-0.54931640625,-4.21142578125,1.5258787870407104
171092,-0.002685546875,0.114990234375,0.9029541015625,0.3662109076976776,-3.601073980331421,1.5869139432907104
171113,-0.0001220703125,0.109130859375,0.8792724609375,0.7324218153953552,-3.479003667831421,1.6479490995407104
171129,-0.005126953125,0.0858154296875,0.78466796875,1.5869139432907104,-4.0283203125,1.8920897245407104
171146,-0.0076904296875,0.0718994140625,0.728759765625,1.5869139432907104,-4.0283203125,2.01416015625
171181,-0.0054931640625,0.0426025390625,0.560791015625,0.9765624403953552,-2.807616949081421,1.8310545682907104
171230,-0.004150390625,0.0391845703125,0.4969482421875,0.2441406100988388,-1.9531248807907104,2.01416015625
171264,-0.00439453125,0.03564453125,0.4481201171875,-0.0610351525247097,-1.03759765625,2.01416015625
171309,-0.001708984375,0.0382080078125,0.4520263671875,0.0,-0.4272460639476776,2.13623046875
171321,0.0018310546875,0.0479736328125,0.4862060546875,0.3662109076976776,0.3662109076976776,2.13623046875
171354,0.01220703125,0.0699462890625,0.5787353515625,0.9765624403953552,0.1220703050494194,2.25830078125
171371,0.010009765625,0.0703125,0.5794677734375,1.6479490995407104,0.0610351525247097,2.38037109375
171388,0.010498046875,0.0736083984375,0.5894775390625,1.6479490995407104,0.4272460639476776,2.38037109375
171420,0.0211181640625,0.095703125,0.7755126953125,2.38037109375,1.4038084745407104,2.990722417831421
171437,0.023193359375,0.09619140625,0.83447265625,2.746581792831421,1.4648436307907104,3.295898199081421
171456,0.0225830078125,0.061767578125,0.935791015625,3.845214605331421,1.2817381620407104,3.662109136581421
171472,0.03076171875,0.0443115234375,1.043701171875,4.39453125,1.3427733182907104,3.723144292831421
171489,0.0377197265625,0.0269775390625,1.098388671875,5.676269054412842,0.7934569716453552,4.08935546875
171506,0.0462646484375,0.006103515625,1.128173828125,6.835937023162842,-0.2441406100988388,4.2724609375
171543,0.0426025390625,0.008056640625,1.1143798828125,9.09423828125,-0.30517578125,3.967284917831421
171560,0.0343017578125,0.036376953125,1.091796875,9.765625,-0.4272460639476776,3.845214605331421
171576,0.0318603515625,0.0615234375,1.08642578125,11.291502952575684,-0.3662109076976776,3.601073980331421
171592,0.0257568359375,0.084716796875,1.060302734375,12.634276390075684,-0.7324218153953552,3.784179449081421
171615,0.0169677734375,0.0858154296875,1.0115966796875,13.305663108825684,-0.7324218153953552,3.784179449081421
171631,0.0125732421875,0.0745849609375,0.9853515625,14.343260765075684,-0.4272460639476776,3.723144292831421
171648,0.011474609375,0.0726318359375,0.9786376953125,15.197752952575684,-0.1220703050494194,3.356933355331421
171667,0.0096435546875,0.072998046875,0.9781494140625,15.808104515075684,0.0,3.112792730331421
171683,0.0052490234375,0.0648193359375,0.9764404296875,16.05224609375,0.0,3.051757574081421
171717,0.0072021484375,0.048583984375,0.9874267578125,16.66259765625,0.30517578125,2.807616949081421
171733,0.008056640625,0.03369140625,0.9998779296875,16.66259765625,0.3662109076976776,2.746581792831421
171754,0.0098876953125,0.025390625,1.009521484375,16.66259765625,0.3662109076976776,2.624511480331421
171770,0.0137939453125,0.0128173828125,1.02197265625,16.6015625,0.3662109076976776,2.38037109375
171787,0.0126953125,0.0069580078125,1.027099609375,16.41845703125,0.4272460639476776,2.25830078125
171804,0.015625,-0.0015869140625,1.026123046875,16.17431640625,0.54931640625,2.197265625
171835,0.0242919921875,-0.011474609375,1.054443359375,14.587401390075684,0.8544921278953552,1.9531248807907104
171851,0.028076171875,-0.0118408203125,1.0611572265625,14.160155296325684,0.7324218153953552,1.8310545682907104
171868,0.029296875,-0.010986328125,1.05517578125,13.305663108825684,0.4882812201976776,1.7700194120407104
171889,0.0328369140625,-0.0096435546875,1.0299072265625,12.329100608825684,0.4272460639476776,1.7089842557907104
171907,0.03515625,-0.0126953125,1.0103759765625,11.047362327575684,0.6713866591453552,1.5869139432907104
171923,0.03662109375,-0.0115966796875,1.0162353515625,10.375975608825684,0.8544921278953552,1.5258787870407104
171956,0.037841796875,-0.013671875,1.0234375,8.36181640625,0.7934569716453552,1.3427733182907104
171973,0.038818359375,-0.01953125,1.017333984375,6.286620616912842,0.6103515625,1.3427733182907104
171990,0.038818359375,-0.021240234375,1.01416015625,5.615233898162842,0.54931640625,1.3427733182907104
172006,0.0386962890625,-0.028564453125,1.012451171875,4.21142578125,0.4882812201976776,1.15966796875
172026,0.036865234375,-0.0340576171875,1.01806640625,2.868652105331421,0.4272460639476776,1.15966796875
172048,0.0335693359375,-0.04296875,1.028564453125,1.5869139432907104,0.30517578125,1.0986328125
172064,0.032958984375,-0.043701171875,1.03564453125,0.9765624403953552,0.1831054538488388,0.9765624403953552
172083,0.0323486328125,-0.0400390625,1.033447265625,-0.1220703050494194,0.0,0.7934569716453552
172100,0.0303955078125,-0.0277099609375,1.0267333984375,-1.0986328125,-0.1831054538488388,0.7324218153953552
172133,0.024169921875,-0.0145263671875,1.0028076171875,-2.38037109375,-0.4882812201976776,0.54931640625
172201,0.0308837890625,-0.0050048828125,0.95166015625,-3.540038824081421,-0.6103515625,0.3662109076976776
172217,0.0350341796875,0.007080078125,0.9251708984375,-3.479003667831421,-0.9155272841453552,0.4272460639476776
172234,0.035888671875,0.013427734375,0.9002685546875,-3.295898199081421,-1.03759765625,0.6103515625
172251,0.031982421875,0.0118408203125,0.892333984375,-3.051757574081421,-1.03759765625,0.6713866591453552
172270,0.0201416015625,0.00830078125,0.8875732421875,-2.563476324081421,-0.9155272841453552,0.6103515625
172286,0.01318359375,0.0081787109375,0.9013671875,-1.7700194120407104,-0.6103515625,0.54931640625
172320,0.010009765625,0.013671875,0.928955078125,-0.4272460639476776,-0.6713866591453552,0.3662109076976776
172341,0.00732421875,0.0054931640625,0.916015625,0.30517578125,-0.54931640625,0.4272460639476776
172357,0.0091552734375,-0.0093994140625,0.919921875,0.4882812201976776,-0.2441406100988388,0.3662109076976776
172374,0.012939453125,-0.0145263671875,0.943359375,0.54931640625,-0.0610351525247097,0.1220703050494194
172391,0.0128173828125,-0.016845703125,0.9461669921875,0.30517578125,-0.1831054538488388,0.0
172406,0.0130615234375,-0.0172119140625,0.947265625,0.1831054538488388,-0.30517578125,0.0
172440,0.005126953125,-0.027099609375,0.909423828125,-1.3427733182907104,-0.2441406100988388,-0.1220703050494194
172456,0.00830078125,-0.0328369140625,0.9266357421875,-2.563476324081421,0.2441406100988388,-0.1831054538488388
172472,0.0123291015625,-0.0316162109375,0.96728515625,-3.173827886581421,0.1220703050494194,-0.1831054538488388
172489,0.010986328125,-0.0311279296875,0.9693603515625,-4.45556640625,-0.4272460639476776,-0.2441406100988388
172514,0.0057373046875,-0.02783203125,0.9365234375,-5.676269054412842,-0.8544921278953552,-0.3662109076976776
172529,0.0013427734375,-0.0235595703125,0.890869140625,-7.080077648162842,-0.6103515625,-0.3662109076976776
172546,0.00390625,-0.0220947265625,0.895751953125,-7.873534679412842,-0.3662109076976776,-0.3662109076976776
172565,0.006103515625,-0.027099609375,0.910400390625,-9.27734375,-0.2441406100988388,-0.30517578125
172582,0.008544921875,-0.031494140625,0.9451904296875,-10.559081077575684,-0.4882812201976776,-0.4272460639476776
172615,-0.0020751953125,-0.005859375,0.9031982421875,-12.268065452575684,-1.03759765625,-0.7934569716453552
172631,-0.004150390625,0.0013427734375,0.889892578125,-12.634276390075684,-0.7324218153953552,-0.7934569716453552
172648,-0.0025634765625,0.009521484375,0.9034423828125,-13.122557640075684,0.0610351525247097,-0.8544921278953552
172669,0.0048828125,0.0203857421875,0.9827880859375,-13.122557640075684,0.1220703050494194,-0.9155272841453552
172688,0.0076904296875,0.0274658203125,1.0360107421875,-12.939452171325684,-0.30517578125,-0.9765624403953552
172704,0.0035400390625,0.0367431640625,0.99169921875,-12.207030296325684,-1.4648436307907104,-1.220703125
172737,0.00830078125,0.051513671875,0.9091796875,-11.352538108825684,-1.4648436307907104,-1.5258787870407104
172754,0.013671875,0.0560302734375,0.9466552734375,-11.108397483825684,-0.4882812201976776,-1.5258787870407104
172771,0.0125732421875,0.0589599609375,0.9708251953125,-10.375975608825684,-0.3662109076976776,-1.7089842557907104
172808,0.0047607421875,0.0838623046875,0.966796875,-8.056640625,-1.220703125,-2.0751953125
172854,0.0115966796875,0.1019287109375,0.9720458984375,-5.859374523162842,0.3662109076976776,-2.25830078125
172987,0.031005859375,0.10546875,1.0572509765625,1.7700194120407104,3.479003667831421,-3.356933355331421
173004,0.0347900390625,0.1051025390625,1.0618896484375,2.929687261581421,2.929687261581421,-3.356933355331421
173037,0.0279541015625,0.1112060546875,1.002685546875,4.94384765625,2.624511480331421,-3.417968511581421
173071,0.038818359375,0.1099853515625,1.070068359375,7.385253429412842,3.417968511581421,-3.051757574081421
173113,0.0660400390625,0.087646484375,1.1712646484375,9.1552734375,2.25830078125,-2.990722417831421
173130,0.0577392578125,0.09130859375,1.1644287109375,9.6435546875,1.8310545682907104,-2.990722417831421
173147,0.050537109375,0.087646484375,1.1494140625,10.559081077575684,1.220703125,-2.807616949081421
173199,0.0469970703125,0.058837890625,1.1103515625,10.437010765075684,0.54931640625,-2.50244140625
173231,0.0465087890625,0.069091796875,1.11083984375,10.131834983825684,0.4272460639476776,-2.38037109375
173248,0.044921875,0.0648193359375,1.1041259765625,10.009765625,0.3662109076976776,-2.25830078125
173265,0.0445556640625,0.0614013671875,1.1021728515625,9.6435546875,0.1831054538488388,-2.01416015625
173285,0.0379638671875,0.048095703125,1.061279296875,8.72802734375,0.4882812201976776,-1.8310545682907104
173302,0.035888671875,0.0474853515625,1.0482177734375,7.934569835662842,0.7324218153953552,-1.5869139432907104
173319,0.0379638671875,0.046630859375,1.05615234375,6.958007335662842,1.4648436307907104,-1.4648436307907104
173335,0.0439453125,0.048095703125,1.0888671875,6.591796398162842,1.5258787870407104,-1.3427733182907104
173355,0.0477294921875,0.0443115234375,1.10107421875,5.920409679412842,1.3427733182907104,-1.220703125
173372,0.05322265625,0.0521240234375,1.1097412109375,5.676269054412842,1.0986328125,-1.03759765625
173389,0.052490234375,0.0550537109375,1.109619140625,5.493163585662842,0.9765624403953552,-0.9155272841453552
173407,0.0511474609375,0.0498046875,1.15576171875,5.187987804412842,1.3427733182907104,-0.6713866591453552
173423,0.0516357421875,0.0496826171875,1.1851806640625,5.310058116912842,1.03759765625,-0.6713866591453552
173456,0.05126953125,0.0650634765625,1.18408203125,5.920409679412842,-0.6103515625,-0.54931640625
173473,0.04736328125,0.06396484375,1.154052734375,6.164550304412842,-1.0986328125,-0.30517578125
173484,0.047119140625,0.0574951171875,1.134765625,6.286620616912842,-1.03759765625,-0.30517578125
173518,0.04931640625,0.0518798828125,1.1673583984375,5.920409679412842,-1.4038084745407104,-0.0610351525247097
173533,0.0484619140625,0.05419921875,1.169921875,5.920409679412842,-1.8920897245407104,-0.0610351525247097
173550,0.0413818359375,0.0562744140625,1.134033203125,5.676269054412842,-2.44140625,0.1831054538488388
173566,0.0347900390625,0.04248046875,1.0894775390625,5.554198741912842,-2.50244140625,0.3662109076976776
173585,0.035888671875,0.0306396484375,1.105224609375,4.82177734375,-2.01416015625,0.3662109076976776
173607,0.0369873046875,0.031982421875,1.1290283203125,4.39453125,-1.9531248807907104,0.3662109076976776
173623,0.0355224609375,0.0350341796875,1.145751953125,4.150390625,-2.624511480331421,0.3662109076976776
173644,0.0299072265625,0.03369140625,1.1029052734375,4.150390625,-3.173827886581421,0.4882812201976776
173656,0.0191650390625,0.022705078125,1.035400390625,3.906249761581421,-2.929687261581421,0.54931640625
173672,0.018310546875,0.017578125,1.04296875,3.173827886581421,-1.7089842557907104,0.6713866591453552
173689,0.0167236328125,0.0152587890625,1.0933837890625,2.624511480331421,-1.5869139432907104,0.6713866591453552
173708,0.0126953125,0.0186767578125,1.0849609375,2.44140625,-2.01416015625,0.7934569716453552
173725,0.0125732421875,0.021240234375,1.062744140625,2.44140625,-2.01416015625,0.8544921278953552
173745,0.011962890625,0.0179443359375,1.01708984375,2.0751953125,-1.220703125,0.9765624403953552
173764,0.018310546875,0.0089111328125,1.03564453125,1.6479490995407104,-0.6713866591453552,1.03759765625
173781,0.0186767578125,0.0042724609375,1.041748046875,1.220703125,-0.6713866591453552,1.0986328125
173814,0.0162353515625,0.0103759765625,1.0040283203125,0.1220703050494194,-0.54931640625,1.15966796875
173831,0.010986328125,0.019287109375,0.9847412109375,-0.1220703050494194,-0.0610351525247097,1.3427733182907104
173847,-0.024169921875,0.0242919921875,0.8465576171875,0.4272460639476776,1.15966796875,1.5258787870407104
173881,0.03662109375,0.0096435546875,0.914794921875,2.0751953125,8.9111328125,1.8310545682907104
173897,0.0447998046875,0.0113525390625,0.955322265625,0.3662109076976776,8.544921875,2.0751953125
173914,0.046875,0.005615234375,0.9873046875,0.1220703050494194,7.568358898162842,2.0751953125
173930,0.088623046875,-0.0277099609375,1.5028076171875,-0.1220703050494194,7.263183116912842,2.0751953125
173997,0.0029296875,0.0574951171875,0.520263671875,-4.150390625,3.967284917831421,0.9765624403953552
174018,0.0511474609375,0.0078125,1.3856201171875,4.5166015625,1.5869139432907104,1.0986328125
174034,0.05126953125,-0.0584716796875,1.3243408203125,4.638671875,-3.906249761581421,0.9155272841453552
174046,0.0213623046875,-0.04052734375,0.62890625,1.7700194120407104,-2.38037109375,0.1220703050494194
174066,0.0372314453125,-0.032470703125,0.9462890625,1.03759765625,0.9155272841453552,-0.0610351525247097
174083,0.0521240234375,0.02587890625,1.1871337890625,0.54931640625,-1.8920897245407104,-0.2441406100988388
174116,0.0230712890625,0.017578125,0.98046875,1.3427733182907104,-0.6103515625,0.6713866591453552
174132,0.0289306640625,-0.032470703125,1.0784912109375,0.0610351525247097,-1.220703125,0.8544921278953552
174148,0.0380859375,-0.0455322265625,0.9769287109375,-0.9155272841453552,-1.220703125,0.4882812201976776
174186,0.0384521484375,0.0130615234375,1.031494140625,-3.845214605331421,-0.9155272841453552,0.1831054538488388
174202,0.031005859375,0.03125,1.02294921875,-3.723144292831421,-0.7934569716453552,0.30517578125
174219,0.029541015625,0.01953125,1.0401611328125,-3.112792730331421,-0.54931640625,0.6713866591453552
174233,0.032470703125,-0.0030517578125,1.0142822265625,-3.051757574081421,-0.54931640625,0.6103515625
174250,0.037841796875,-0.0023193359375,1.028076171875,-3.295898199081421,-0.54931640625,0.4272460639476776
174267,0.03759765625,0.0064697265625,1.031005859375,-3.173827886581421,-0.54931640625,0.30517578125
174295,0.032958984375,0.024658203125,1.0284423828125,-2.197265625,-0.4272460639476776,0.4882812201976776
174317,0.0343017578125,0.017822265625,1.023681640625,-1.8920897245407104,-0.4272460639476776,0.54931640625
174333,0.035400390625,-0.0018310546875,1.02685546875,-1.9531248807907104,-0.3662109076976776,0.54931640625
174345,0.032470703125,0.0068359375,1.022705078125,-2.50244140625,-0.30517578125,0.3662109076976776
174366,0.031982421875,0.017333984375,1.0274658203125,-2.624511480331421,-0.2441406100988388,0.2441406100988388
174381,0.0341796875,0.0350341796875,1.0230712890625,-2.44140625,-0.2441406100988388,0.2441406100988388
174398,0.03564453125,0.03173828125,1.021240234375,-1.4648436307907104,-0.30517578125,0.4882812201976776
174415,0.0347900390625,0.02685546875,1.0274658203125,-0.7324218153953552,-0.2441406100988388,0.4272460639476776
174432,0.0335693359375,0.0166015625,1.0244140625,-0.1220703050494194,-0.30517578125,0.2441406100988388
174451,0.0340576171875,0.021240234375,1.0272216796875,0.1220703050494194,-0.30517578125,0.1220703050494194
174467,0.0350341796875,0.0311279296875,1.0224609375,0.9155272841453552,-0.2441406100988388,0.1831054538488388
174481,0.033935546875,0.0362548828125,1.0281982421875,1.8310545682907104,-0.2441406100988388,0.30517578125
174498,0.0328369140625,0.0267333984375,1.0235595703125,2.197265625,-0.1831054538488388,0.30517578125
174531,0.037109375,0.017333984375,1.023681640625,2.807616949081421,-0.1831054538488388,0.1220703050494194
174550,0.033935546875,0.0263671875,1.0257568359375,3.051757574081421,-0.1831054538488388,0.0610351525247097
174566,0.03271484375,0.0260009765625,1.029296875,3.784179449081421,-0.4272460639476776,0.1220703050494194
174602,0.0343017578125,0.021728515625,1.0233154296875,4.8828125,-0.54931640625,0.1220703050494194
174652,0.0340576171875,0.022216796875,1.0267333984375,6.530761241912842,-0.54931640625,-0.0610351525247097
174671,0.03271484375,0.0213623046875,1.0230712890625,7.385253429412842,-0.4882812201976776,0.0
174687,0.03271484375,0.016845703125,1.021240234375,8.11767578125,-0.54931640625,0.0610351525247097
174721,0.032958984375,0.002197265625,1.029296875,8.6669921875,-0.4272460639476776,-0.0610351525247097
174737,0.03173828125,0.0023193359375,1.026123046875,9.033203125,-0.3662109076976776,-0.1220703050494194
174754,0.0333251953125,0.005126953125,1.0223388671875,9.27734375,-0.3662109076976776,-0.1220703050494194
174771,0.0343017578125,0.0029296875,1.0240478515625,9.8876953125,-0.4882812201976776,-0.1220703050494194
174790,0.033935546875,-0.0023193359375,1.0281982421875,10.375975608825684,-0.6103515625,-0.0610351525247097
174806,0.0330810546875,-0.012939453125,1.0220947265625,10.498045921325684,-0.6103515625,-0.1220703050494194
174839,0.0311279296875,-0.019287109375,1.0291748046875,10.437010765075684,-0.54931640625,-0.1220703050494194
174855,0.0323486328125,-0.01953125,1.0252685546875,10.375975608825684,-0.6103515625,-0.1220703050494194
174872,0.0338134765625,-0.0247802734375,1.02685546875,10.192870140075684,-0.6103515625,-0.1831054538488388
174893,0.033203125,-0.0257568359375,1.0269775390625,10.070799827575684,-0.6713866591453552,-0.1220703050494194
174910,0.0311279296875,-0.0341796875,1.02734375,9.82666015625,-0.6713866591453552,-0.0610351525247097
174927,0.0289306640625,-0.0369873046875,1.0228271484375,9.46044921875,-0.6103515625,-0.0610351525247097
174963,0.0330810546875,-0.040771484375,1.0262451171875,8.85009765625,-0.7324218153953552,-0.0610351525247097
174980,0.0321044921875,-0.045166015625,1.026123046875,8.6669921875,-0.6713866591453552,-0.0610351525247097
174997,0.0299072265625,-0.0477294921875,1.0252685546875,8.1787109375,-0.4882812201976776,-0.0610351525247097
175016,0.0301513671875,-0.0516357421875,1.0252685546875,7.690429210662842,-0.3662109076976776,0.0610351525247097
175033,0.032470703125,-0.0517578125,1.02392578125,7.446288585662842,-0.4272460639476776,0.0610351525247097
175045,0.031982421875,-0.052734375,1.0233154296875,6.958007335662842,-0.4272460639476776,0.0
175078,0.029541015625,-0.055908203125,1.02294921875,6.469726085662842,-0.4882812201976776,0.1220703050494194
175095,0.028564453125,-0.0545654296875,1.027587890625,6.164550304412842,-0.4272460639476776,0.2441406100988388
175127,0.033203125,-0.0692138671875,1.0233154296875,4.94384765625,-0.4272460639476776,0.2441406100988388
175148,0.0313720703125,-0.075927734375,1.0233154296875,3.845214605331421,-0.30517578125,0.1220703050494194
175169,0.0267333984375,-0.063720703125,1.0234375,2.990722417831421,-0.2441406100988388,0.1220703050494194
175186,0.028076171875,-0.060546875,1.0263671875,2.746581792831421,-0.2441406100988388,0.1831054538488388
175205,0.0318603515625,-0.0654296875,1.0230712890625,2.25830078125,-0.30517578125,0.2441406100988388
175222,0.0311279296875,-0.0733642578125,1.024169921875,1.5869139432907104,-0.30517578125,0.30517578125
175268,0.0289306640625,-0.0693359375,1.0238037109375,-0.9155272841453552,-0.1220703050494194,0.30517578125
175330,0.0302734375,-0.0631103515625,1.0245361328125,-2.50244140625,-0.0610351525247097,0.4272460639476776
175347,0.029541015625,-0.06201171875,1.021484375,-2.746581792831421,-0.1220703050494194,0.4272460639476776
175364,0.02978515625,-0.0550537109375,1.0247802734375,-3.051757574081421,0.0,0.4272460639476776
175384,0.031982421875,-0.05126953125,1.0247802734375,-3.234863042831421,0.0610351525247097,0.4882812201976776
175401,0.0321044921875,-0.051513671875,1.0267333984375,-3.295898199081421,0.0610351525247097,0.4882812201976776
175418,0.02978515625,-0.051513671875,1.02587890625,-3.356933355331421,0.0610351525247097,0.4882812201976776
175434,0.0301513671875,-0.0467529296875,1.0244140625,-3.295898199081421,0.0,0.4272460639476776
175456,0.031005859375,-0.0423583984375,1.0244140625,-3.112792730331421,-0.0610351525247097,0.4272460639476776
175489,0.030517578125,-0.038330078125,1.026123046875,-2.13623046875,-0.1220703050494194,0.4882812201976776
175508,0.0321044921875,-0.041015625,1.028564453125,-1.9531248807907104,-0.1220703050494194,0.4882812201976776
175554,0.0316162109375,-0.0377197265625,1.0205078125,-1.3427733182907104,-0.1831054538488388,0.30517578125
175571,0.0321044921875,-0.0343017578125,1.0230712890625,-1.03759765625,-0.2441406100988388,0.30517578125
175608,0.032470703125,-0.031982421875,1.02783203125,0.0,-0.30517578125,0.2441406100988388
175622,0.031494140625,-0.039794921875,1.0244140625,0.4882812201976776,-0.30517578125,0.3662109076976776
175639,0.031005859375,-0.040771484375,1.0238037109375,0.8544921278953552,-0.30517578125,0.2441406100988388
175672,0.03076171875,-0.0401611328125,1.0233154296875,0.9765624403953552,-0.2441406100988388,0.30517578125
175691,0.0311279296875,-0.0390625,1.0223388671875,1.03759765625,-0.1831054538488388,0.2441406100988388
175707,0.0311279296875,-0.0399169921875,1.027099609375,1.15966796875,-0.1220703050494194,0.30517578125
175728,0.0301513671875,-0.0419921875,1.0244140625,1.15966796875,-0.0610351525247097,0.30517578125
175746,0.031005859375,-0.04443359375,1.026123046875,1.15966796875,-0.1220703050494194,0.30517578125
175757,0.033935546875,-0.0435791015625,1.0262451171875,1.03759765625,-0.1831054538488388,0.1831054538488388
175791,0.0294189453125,-0.0465087890625,1.02587890625,0.7324218153953552,-0.2441406100988388,0.3662109076976776
175809,0.02734375,-0.053466796875,1.02392578125,0.1831054538488388,-0.0610351525247097,0.4272460639476776
175825,0.0321044921875,-0.050537109375,1.0242919921875,-0.3662109076976776,0.1831054538488388,0.3662109076976776
175863,0.0335693359375,-0.0391845703125,1.0250244140625,-0.6103515625,0.0,0.3662109076976776
175879,0.0272216796875,-0.0306396484375,1.0225830078125,-0.4272460639476776,0.0,0.3662109076976776
175896,0.0299072265625,-0.03515625,1.029541015625,0.0,0.0610351525247097,0.3662109076976776
175913,0.0333251953125,-0.04052734375,1.0281982421875,0.2441406100988388,-0.1220703050494194,0.4272460639476776
175929,0.0347900390625,-0.05126953125,1.0240478515625,0.1831054538488388,-0.1831054538488388,0.4272460639476776
175946,0.030029296875,-0.04931640625,1.0260009765625,-0.6103515625,0.0610351525247097,0.30517578125
175980,0.03076171875,-0.039306640625,1.0289306640625,-0.9155272841453552,0.0610351525247097,0.30517578125
175999,0.031005859375,-0.0345458984375,1.0224609375,-0.9155272841453552,0.0,0.3662109076976776
176015,0.03369140625,-0.03662109375,1.025634765625,-0.8544921278953552,0.0,0.4272460639476776
176032,0.0321044921875,-0.0419921875,1.0244140625,-0.7934569716453552,0.1220703050494194,0.4272460639476776
176049,0.0291748046875,-0.0408935546875,1.0238037109375,-0.9155272841453552,0.1220703050494194,0.4272460639476776
176065,0.0318603515625,-0.0430908203125,1.0242919921875,-1.0986328125,0.2441406100988388,0.4882812201976776
176099,0.0345458984375,-0.040283203125,1.02734375,-1.7700194120407104,0.1831054538488388,0.4272460639476776
176115,0.0313720703125,-0.038818359375,1.0264892578125,-1.8920897245407104,0.1831054538488388,0.4272460639476776
176131,0.029541015625,-0.0379638671875,1.0244140625,-2.197265625,0.2441406100988388,0.4272460639476776
176148,0.0301513671875,-0.0360107421875,1.0234375,-2.25830078125,0.1831054538488388,0.4272460639476776
176173,0.0338134765625,-0.031494140625,1.025390625,-2.197265625,0.1220703050494194,0.4882812201976776
176189,0.034912109375,-0.0321044921875,1.026611328125,-2.197265625,0.1220703050494194,0.4272460639476776
176206,0.0345458984375,-0.0333251953125,1.0274658203125,-2.3193359375,0.0610351525247097,0.4272460639476776
176225,0.0341796875,-0.0391845703125,1.0272216796875,-2.746581792831421,0.1220703050494194,0.54931640625
176242,0.0321044921875,-0.0377197265625,1.019775390625,-3.173827886581421,0.2441406100988388,0.4272460639476776
176274,0.0302734375,-0.037109375,1.021484375,-3.845214605331421,0.3662109076976776,0.30517578125
176291,0.0343017578125,-0.0343017578125,1.0260009765625,-4.33349609375,0.4272460639476776,0.3662109076976776
176311,0.0355224609375,-0.0263671875,1.0220947265625,-4.7607421875,0.4272460639476776,0.4882812201976776
176328,0.0333251953125,-0.0205078125,1.028076171875,-4.8828125,0.4272460639476776,0.54931640625
176346,0.03125,-0.01513671875,1.0264892578125,-4.7607421875,0.4882812201976776,0.4882812201976776
176363,0.033203125,-0.0169677734375,1.021240234375,-4.5166015625,0.4882812201976776,0.4272460639476776
176396,0.03955078125,-0.0107421875,1.0245361328125,-3.967284917831421,0.4882812201976776,0.4272460639476776
176412,0.038330078125,-0.01025390625,1.0234375,-3.540038824081421,0.3662109076976776,0.30517578125
176428,0.0341796875,-0.0045166015625,1.0260009765625,-2.990722417831421,0.4882812201976776,0.3662109076976776
176466,0.0361328125,-0.0037841796875,1.0211181640625,-1.8920897245407104,0.4882812201976776,0.3662109076976776
176482,0.037353515625,0.0028076171875,1.0264892578125,-1.0986328125,0.9765624403953552,0.1831054538488388
176499,0.035888671875,0.0135498046875,1.0330810546875,-0.4882812201976776,1.2817381620407104,0.1831054538488388
176513,0.035400390625,0.01953125,1.0257568359375,1.220703125,1.5258787870407104,0.1220703050494194
176530,0.0380859375,0.0218505859375,1.0308837890625,3.845214605331421,2.197265625,-0.1220703050494194
176546,0.0504150390625,0.019287109375,1.0389404296875,5.126952648162842,2.3193359375,0.0
176580,0.0887451171875,-0.0079345703125,1.248291015625,6.652831554412842,1.2817381620407104,0.0610351525247097
176601,0.0870361328125,-0.0101318359375,1.275390625,6.835937023162842,0.7324218153953552,0.0
176617,0.0838623046875,-0.0032958984375,1.2528076171875,6.591796398162842,0.3662109076976776,0.1831054538488388
176634,0.0848388671875,-0.017822265625,1.2589111328125,5.920409679412842,1.03759765625,0.6103515625
176651,0.083251953125,-0.0396728515625,1.262451171875,5.432128429412842,1.2817381620407104,0.6713866591453552
176667,0.08544921875,-0.0318603515625,1.2822265625,4.33349609375,1.9531248807907104,0.6103515625
176705,0.091064453125,-0.009765625,1.370849609375,4.2724609375,3.112792730331421,0.9765624403953552
176721,0.080078125,-0.033203125,1.4300537109375,4.82177734375,2.25830078125,1.4038084745407104
176738,0.0660400390625,-0.0595703125,1.40576171875,4.69970703125,1.7700194120407104,1.2817381620407104
176759,0.058349609375,-0.0604248046875,1.3739013671875,4.7607421875,1.4038084745407104,1.03759765625
176776,0.055419921875,-0.053955078125,1.3555908203125,4.8828125,1.5869139432907104,0.8544921278953552
176793,0.0567626953125,-0.0439453125,1.351806640625,5.0048828125,1.5258787870407104,0.9765624403953552
176808,0.05078125,-0.05615234375,1.31787109375,5.126952648162842,1.03759765625,1.2817381620407104
176829,0.0440673828125,-0.0439453125,1.3104248046875,4.8828125,1.6479490995407104,1.03759765625
176845,0.0447998046875,-0.0328369140625,1.337158203125,5.187987804412842,1.5258787870407104,0.9155272841453552
176877,0.041015625,-0.0135498046875,1.3084716796875,6.469726085662842,0.6713866591453552,1.03759765625
176894,0.042724609375,-0.016845703125,1.296630859375,7.141112804412842,0.8544921278953552,1.03759765625
176914,0.043701171875,-0.022216796875,1.28564453125,7.690429210662842,0.4272460639476776,0.8544921278953552
176931,0.0341796875,-0.0211181640625,1.215576171875,7.873534679412842,0.1831054538488388,0.6713866591453552
176948,0.031494140625,-0.0164794921875,1.179443359375,8.1787109375,0.4272460639476776,0.3662109076976776
176964,0.0367431640625,-0.004150390625,1.1629638671875,8.72802734375,1.0986328125,0.30517578125
176998,0.039306640625,-0.0147705078125,1.115966796875,9.09423828125,0.4272460639476776,0.30517578125
177015,0.03564453125,-0.0152587890625,1.0823974609375,8.9111328125,0.30517578125,0.0610351525247097
177052,0.0423583984375,-0.01318359375,1.059814453125,8.6669921875,0.9155272841453552,0.2441406100988388
177069,0.04443359375,-0.01611328125,1.05859375,8.23974609375,0.4272460639476776,0.30517578125
177115,0.02734375,-0.04736328125,0.93017578125,6.530761241912842,-0.3662109076976776,0.1220703050494194
177137,0.0272216796875,-0.045654296875,0.925048828125,5.615233898162842,-0.3662109076976776,0.0
177153,0.02880859375,-0.04345703125,0.9190673828125,5.249022960662842,-0.4272460639476776,0.0610351525247097
177170,0.0269775390625,-0.0462646484375,0.915771484375,4.69970703125,-0.6103515625,0.1220703050494194
177189,0.022705078125,-0.0513916015625,0.9036865234375,4.21142578125,-1.03759765625,0.2441406100988388
177206,0.0111083984375,-0.062744140625,0.8623046875,3.967284917831421,-1.3427733182907104,0.30517578125
177239,0.00341796875,-0.079833984375,0.7640380859375,3.295898199081421,-1.2817381620407104,0.1831054538488388
177256,0.0059814453125,-0.080078125,0.7366943359375,2.685546636581421,-1.220703125,0.1831054538488388
177275,0.0123291015625,-0.0804443359375,0.677978515625,1.8310545682907104,-1.2817381620407104,0.1220703050494194
177291,0.0120849609375,-0.08349609375,0.598876953125,1.4038084745407104,-1.2817381620407104,0.1220703050494194
177307,0.013671875,-0.090576171875,0.5791015625,0.3662109076976776,-0.9765624403953552,0.0610351525247097
177324,0.015625,-0.092529296875,0.5450439453125,-0.3662109076976776,-0.9765624403953552,0.0
177354,0.0155029296875,-0.0791015625,0.5032958984375,-2.868652105331421,-0.30517578125,-0.0610351525247097
177371,0.0174560546875,-0.0711669921875,0.5308837890625,-3.540038824081421,-0.4272460639476776,0.1220703050494194
177387,0.0164794921875,-0.0701904296875,0.5396728515625,-3.723144292831421,-0.6713866591453552,0.0
177420,0.0152587890625,-0.0595703125,0.557373046875,-4.0283203125,-0.54931640625,0.0610351525247097
177441,0.0223388671875,-0.056884765625,0.5911865234375,-4.33349609375,-0.1220703050494194,0.0
177457,0.0357666015625,-0.0540771484375,0.6710205078125,-4.5166015625,-0.0610351525247097,0.0
177474,0.045654296875,-0.046875,0.76513671875,-4.57763671875,-0.0610351525247097,0.0
177491,0.054443359375,-0.0406494140625,0.884765625,-4.33349609375,-0.0610351525247097,-0.1220703050494194
177506,0.0579833984375,-0.0452880859375,0.9520263671875,-3.723144292831421,-0.30517578125,0.1220703050494194
177540,0.0699462890625,-0.0850830078125,1.13232421875,-2.563476324081421,-1.9531248807907104,0.1220703050494194
177557,0.06884765625,-0.1014404296875,1.1314697265625,-1.8920897245407104,-2.990722417831421,0.1831054538488388
177576,0.0648193359375,-0.1239013671875,1.1268310546875,-1.5258787870407104,-3.295898199081421,0.2441406100988388
177592,0.05859375,-0.143310546875,1.111572265625,-1.3427733182907104,-3.417968511581421,0.1831054538488388
177609,0.0570068359375,-0.1392822265625,1.105224609375,-1.0986328125,-3.601073980331421,-0.0610351525247097
177625,0.0533447265625,-0.13232421875,1.070556640625,-1.03759765625,-3.723144292831421,-0.0610351525247097
177659,0.0511474609375,-0.1009521484375,1.0379638671875,-0.6713866591453552,-3.173827886581421,-0.1220703050494194
177675,0.047119140625,-0.0771484375,1.0159912109375,-0.6713866591453552,-3.051757574081421,0.0
177691,0.043212890625,-0.0604248046875,0.9903564453125,-0.7934569716453552,-2.44140625,0.1831054538488388
177708,0.0447998046875,-0.051513671875,0.993896484375,-0.9155272841453552,-2.25830078125,0.2441406100988388
177733,0.046630859375,-0.0455322265625,0.9832763671875,-1.2817381620407104,-2.197265625,0.4272460639476776
177766,0.04638671875,-0.0369873046875,0.9539794921875,-2.01416015625,-1.5258787870407104,0.4882812201976776
177787,0.0501708984375,-0.0333251953125,0.963623046875,-2.3193359375,-1.03759765625,0.6103515625
177803,0.0528564453125,-0.032958984375,0.965087890625,-2.197265625,-0.8544921278953552,0.6713866591453552
177837,0.0570068359375,-0.0389404296875,0.9884033203125,-1.220703125,0.0610351525247097,0.6103515625
177854,0.0614013671875,-0.0460205078125,1.0164794921875,-0.54931640625,0.1220703050494194,0.6103515625
177873,0.0614013671875,-0.049072265625,1.0194091796875,-0.1831054538488388,0.1831054538488388,0.54931640625
177889,0.0623779296875,-0.0555419921875,1.0224609375,0.4272460639476776,0.2441406100988388,0.6103515625
177901,0.0595703125,-0.0643310546875,1.02490234375,0.6713866591453552,0.30517578125,0.6103515625
177950,0.0555419921875,-0.0694580078125,1.0408935546875,1.8920897245407104,0.2441406100988388,0.7324218153953552
177969,0.0498046875,-0.0711669921875,1.027587890625,2.197265625,0.1831054538488388,0.6713866591453552
177985,0.048828125,-0.064697265625,1.023681640625,2.50244140625,0.2441406100988388,0.7934569716453552
178023,0.04345703125,-0.057373046875,1.006103515625,2.685546636581421,0.2441406100988388,0.9155272841453552
178039,0.039794921875,-0.0506591796875,1.004638671875,2.746581792831421,0.4272460639476776,0.9765624403953552
178051,0.036865234375,-0.0443115234375,1.016845703125,2.807616949081421,0.4882812201976776,0.9765624403953552
178068,0.036376953125,-0.0413818359375,1.02294921875,3.173827886581421,0.3662109076976776,1.15966796875
178087,0.031982421875,-0.0455322265625,1.01611328125,3.295898199081421,0.30517578125,1.220703125
178103,0.0321044921875,-0.0469970703125,1.009765625,3.479003667831421,0.1220703050494194,1.220703125
178136,0.031982421875,-0.057861328125,0.984130859375,3.234863042831421,-0.2441406100988388,1.4038084745407104
178157,0.0260009765625,-0.072509765625,0.9481201171875,3.051757574081421,-0.3662109076976776,1.4038084745407104
178174,0.02197265625,-0.0771484375,0.934814453125,2.197265625,-0.1831054538488388,1.3427733182907104
178191,0.0206298828125,-0.079833984375,0.929931640625,1.3427733182907104,-0.0610351525247097,1.3427733182907104
178208,0.02001953125,-0.0731201171875,0.9287109375,0.54931640625,0.1220703050494194,1.4038084745407104
178225,0.020751953125,-0.068603515625,0.9466552734375,0.0610351525247097,0.3662109076976776,1.4038084745407104
178258,0.023681640625,-0.0655517578125,0.9932861328125,-0.54931640625,0.1831054538488388,1.3427733182907104
178326,0.0247802734375,-0.065185546875,0.970947265625,-1.6479490995407104,-0.1220703050494194,1.2817381620407104
178348,0.02783203125,-0.0677490234375,0.951171875,-1.8920897245407104,-0.2441406100988388,1.2817381620407104
178364,0.0235595703125,-0.070556640625,0.90380859375,-2.685546636581421,-0.6103515625,1.2817381620407104
178383,0.0230712890625,-0.0738525390625,0.890380859375,-3.601073980331421,-0.1220703050494194,1.3427733182907104
178400,0.02880859375,-0.071044921875,0.918701171875,-4.45556640625,0.3662109076976776,1.0986328125
178433,0.0338134765625,-0.0572509765625,0.9500732421875,-5.187987804412842,-0.54931640625,1.220703125
178450,0.031494140625,-0.059814453125,0.9285888671875,-5.554198741912842,-0.9155272841453552,1.220703125
178467,0.027099609375,-0.0595703125,0.8865966796875,-6.286620616912842,-0.6713866591453552,1.220703125
178488,0.029052734375,-0.060546875,0.893310546875,-6.652831554412842,-0.3662109076976776,1.220703125
178506,0.033447265625,-0.0579833984375,0.933837890625,-7.446288585662842,-0.0610351525247097,1.220703125
178517,0.0357666015625,-0.0562744140625,0.94921875,-7.751464366912842,-0.6103515625,1.220703125
178551,0.0357666015625,-0.04443359375,0.9315185546875,-7.873534679412842,-1.15966796875,1.220703125
178570,0.0367431640625,-0.0394287109375,0.91455078125,-7.751464366912842,-1.03759765625,1.220703125
178586,0.0382080078125,-0.04248046875,0.9217529296875,-7.812499523162842,-1.03759765625,1.2817381620407104
178621,0.0364990234375,-0.0445556640625,0.9075927734375,-7.934569835662842,-1.3427733182907104,1.15966796875
178637,0.034912109375,-0.0421142578125,0.88720703125,-7.995604991912842,-1.2817381620407104,1.15966796875
178654,0.035400390625,-0.041015625,0.8853759765625,-8.056640625,-0.9765624403953552,1.0986328125
178671,0.038818359375,-0.0352783203125,0.9095458984375,-7.995604991912842,-0.6713866591453552,1.0986328125
178690,0.0401611328125,-0.0311279296875,0.94482421875,-7.751464366912842,-0.9765624403953552,0.9765624403953552
178706,0.03955078125,-0.0311279296875,0.955810546875,-7.263183116912842,-1.220703125,0.9155272841453552
178739,0.03662109375,-0.027099609375,0.9437255859375,-6.286620616912842,-1.2817381620407104,0.8544921278953552
178756,0.0345458984375,-0.02490234375,0.951416015625,-5.920409679412842,-1.03759765625,0.7934569716453552
178777,0.033447265625,-0.02587890625,0.9586181640625,-5.676269054412842,-0.8544921278953552,0.7934569716453552
178793,0.038330078125,-0.0235595703125,0.9984130859375,-5.126952648162842,-0.9155272841453552,0.7324218153953552
178810,0.03564453125,-0.0264892578125,0.995849609375,-4.57763671875,-1.4648436307907104,0.6103515625
178827,0.03271484375,-0.0224609375,0.958740234375,-4.45556640625,-1.4038084745407104,0.4272460639476776
178862,0.0311279296875,-0.013916015625,0.952392578125,-4.39453125,-0.8544921278953552,0.2441406100988388
178878,0.029052734375,-0.0128173828125,0.9454345703125,-4.33349609375,-0.4272460639476776,0.1220703050494194
178900,0.0284423828125,-0.00732421875,0.955078125,-4.21142578125,-0.2441406100988388,0.1220703050494194
178916,0.0308837890625,-0.003662109375,0.9810791015625,-3.845214605331421,0.0,0.1220703050494194
178965,0.0396728515625,0.021240234375,1.050537109375,-1.3427733182907104,-0.2441406100988388,-0.3662109076976776
178986,0.038330078125,0.0203857421875,1.022216796875,0.6713866591453552,-0.6713866591453552,-0.3662109076976776
179035,0.0386962890625,0.0096435546875,1.045166015625,3.051757574081421,-0.30517578125,-0.54931640625
179055,0.042724609375,0.0106201171875,1.0733642578125,4.5166015625,-0.4272460639476776,-0.8544921278953552
179071,0.0462646484375,0.019287109375,1.0933837890625,6.164550304412842,-1.4038084745407104,-0.9765624403953552
179088,0.0408935546875,0.0234375,1.05810546875,7.080077648162842,-1.5258787870407104,-1.0986328125
179157,0.0362548828125,0.0172119140625,1.0245361328125,11.657713890075684,-1.0986328125,-1.3427733182907104
179174,0.0357666015625,0.01416015625,1.03076171875,12.084959983825684,-0.8544921278953552,-1.4038084745407104
179195,0.0328369140625,0.00341796875,1.0635986328125,12.756346702575684,-0.4272460639476776,-1.6479490995407104
179211,0.0306396484375,-0.000732421875,1.098388671875,13.610838890075684,-0.3662109076976776,-1.7700194120407104
179228,0.0360107421875,0.0064697265625,1.1417236328125,14.038084983825684,-0.30517578125,-1.9531248807907104
179245,0.03857421875,0.0128173828125,1.149169921875,14.892577171325684,-0.9155272841453552,-2.01416015625
179278,0.0345458984375,-0.003662109375,1.100341796875,15.991209983825684,-0.7934569716453552,-1.8920897245407104
179295,0.0340576171875,-0.0130615234375,1.100341796875,15.991209983825684,-0.7324218153953552,-1.8920897245407104
179312,0.0335693359375,-0.029296875,1.0948486328125,15.686034202575684,-0.6103515625,-1.8310545682907104
179333,0.0338134765625,-0.039794921875,1.0889892578125,14.831542015075684,0.0610351525247097,-2.13623046875
179349,0.0355224609375,-0.0325927734375,1.1234130859375,14.526366233825684,0.30517578125,-2.25830078125
179366,0.0328369140625,-0.03173828125,1.1317138671875,14.282225608825684,0.1831054538488388,-2.197265625
179401,0.01904296875,-0.052978515625,1.10400390625,13.122557640075684,0.3662109076976776,-2.0751953125
179418,0.0238037109375,-0.057373046875,1.1029052734375,11.779784202575684,0.54931640625,-2.13623046875
179435,0.0255126953125,-0.05908203125,1.0986328125,11.047362327575684,0.54931640625,-2.13623046875
179451,0.0294189453125,-0.0653076171875,1.087890625,9.58251953125,0.9765624403953552,-1.9531248807907104
179475,0.0325927734375,-0.07373046875,1.094482421875,8.11767578125,1.15966796875,-1.8310545682907104
179491,0.0321044921875,-0.0806884765625,1.0989990234375,7.385253429412842,1.3427733182907104,-1.8310545682907104
179508,0.0301513671875,-0.07763671875,1.1064453125,6.042479991912842,1.4648436307907104,-1.8310545682907104
179527,0.0311279296875,-0.076171875,1.115478515625,4.69970703125,1.7700194120407104,-1.8310545682907104
179544,0.0321044921875,-0.0765380859375,1.1339111328125,3.662109136581421,1.5869139432907104,-1.7089842557907104
179576,0.02783203125,-0.0855712890625,1.10400390625,1.5869139432907104,1.9531248807907104,-1.7700194120407104
179597,0.03369140625,-0.0819091796875,1.1329345703125,0.0,2.0751953125,-1.7700194120407104
179613,0.0362548828125,-0.0731201171875,1.1414794921875,-1.220703125,1.7089842557907104,-1.7089842557907104
179630,0.033203125,-0.0682373046875,1.11767578125,-1.7089842557907104,1.5869139432907104,-1.6479490995407104
179649,0.031005859375,-0.07080078125,1.1016845703125,-2.990722417831421,1.6479490995407104,-1.4648436307907104
179666,0.0303955078125,-0.07470703125,1.09375,-4.21142578125,2.13623046875,-1.3427733182907104
179699,0.0322265625,-0.066650390625,1.0743408203125,-6.652831554412842,2.0751953125,-1.2817381620407104
179752,0.0528564453125,-0.0771484375,1.25341796875,-8.1787109375,1.15966796875,-1.2817381620407104
179797,0.0118408203125,-0.0491943359375,0.73974609375,-8.30078125,-12.390135765075684,-2.563476324081421
179830,-0.00732421875,-0.0399169921875,0.6607666015625,10.498045921325684,3.662109136581421,-0.2441406100988388
179847,0.0281982421875,-0.0718994140625,0.923828125,8.23974609375,5.615233898162842,0.30517578125
179864,0.11279296875,-0.073974609375,1.82421875,-0.2441406100988388,-3.356933355331421,0.0610351525247097
179884,0.038818359375,-0.0137939453125,0.7369384765625,1.220703125,-5.065917491912842,0.4272460639476776
179901,-0.014892578125,-0.0625,0.80419921875,2.868652105331421,1.5258787870407104,0.6103515625
179918,0.0421142578125,-0.1280517578125,1.37109375,2.563476324081421,0.1831054538488388,0.6713866591453552
179934,0.045654296875,-0.10693359375,1.014404296875,1.4648436307907104,-3.295898199081421,-0.1220703050494194
179956,0.035888671875,-0.0567626953125,0.910888671875,1.0986328125,-0.1831054538488388,0.1220703050494194
179972,0.033935546875,-0.0533447265625,1.1568603515625,1.0986328125,-0.3662109076976776,0.0610351525247097
179989,0.0247802734375,-0.0517578125,0.9189453125,1.5869139432907104,-1.15966796875,0.54931640625
180008,0.02685546875,-0.0750732421875,1.031982421875,1.5869139432907104,-0.4272460639476776,0.4882812201976776
180025,0.0321044921875,-0.093505859375,1.04150390625,0.9155272841453552,-0.7934569716453552,0.30517578125
180057,0.03369140625,-0.0528564453125,1.037109375,0.9765624403953552,-0.54931640625,0.1831054538488388
180074,0.0286865234375,-0.0394287109375,1.0250244140625,2.01416015625,-0.8544921278953552,0.1831054538488388
180095,0.0294189453125,-0.0576171875,1.015869140625,3.051757574081421,-0.9155272841453552,0.30517578125
180112,0.03173828125,-0.068603515625,1.025634765625,3.234863042831421,-0.9155272841453552,0.1831054538488388
180129,0.031982421875,-0.072265625,1.034423828125,3.540038824081421,-0.7934569716453552,0.1220703050494194
180145,0.03076171875,-0.06103515625,1.0118408203125,3.967284917831421,-0.7324218153953552,0.0610351525247097
180179,0.0313720703125,-0.060302734375,1.020263671875,4.94384765625,-0.4882812201976776,0.1220703050494194
180196,0.0308837890625,-0.0677490234375,1.0150146484375,5.554198741912842,-0.4882812201976776,0.1220703050494194
180217,0.0299072265625,-0.0662841796875,1.0281982421875,6.408690929412842,-0.54931640625,0.0
180232,0.0303955078125,-0.0595703125,1.022216796875,6.958007335662842,-0.6103515625,-0.0610351525247097
180249,0.0301513671875,-0.058349609375,1.018310546875,7.995604991912842,-0.7934569716453552,0.0
180265,0.0313720703125,-0.07177734375,1.0269775390625,8.6669921875,-0.7324218153953552,0.0610351525247097
180299,0.0234375,-0.09375,1.016845703125,8.4228515625,-0.4882812201976776,-0.0610351525247097
180316,0.0284423828125,-0.088623046875,1.028564453125,8.23974609375,-0.54931640625,-0.1220703050494194
180337,0.035888671875,-0.080078125,1.0191650390625,8.72802734375,-0.6103515625,-0.1831054538488388
180352,0.03125,-0.075927734375,1.025634765625,9.21630859375,-0.6713866591453552,-0.1831054538488388
180364,0.0264892578125,-0.0771484375,1.025146484375,10.375975608825684,-0.7934569716453552,-0.0610351525247097
