tMillis,ax,ay,az,gx,gy,gz
38371,0.03369140625,0.1363525390625,1.0150146484375,0.7934569716453552,-0.1831054538488388,0.2441406100988388
38388,0.033935546875,0.136474609375,1.0157470703125,0.8544921278953552,-0.1831054538488388,0.2441406100988388
38407,0.0352783203125,0.1368408203125,1.01611328125,0.9155272841453552,-0.2441406100988388,0.2441406100988388
38424,0.03466796875,0.13623046875,1.01611328125,0.8544921278953552,-0.1831054538488388,0.30517578125
38445,0.0347900390625,0.13623046875,1.016845703125,0.7934569716453552,-0.1831054538488388,0.2441406100988388
38463,0.034423828125,0.1365966796875,1.017822265625,0.7324218153953552,-0.1831054538488388,0.2441406100988388
38475,0.03515625,0.135498046875,1.01708984375,0.7934569716453552,-0.1831054538488388,0.1831054538488388
38491,0.0347900390625,0.1358642578125,1.01611328125,0.8544921278953552,-0.1831054538488388,0.2441406100988388
38507,0.034423828125,0.1358642578125,1.017333984375,0.8544921278953552,-0.1831054538488388,0.2441406100988388
38526,0.0333251953125,0.1356201171875,1.0152587890625,0.7934569716453552,-0.2441406100988388,0.1831054538488388
38545,0.0352783203125,0.1373291015625,1.014892578125,0.7934569716453552,-0.2441406100988388,0.2441406100988388
38568,0.0340576171875,0.1365966796875,1.014404296875,0.8544921278953552,-0.1831054538488388,0.30517578125
38581,0.034423828125,0.1361083984375,1.0177001953125,0.8544921278953552,-0.1831054538488388,0.30517578125
38597,0.0345458984375,0.1368408203125,1.0179443359375,0.7934569716453552,-0.1831054538488388,0.30517578125
38616,0.0333251953125,0.1373291015625,1.01513671875,0.7934569716453552,-0.2441406100988388,0.2441406100988388
38635,0.034912109375,0.1368408203125,1.0152587890625,0.8544921278953552,-0.1831054538488388,0.2441406100988388
38654,0.0350341796875,0.1358642578125,1.0140380859375,0.8544921278953552,-0.2441406100988388,0.1831054538488388
38672,0.03466796875,0.1358642578125,1.0157470703125,0.7934569716453552,-0.2441406100988388,0.2441406100988388
38695,0.03466796875,0.1363525390625,1.01611328125,0.7934569716453552,-0.2441406100988388,0.30517578125
38712,0.034423828125,0.1363525390625,1.015625,0.8544921278953552,-0.30517578125,0.3662109076976776
38729,0.03515625,0.1361083984375,1.0162353515625,0.7934569716453552,-0.2441406100988388,0.2441406100988388
38748,0.0350341796875,0.136474609375,1.0157470703125,0.7324218153953552,-0.1831054538488388,0.1831054538488388
38766,0.033935546875,0.136474609375,1.01611328125,0.7934569716453552,-0.1831054538488388,0.30517578125
38785,0.03466796875,0.136474609375,1.0166015625,0.7934569716453552,-0.1220703050494194,0.2441406100988388
38810,0.0352783203125,0.1356201171875,1.0145263671875,0.7934569716453552,-0.1831054538488388,0.1831054538488388
38827,0.0341796875,0.1363525390625,1.0157470703125,0.8544921278953552,-0.1831054538488388,0.2441406100988388
38839,0.034423828125,0.137451171875,1.01611328125,0.8544921278953552,-0.2441406100988388,0.30517578125
38859,0.034912109375,0.13671875,1.0191650390625,0.7934569716453552,-0.2441406100988388,0.30517578125
38878,0.0340576171875,0.1368408203125,1.02001953125,0.8544921278953552,-0.2441406100988388,0.30517578125
38898,0.03369140625,0.1361083984375,1.0167236328125,0.8544921278953552,-0.2441406100988388,0.30517578125
38917,0.03466796875,0.136474609375,1.0177001953125,0.7934569716453552,-0.2441406100988388,0.2441406100988388
38938,0.0347900390625,0.1357421875,1.01123046875,0.8544921278953552,-0.2441406100988388,0.2441406100988388
38954,0.033447265625,0.1361083984375,1.01318359375,0.9155272841453552,-0.2441406100988388,0.2441406100988388
38973,0.0341796875,0.1363525390625,1.01611328125,0.8544921278953552,-0.1831054538488388,0.1831054538488388
38992,0.0341796875,0.1368408203125,1.0142822265625,0.8544921278953552,-0.1831054538488388,0.2441406100988388
39010,0.0347900390625,0.137939453125,1.01708984375,0.7934569716453552,-0.2441406100988388,0.2441406100988388
39026,0.034423828125,0.1351318359375,1.0120849609375,0.7934569716453552,-0.1831054538488388,0.30517578125
39046,0.0338134765625,0.1357421875,1.016845703125,0.8544921278953552,-0.1831054538488388,0.2441406100988388
39070,0.0350341796875,0.135498046875,1.0137939453125,0.8544921278953552,-0.1831054538488388,0.2441406100988388
39086,0.03515625,0.1358642578125,1.016845703125,0.8544921278953552,-0.1831054538488388,0.2441406100988388
39103,0.0352783203125,0.136962890625,1.0179443359375,0.9155272841453552,-0.1831054538488388,0.2441406100988388
39122,0.034912109375,0.1365966796875,1.0167236328125,0.9155272841453552,-0.2441406100988388,0.2441406100988388
39141,0.0340576171875,0.135009765625,1.0155029296875,0.8544921278953552,-0.2441406100988388,0.2441406100988388
39159,0.0340576171875,0.1357421875,1.014892578125,0.8544921278953552,-0.2441406100988388,0.2441406100988388
39178,0.03515625,0.1368408203125,1.0155029296875,0.8544921278953552,-0.2441406100988388,0.1831054538488388
39192,0.0357666015625,0.136962890625,1.0185546875,0.7934569716453552,-0.1831054538488388,0.2441406100988388
39209,0.0352783203125,0.136962890625,1.0184326171875,0.9155272841453552,-0.1831054538488388,0.2441406100988388
39226,0.03369140625,0.13720703125,1.017822265625,0.8544921278953552,-0.1831054538488388,0.2441406100988388
39240,0.0341796875,0.1363525390625,1.0162353515625,0.7934569716453552,-0.1831054538488388,0.2441406100988388
39257,0.035888671875,0.1361083984375,1.0146484375,0.7934569716453552,-0.2441406100988388,0.2441406100988388
39276,0.0350341796875,0.1353759765625,1.01513671875,0.8544921278953552,-0.2441406100988388,0.30517578125
39294,0.03369140625,0.13623046875,1.01806640625,0.8544921278953552,-0.2441406100988388,0.30517578125
39311,0.033447265625,0.13623046875,1.0166015625,0.8544921278953552,-0.1831054538488388,0.2441406100988388
39330,0.03564453125,0.135498046875,1.01611328125,0.8544921278953552,-0.1831054538488388,0.2441406100988388
39349,0.0345458984375,0.135009765625,1.0157470703125,0.7934569716453552,-0.2441406100988388,0.2441406100988388
39368,0.034423828125,0.1361083984375,1.01513671875,0.7934569716453552,-0.1831054538488388,0.1831054538488388
39388,0.0350341796875,0.1370849609375,1.0159912109375,0.8544921278953552,-0.1831054538488388,0.2441406100988388
39414,0.0352783203125,0.135986328125,1.0155029296875,0.8544921278953552,-0.1831054538488388,0.1831054538488388
39425,0.03466796875,0.1368408203125,1.0146484375,0.8544921278953552,-0.1831054538488388,0.1831054538488388
39442,0.0341796875,0.1368408203125,1.013916015625,0.8544921278953552,-0.2441406100988388,0.1831054538488388
39461,0.0335693359375,0.1363525390625,1.0137939453125,0.7934569716453552,-0.1220703050494194,0.2441406100988388
39479,0.03564453125,0.1376953125,1.017578125,0.7934569716453552,-0.1831054538488388,0.2441406100988388
39497,0.0360107421875,0.137451171875,1.018798828125,0.8544921278953552,-0.2441406100988388,0.30517578125
39516,0.03515625,0.136474609375,1.0133056640625,0.8544921278953552,-0.2441406100988388,0.30517578125
39529,0.034423828125,0.1357421875,1.0115966796875,0.8544921278953552,-0.1831054538488388,0.30517578125
39542,0.0350341796875,0.135986328125,1.0196533203125,0.8544921278953552,-0.1831054538488388,0.30517578125
39558,0.034423828125,0.1365966796875,1.0181884765625,0.8544921278953552,-0.2441406100988388,0.1831054538488388
39575,0.033935546875,0.1358642578125,1.015625,0.7934569716453552,-0.3662109076976776,0.2441406100988388
39592,0.0355224609375,0.134521484375,1.009765625,0.7324218153953552,-0.30517578125,0.30517578125
39617,0.035888671875,0.1376953125,1.0242919921875,0.7934569716453552,-0.30517578125,0.30517578125
39633,0.031494140625,0.1375732421875,1.029541015625,0.7934569716453552,-0.2441406100988388,0.2441406100988388
39650,0.0323486328125,0.1343994140625,0.9976806640625,0.8544921278953552,-0.2441406100988388,0.2441406100988388
39669,0.0377197265625,0.13623046875,1.016357421875,0.9155272841453552,-0.30517578125,0.2441406100988388
39686,0.0330810546875,0.1357421875,1.015869140625,0.8544921278953552,-0.3662109076976776,0.30517578125
39718,0.0335693359375,0.136474609375,1.0186767578125,0.9155272841453552,-0.1831054538488388,0.2441406100988388
39734,0.03662109375,0.1373291015625,1.018798828125,0.9155272841453552,-0.1831054538488388,0.2441406100988388
39751,0.0355224609375,0.1373291015625,1.01611328125,0.9155272841453552,-0.2441406100988388,0.2441406100988388
39771,0.03125,0.135498046875,1.010498046875,0.9155272841453552,-0.1831054538488388,0.2441406100988388
39783,0.0345458984375,0.136962890625,1.01806640625,0.8544921278953552,-0.1831054538488388,0.30517578125
39800,0.03564453125,0.13720703125,1.0194091796875,0.8544921278953552,-0.1220703050494194,0.30517578125
39833,0.0338134765625,0.1361083984375,1.0142822265625,0.9155272841453552,-0.2441406100988388,0.2441406100988388
39850,0.0341796875,0.13623046875,1.017578125,0.8544921278953552,-0.2441406100988388,0.2441406100988388
39867,0.033935546875,0.136962890625,1.017333984375,0.8544921278953552,-0.1831054538488388,0.2441406100988388
39888,0.032958984375,0.135986328125,1.0142822265625,0.9765624403953552,-0.2441406100988388,0.30517578125
39906,0.0335693359375,0.1365966796875,1.013671875,0.9155272841453552,-0.2441406100988388,0.30517578125
39922,0.03515625,0.1368408203125,1.0203857421875,0.8544921278953552,-0.30517578125,0.30517578125
39954,0.03369140625,0.13623046875,1.0164794921875,0.8544921278953552,-0.2441406100988388,0.30517578125
39971,0.034423828125,0.1357421875,1.01806640625,0.8544921278953552,-0.1831054538488388,0.30517578125
39988,0.033935546875,0.1361083984375,1.0142822265625,0.9155272841453552,-0.2441406100988388,0.1831054538488388
40009,0.0335693359375,0.1356201171875,1.0146484375,0.8544921278953552,-0.1831054538488388,0.1831054538488388
40028,0.033935546875,0.1356201171875,1.01416015625,0.7324218153953552,-0.1831054538488388,0.2441406100988388
40045,0.0352783203125,0.1361083984375,1.02001953125,0.8544921278953552,-0.2441406100988388,0.2441406100988388
40078,0.0340576171875,0.1363525390625,1.01513671875,0.7324218153953552,-0.1831054538488388,0.2441406100988388
40095,0.034423828125,0.1365966796875,1.016845703125,0.7324218153953552,-0.1831054538488388,0.2441406100988388
40111,0.03564453125,0.1353759765625,1.016357421875,0.7324218153953552,-0.1831054538488388,0.2441406100988388
40127,0.03369140625,0.1358642578125,1.015869140625,0.7324218153953552,-0.1831054538488388,0.2441406100988388
40147,0.035400390625,0.137451171875,1.017578125,0.7934569716453552,-0.1831054538488388,0.2441406100988388
40169,0.0355224609375,0.137451171875,1.015380859375,0.8544921278953552,-0.1831054538488388,0.2441406100988388
40185,0.03515625,0.13623046875,1.01513671875,0.7324218153953552,-0.1831054538488388,0.30517578125
40203,0.0347900390625,0.1357421875,1.0147705078125,0.7934569716453552,-0.1831054538488388,0.2441406100988388
40220,0.0341796875,0.1370849609375,1.0184326171875,0.7934569716453552,-0.2441406100988388,0.2441406100988388
40253,0.0345458984375,0.1365966796875,1.01513671875,0.7934569716453552,-0.1831054538488388,0.1831054538488388
40270,0.0355224609375,0.1365966796875,1.0159912109375,0.7324218153953552,-0.1831054538488388,0.2441406100988388
40286,0.03515625,0.1358642578125,1.0157470703125,0.7934569716453552,-0.1831054538488388,0.30517578125
40324,0.034423828125,0.1370849609375,1.0169677734375,0.7934569716453552,-0.2441406100988388,0.2441406100988388
40340,0.0357666015625,0.13671875,1.015869140625,0.8544921278953552,-0.2441406100988388,0.2441406100988388
40357,0.0350341796875,0.1370849609375,1.01708984375,0.8544921278953552,-0.1831054538488388,0.2441406100988388
40374,0.034423828125,0.1361083984375,1.0162353515625,0.7934569716453552,-0.2441406100988388,0.2441406100988388
40390,0.0347900390625,0.1365966796875,1.016357421875,0.7934569716453552,-0.2441406100988388,0.2441406100988388
40407,0.0350341796875,0.1363525390625,1.0177001953125,0.8544921278953552,-0.1831054538488388,0.2441406100988388
40440,0.0335693359375,0.135986328125,1.0162353515625,0.8544921278953552,-0.1831054538488388,0.1831054538488388
40494,0.03515625,0.1387939453125,1.0311279296875,0.8544921278953552,-0.2441406100988388,0.2441406100988388
40511,0.032470703125,0.134765625,1.0042724609375,0.9765624403953552,-0.1831054538488388,0.30517578125
40528,0.032958984375,0.1343994140625,1.0023193359375,0.9155272841453552,-0.1831054538488388,0.2441406100988388
40544,0.0357666015625,0.137451171875,1.021728515625,0.8544921278953552,-0.1831054538488388,0.1831054538488388
40565,0.03271484375,0.1375732421875,1.0225830078125,0.8544921278953552,-0.1831054538488388,0.2441406100988388
40581,0.032470703125,0.1353759765625,1.0123291015625,0.7934569716453552,-0.1831054538488388,0.2441406100988388
40597,0.0338134765625,0.1351318359375,1.0103759765625,0.7934569716453552,-0.1831054538488388,0.2441406100988388
40614,0.03662109375,0.13671875,1.0177001953125,0.8544921278953552,-0.1831054538488388,0.2441406100988388
40637,0.0345458984375,0.1357421875,1.01513671875,0.8544921278953552,-0.30517578125,0.30517578125
40653,0.0325927734375,0.136962890625,1.0169677734375,0.7934569716453552,-0.2441406100988388,0.2441406100988388
40670,0.0357666015625,0.137451171875,1.0189208984375,0.7934569716453552,-0.1831054538488388,0.2441406100988388
40689,0.0364990234375,0.1370849609375,1.017333984375,0.7934569716453552,-0.1831054538488388,0.30517578125
40705,0.0333251953125,0.1353759765625,1.0155029296875,0.8544921278953552,-0.1831054538488388,0.2441406100988388
40736,0.0335693359375,0.1357421875,1.014892578125,0.9155272841453552,-0.1831054538488388,0.2441406100988388
40758,0.0360107421875,0.136474609375,1.01513671875,0.7934569716453552,-0.1220703050494194,0.30517578125
40774,0.0347900390625,0.135986328125,1.0159912109375,0.7934569716453552,-0.1220703050494194,0.2441406100988388
40791,0.0333251953125,0.13623046875,1.0177001953125,0.8544921278953552,-0.2441406100988388,0.2441406100988388
40807,0.0340576171875,0.1368408203125,1.0174560546875,0.8544921278953552,-0.2441406100988388,0.1831054538488388
40824,0.0338134765625,0.1378173828125,1.0142822265625,0.7934569716453552,-0.1831054538488388,0.2441406100988388
40873,0.033447265625,0.1353759765625,1.01611328125,0.7324218153953552,-0.2441406100988388,0.2441406100988388
40928,0.0340576171875,0.1363525390625,1.016357421875,0.8544921278953552,-0.2441406100988388,0.2441406100988388
40944,0.0345458984375,0.13623046875,1.014892578125,0.8544921278953552,-0.1831054538488388,0.2441406100988388
40977,0.0343017578125,0.13525390625,1.013916015625,0.8544921278953552,-0.1831054538488388,0.2441406100988388
40994,0.0333251953125,0.1375732421875,1.0155029296875,0.7934569716453552,-0.2441406100988388,0.2441406100988388
41011,0.0343017578125,0.136474609375,1.0174560546875,0.7934569716453552,-0.1831054538488388,0.1831054538488388
41027,0.0340576171875,0.13623046875,1.0174560546875,0.7934569716453552,-0.1831054538488388,0.1831054538488388
41047,0.03466796875,0.136474609375,1.0172119140625,0.7934569716453552,-0.1831054538488388,0.2441406100988388
41069,0.03466796875,0.13623046875,1.015869140625,0.7934569716453552,-0.2441406100988388,0.1831054538488388
41085,0.0343017578125,0.1357421875,1.015625,0.8544921278953552,-0.2441406100988388,0.1831054538488388
41135,0.033935546875,0.1356201171875,1.0150146484375,0.9155272841453552,-0.1831054538488388,0.30517578125
41178,0.03466796875,0.137451171875,1.015380859375,0.8544921278953552,-0.2441406100988388,0.2441406100988388
41232,0.03271484375,0.13671875,1.01708984375,0.7934569716453552,-0.1831054538488388,0.2441406100988388
41249,0.0328369140625,0.13623046875,1.0157470703125,0.8544921278953552,-0.1831054538488388,0.2441406100988388
41266,0.0345458984375,0.135498046875,1.0157470703125,0.8544921278953552,-0.2441406100988388,0.2441406100988388
41286,0.03466796875,0.13720703125,1.0172119140625,0.8544921278953552,-0.2441406100988388,0.30517578125
41303,0.0340576171875,0.136962890625,1.0137939453125,0.8544921278953552,-0.1831054538488388,0.2441406100988388
41337,0.035400390625,0.1348876953125,1.016357421875,0.8544921278953552,-0.1831054538488388,0.2441406100988388
41357,0.0350341796875,0.1356201171875,1.0157470703125,0.8544921278953552,-0.1831054538488388,0.30517578125
41373,0.0338134765625,0.1363525390625,1.015625,0.8544921278953552,-0.1831054538488388,0.30517578125
41390,0.0340576171875,0.1357421875,1.015869140625,0.9155272841453552,-0.1831054538488388,0.30517578125
41408,0.034912109375,0.1358642578125,1.01611328125,0.8544921278953552,-0.1220703050494194,0.30517578125
41425,0.033935546875,0.136474609375,1.0147705078125,0.7934569716453552,-0.1831054538488388,0.30517578125
41457,0.0341796875,0.136474609375,1.0162353515625,0.8544921278953552,-0.1831054538488388,0.30517578125
41477,0.034912109375,0.136474609375,1.0164794921875,0.7934569716453552,-0.2441406100988388,0.30517578125
41493,0.0333251953125,0.135009765625,1.0150146484375,0.8544921278953552,-0.1831054538488388,0.30517578125
41543,0.03466796875,0.1361083984375,1.015380859375,0.7934569716453552,-0.2441406100988388,0.2441406100988388
41599,0.0333251953125,0.136474609375,1.015625,0.7934569716453552,-0.1831054538488388,0.30517578125
41648,0.033935546875,0.1370849609375,1.0162353515625,0.7934569716453552,-0.1831054538488388,0.2441406100988388
41665,0.03369140625,0.1368408203125,1.0150146484375,0.7934569716453552,-0.2441406100988388,0.2441406100988388
41698,0.03466796875,0.1361083984375,1.015869140625,0.7934569716453552,-0.1831054538488388,0.2441406100988388
41715,0.0340576171875,0.1357421875,1.015380859375,0.7934569716453552,-0.1831054538488388,0.30517578125
41732,0.0343017578125,0.1358642578125,1.015625,0.7934569716453552,-0.1831054538488388,0.30517578125
41748,0.033447265625,0.135498046875,1.017578125,0.7934569716453552,-0.1831054538488388,0.30517578125
41767,0.0343017578125,0.1363525390625,1.01611328125,0.7934569716453552,-0.1220703050494194,0.2441406100988388
41822,0.0343017578125,0.1361083984375,1.01611328125,0.7934569716453552,-0.2441406100988388,0.30517578125
41839,0.0343017578125,0.13623046875,1.016357421875,0.8544921278953552,-0.1831054538488388,0.30517578125
41855,0.0341796875,0.1358642578125,1.015380859375,0.9155272841453552,-0.1831054538488388,0.30517578125
41872,0.033935546875,0.1363525390625,1.0152587890625,0.7934569716453552,-0.1831054538488388,0.2441406100988388
41891,0.033203125,0.136474609375,1.0177001953125,0.7934569716453552,-0.2441406100988388,0.2441406100988388
41907,0.0340576171875,0.1363525390625,1.016357421875,0.8544921278953552,-0.1831054538488388,0.30517578125
41945,0.0343017578125,0.135986328125,1.0177001953125,0.7934569716453552,-0.1220703050494194,0.2441406100988388
41961,0.03564453125,0.13525390625,1.016357421875,0.8544921278953552,-0.1831054538488388,0.2441406100988388
41978,0.03515625,0.1358642578125,1.015869140625,0.8544921278953552,-0.1831054538488388,0.2441406100988388
41995,0.0347900390625,0.1365966796875,1.0159912109375,0.7324218153953552,-0.1831054538488388,0.2441406100988388
42011,0.033935546875,0.13720703125,1.0155029296875,0.7934569716453552,-0.1831054538488388,0.1831054538488388
42028,0.033935546875,0.13623046875,1.014404296875,0.8544921278953552,-0.30517578125,0.2441406100988388
42065,0.0352783203125,0.13623046875,1.0169677734375,0.8544921278953552,-0.1831054538488388,0.30517578125
42087,0.0347900390625,0.135986328125,1.0166015625,0.7934569716453552,-0.1831054538488388,0.2441406100988388
42103,0.0347900390625,0.1363525390625,1.01513671875,0.7934569716453552,-0.1831054538488388,0.2441406100988388
42124,0.0350341796875,0.136474609375,1.0164794921875,0.7934569716453552,-0.2441406100988388,0.30517578125
42141,0.0343017578125,0.1358642578125,1.0152587890625,0.8544921278953552,-0.2441406100988388,0.30517578125
42206,0.0340576171875,0.1361083984375,1.0164794921875,0.8544921278953552,-0.1831054538488388,0.2441406100988388
42249,0.0345458984375,0.13671875,1.017333984375,0.8544921278953552,-0.1831054538488388,0.2441406100988388
42261,0.0338134765625,0.135498046875,1.0152587890625,0.7934569716453552,-0.30517578125,0.1831054538488388
42294,0.034423828125,0.135986328125,1.016357421875,0.8544921278953552,-0.1220703050494194,0.2441406100988388
42311,0.0340576171875,0.135986328125,1.015380859375,0.7934569716453552,-0.1220703050494194,0.2441406100988388
42328,0.0343017578125,0.1361083984375,1.016845703125,0.7934569716453552,-0.1831054538488388,0.2441406100988388
42349,0.0341796875,0.1358642578125,1.0162353515625,0.8544921278953552,-0.1831054538488388,0.2441406100988388
42368,0.0335693359375,0.1368408203125,1.0157470703125,0.8544921278953552,-0.1831054538488388,0.2441406100988388
42384,0.0338134765625,0.13671875,1.0152587890625,0.7934569716453552,-0.2441406100988388,0.2441406100988388
42415,0.0343017578125,0.1363525390625,1.0166015625,0.8544921278953552,-0.1831054538488388,0.2441406100988388
42431,0.033935546875,0.1357421875,1.0145263671875,0.8544921278953552,-0.1831054538488388,0.1831054538488388
42448,0.0343017578125,0.1358642578125,1.013916015625,0.9155272841453552,-0.2441406100988388,0.2441406100988388
42481,0.03369140625,0.1358642578125,1.0162353515625,0.7934569716453552,-0.1831054538488388,0.2441406100988388
42501,0.0335693359375,0.1361083984375,1.0169677734375,0.7934569716453552,-0.1831054538488388,0.2441406100988388
42517,0.0340576171875,0.136962890625,1.01513671875,0.7934569716453552,-0.1831054538488388,0.2441406100988388
42533,0.0340576171875,0.1370849609375,1.0162353515625,0.9155272841453552,-0.1831054538488388,0.3662109076976776
42549,0.0338134765625,0.1356201171875,1.01611328125,0.9155272841453552,-0.1831054538488388,0.30517578125
42565,0.0333251953125,0.13623046875,1.0166015625,0.7934569716453552,-0.1831054538488388,0.2441406100988388
42597,0.0352783203125,0.135009765625,1.0076904296875,0.7934569716453552,-0.1831054538488388,0.2441406100988388
42619,0.033203125,0.1353759765625,1.0130615234375,0.8544921278953552,-0.1831054538488388,0.2441406100988388
42635,0.0343017578125,0.13671875,1.0250244140625,0.8544921278953552,-0.2441406100988388,0.2441406100988388
42652,0.036865234375,0.1346435546875,1.001220703125,0.8544921278953552,-0.2441406100988388,0.30517578125
42669,0.030517578125,0.1373291015625,1.029296875,0.8544921278953552,-0.1831054538488388,0.30517578125
42685,0.0311279296875,0.1351318359375,1.0159912109375,0.8544921278953552,-0.2441406100988388,0.2441406100988388
42717,0.03515625,0.1363525390625,1.0196533203125,0.8544921278953552,-0.2441406100988388,0.2441406100988388
42734,0.0345458984375,0.1346435546875,1.0101318359375,0.8544921278953552,-0.1831054538488388,0.1831054538488388
42753,0.033935546875,0.135986328125,1.0198974609375,0.8544921278953552,-0.1831054538488388,0.1831054538488388
42769,0.0341796875,0.13671875,1.0152587890625,0.7934569716453552,-0.1831054538488388,0.1831054538488388
42830,0.0343017578125,0.13623046875,1.01513671875,0.9155272841453552,-0.1831054538488388,0.30517578125
42853,0.0341796875,0.1378173828125,1.017822265625,0.9155272841453552,-0.1831054538488388,0.30517578125
42870,0.0341796875,0.1358642578125,1.01318359375,0.8544921278953552,-0.2441406100988388,0.2441406100988388
42887,0.033935546875,0.1358642578125,1.01416015625,0.8544921278953552,-0.1831054538488388,0.2441406100988388
42939,0.0343017578125,0.1376953125,1.0191650390625,0.7934569716453552,-0.1220703050494194,0.30517578125
42971,0.0335693359375,0.1357421875,1.01416015625,0.8544921278953552,-0.1831054538488388,0.2441406100988388
42983,0.0343017578125,0.1358642578125,1.0140380859375,0.8544921278953552,-0.2441406100988388,0.2441406100988388
43015,0.0361328125,0.135498046875,1.015869140625,0.8544921278953552,-0.2441406100988388,0.2441406100988388
43032,0.034423828125,0.1370849609375,1.0177001953125,0.8544921278953552,-0.1831054538488388,0.2441406100988388
43052,0.0341796875,0.1365966796875,1.0155029296875,0.7934569716453552,-0.1220703050494194,0.2441406100988388
43068,0.0355224609375,0.1368408203125,1.0152587890625,0.7934569716453552,-0.1220703050494194,0.2441406100988388
43087,0.03515625,0.136474609375,1.013916015625,0.7934569716453552,-0.1831054538488388,0.30517578125
43104,0.0338134765625,0.1361083984375,1.0179443359375,0.8544921278953552,-0.1831054538488388,0.2441406100988388
43135,0.03466796875,0.1365966796875,1.0167236328125,0.8544921278953552,-0.2441406100988388,0.30517578125
43151,0.0350341796875,0.1361083984375,1.0169677734375,0.7934569716453552,-0.1831054538488388,0.30517578125
43167,0.034423828125,0.135986328125,1.015625,0.8544921278953552,-0.1831054538488388,0.2441406100988388
43199,0.034912109375,0.136474609375,1.015625,0.8544921278953552,-0.2441406100988388,0.2441406100988388
43249,0.033447265625,0.1358642578125,1.0150146484375,0.8544921278953552,-0.2441406100988388,0.30517578125
43274,0.0361328125,0.1357421875,1.0185546875,0.7934569716453552,-0.1831054538488388,0.2441406100988388
43291,0.0338134765625,0.136474609375,1.0169677734375,0.7934569716453552,-0.2441406100988388,0.2441406100988388
43308,0.033935546875,0.13671875,1.014892578125,0.8544921278953552,-0.2441406100988388,0.2441406100988388
43326,0.0350341796875,0.1368408203125,1.01611328125,0.8544921278953552,-0.1831054538488388,0.2441406100988388
43342,0.034423828125,0.13623046875,1.014892578125,0.8544921278953552,-0.2441406100988388,0.2441406100988388
43375,0.033935546875,0.1368408203125,1.0166015625,0.8544921278953552,-0.2441406100988388,0.2441406100988388
43397,0.034912109375,0.137451171875,1.015869140625,0.8544921278953552,-0.1831054538488388,0.1831054538488388
43413,0.0352783203125,0.13623046875,1.0147705078125,0.8544921278953552,-0.1831054538488388,0.2441406100988388
43425,0.0347900390625,0.136474609375,1.0152587890625,0.8544921278953552,-0.1220703050494194,0.3662109076976776
43444,0.03466796875,0.13671875,1.0140380859375,0.7934569716453552,-0.1831054538488388,0.30517578125
43461,0.0341796875,0.136962890625,1.017578125,0.8544921278953552,-0.2441406100988388,0.1831054538488388
43478,0.03369140625,0.1368408203125,1.0194091796875,0.8544921278953552,-0.2441406100988388,0.2441406100988388
43494,0.0341796875,0.136474609375,1.0152587890625,0.7934569716453552,-0.1831054538488388,0.2441406100988388
43515,0.0362548828125,0.1351318359375,1.014892578125,0.8544921278953552,-0.1831054538488388,0.2441406100988388
43531,0.0355224609375,0.135498046875,1.0172119140625,0.8544921278953552,-0.1831054538488388,0.2441406100988388
43543,0.034912109375,0.135986328125,1.0167236328125,0.7934569716453552,-0.30517578125,0.30517578125
43564,0.0343017578125,0.13623046875,1.0169677734375,0.8544921278953552,-0.30517578125,0.3662109076976776
43579,0.0340576171875,0.1361083984375,1.015625,0.7934569716453552,-0.30517578125,0.30517578125
43596,0.0343017578125,0.1351318359375,1.0142822265625,0.7934569716453552,-0.1831054538488388,0.2441406100988388
43613,0.0343017578125,0.134765625,1.0155029296875,0.8544921278953552,-0.1220703050494194,0.30517578125
43631,0.034423828125,0.13623046875,1.01416015625,0.7934569716453552,-0.1831054538488388,0.2441406100988388
43652,0.0341796875,0.1363525390625,1.0123291015625,0.7934569716453552,-0.2441406100988388,0.2441406100988388
43668,0.034423828125,0.135986328125,1.016357421875,0.7934569716453552,-0.2441406100988388,0.2441406100988388
43682,0.032958984375,0.13623046875,1.0147705078125,0.8544921278953552,-0.1220703050494194,0.2441406100988388
43699,0.0325927734375,0.136962890625,1.020263671875,0.9155272841453552,-0.1831054538488388,0.30517578125
43730,0.0345458984375,0.1348876953125,1.00927734375,0.7934569716453552,-0.2441406100988388,0.1831054538488388
43750,0.03466796875,0.1373291015625,1.0189208984375,0.8544921278953552,-0.2441406100988388,0.2441406100988388
43766,0.0341796875,0.1376953125,1.0238037109375,0.8544921278953552,-0.1831054538488388,0.2441406100988388
43795,0.0335693359375,0.1368408203125,1.0137939453125,0.7934569716453552,-0.1831054538488388,0.30517578125
43817,0.035400390625,0.1351318359375,1.0145263671875,0.8544921278953552,-0.2441406100988388,0.2441406100988388
43833,0.0343017578125,0.1348876953125,1.009033203125,0.8544921278953552,-0.2441406100988388,0.2441406100988388
43845,0.0330810546875,0.1356201171875,1.012939453125,0.7934569716453552,-0.1831054538488388,0.30517578125
43864,0.0335693359375,0.1368408203125,1.018798828125,0.7934569716453552,-0.1220703050494194,0.2441406100988388
43881,0.0357666015625,0.1358642578125,1.013916015625,0.7934569716453552,-0.2441406100988388,0.2441406100988388
43898,0.03564453125,0.13671875,1.01708984375,0.8544921278953552,-0.2441406100988388,0.2441406100988388
43919,0.0333251953125,0.1363525390625,1.0206298828125,0.7934569716453552,-0.1220703050494194,0.30517578125
43969,0.03515625,0.1358642578125,1.012451171875,0.8544921278953552,-0.1831054538488388,0.2441406100988388
43987,0.0347900390625,0.13623046875,1.0185546875,0.7934569716453552,-0.2441406100988388,0.1831054538488388
44002,0.033447265625,0.1365966796875,1.017333984375,0.8544921278953552,-0.1831054538488388,0.2441406100988388
44035,0.0352783203125,0.135986328125,1.0137939453125,0.7324218153953552,-0.1831054538488388,0.2441406100988388
44055,0.03369140625,0.1363525390625,1.0164794921875,0.7934569716453552,-0.2441406100988388,0.2441406100988388
44071,0.0338134765625,0.1356201171875,1.014892578125,0.7934569716453552,-0.1831054538488388,0.2441406100988388
44088,0.03466796875,0.1357421875,1.015869140625,0.8544921278953552,-0.1831054538488388,0.30517578125
44107,0.03564453125,0.1375732421875,1.0186767578125,0.8544921278953552,-0.1831054538488388,0.30517578125
44124,0.0343017578125,0.135986328125,1.0123291015625,0.7934569716453552,-0.1831054538488388,0.2441406100988388
44153,0.0335693359375,0.135498046875,1.0145263671875,0.7934569716453552,-0.2441406100988388,0.2441406100988388
44207,0.0328369140625,0.1353759765625,1.012451171875,0.8544921278953552,-0.2441406100988388,0.2441406100988388
44221,0.0347900390625,0.1370849609375,1.017822265625,0.8544921278953552,-0.2441406100988388,0.2441406100988388
44238,0.034912109375,0.137451171875,1.02001953125,0.8544921278953552,-0.2441406100988388,0.2441406100988388
44271,0.0338134765625,0.136474609375,1.01806640625,0.8544921278953552,-0.1831054538488388,0.2441406100988388
44290,0.033447265625,0.1370849609375,1.0174560546875,0.9155272841453552,-0.2441406100988388,0.2441406100988388
44307,0.03369140625,0.1361083984375,1.0125732421875,0.8544921278953552,-0.2441406100988388,0.30517578125
44326,0.03515625,0.1361083984375,1.0147705078125,0.8544921278953552,-0.1831054538488388,0.2441406100988388
44346,0.0333251953125,0.1363525390625,1.0166015625,0.8544921278953552,-0.1831054538488388,0.2441406100988388
44363,0.0338134765625,0.136962890625,1.017822265625,0.8544921278953552,-0.2441406100988388,0.2441406100988388
44396,0.034912109375,0.135986328125,1.0157470703125,0.8544921278953552,-0.1831054538488388,0.30517578125
44413,0.032470703125,0.1361083984375,1.017578125,0.7934569716453552,-0.2441406100988388,0.30517578125
44430,0.032958984375,0.1361083984375,1.0164794921875,0.7934569716453552,-0.2441406100988388,0.30517578125
44446,0.034912109375,0.1368408203125,1.0147705078125,0.8544921278953552,-0.2441406100988388,0.2441406100988388
44464,0.033935546875,0.1370849609375,1.0164794921875,0.8544921278953552,-0.2441406100988388,0.2441406100988388
44480,0.0335693359375,0.13623046875,1.0159912109375,0.7934569716453552,-0.2441406100988388,0.2441406100988388
44513,0.0357666015625,0.1357421875,1.015869140625,0.8544921278953552,-0.2441406100988388,0.2441406100988388
44529,0.0350341796875,0.1358642578125,1.0150146484375,0.9155272841453552,-0.2441406100988388,0.2441406100988388
44545,0.033935546875,0.136474609375,1.015380859375,0.8544921278953552,-0.1831054538488388,0.2441406100988388
44583,0.03466796875,0.1363525390625,1.0169677734375,0.8544921278953552,-0.2441406100988388,0.2441406100988388
44600,0.0335693359375,0.136962890625,1.016845703125,0.7934569716453552,-0.2441406100988388,0.2441406100988388
44616,0.034423828125,0.136474609375,1.0159912109375,0.7934569716453552,-0.2441406100988388,0.2441406100988388
44633,0.0341796875,0.1363525390625,1.0157470703125,0.7934569716453552,-0.1831054538488388,0.3662109076976776
44650,0.0335693359375,0.1365966796875,1.0164794921875,0.8544921278953552,-0.1831054538488388,0.30517578125
44665,0.03515625,0.136474609375,1.0157470703125,0.8544921278953552,-0.2441406100988388,0.2441406100988388
44687,0.03515625,0.1358642578125,1.0155029296875,0.8544921278953552,-0.1831054538488388,0.2441406100988388
44754,0.03369140625,0.1363525390625,1.01611328125,0.8544921278953552,-0.2441406100988388,0.30517578125
44771,0.0341796875,0.1357421875,1.016845703125,0.8544921278953552,-0.1831054538488388,0.2441406100988388
44788,0.0347900390625,0.13671875,1.015869140625,0.8544921278953552,-0.2441406100988388,0.1831054538488388
44821,0.03369140625,0.1358642578125,1.01611328125,0.9155272841453552,-0.2441406100988388,0.2441406100988388
44837,0.0343017578125,0.1363525390625,1.0162353515625,0.8544921278953552,-0.2441406100988388,0.2441406100988388
44854,0.0343017578125,0.1358642578125,1.0169677734375,0.8544921278953552,-0.2441406100988388,0.30517578125
44871,0.034423828125,0.1356201171875,1.01611328125,0.7934569716453552,-0.2441406100988388,0.2441406100988388
44890,0.0350341796875,0.1358642578125,1.01513671875,0.7934569716453552,-0.1220703050494194,0.1831054538488388
44906,0.0347900390625,0.13623046875,1.016357421875,0.9155272841453552,-0.1831054538488388,0.30517578125
44941,0.033447265625,0.13720703125,1.0159912109375,0.8544921278953552,-0.2441406100988388,0.30517578125
44957,0.0343017578125,0.1361083984375,1.0157470703125,0.8544921278953552,-0.30517578125,0.30517578125
44990,0.0340576171875,0.1356201171875,1.016357421875,0.7934569716453552,-0.1831054538488388,0.2441406100988388
45009,0.0345458984375,0.136474609375,1.0157470703125,0.8544921278953552,-0.1220703050494194,0.2441406100988388
45025,0.035400390625,0.13671875,1.0159912109375,0.8544921278953552,-0.2441406100988388,0.2441406100988388
45061,0.0345458984375,0.1358642578125,1.01513671875,0.8544921278953552,-0.2441406100988388,0.2441406100988388
45077,0.03515625,0.136474609375,1.0167236328125,0.8544921278953552,-0.2441406100988388,0.2441406100988388
45094,0.0343017578125,0.1358642578125,1.016845703125,0.7934569716453552,-0.2441406100988388,0.30517578125
45111,0.0341796875,0.1351318359375,1.015625,0.7934569716453552,-0.2441406100988388,0.30517578125
45129,0.03515625,0.13671875,1.0145263671875,0.7934569716453552,-0.1831054538488388,0.2441406100988388
45145,0.0330810546875,0.136962890625,1.016357421875,0.7934569716453552,-0.2441406100988388,0.30517578125
45179,0.0347900390625,0.1361083984375,1.0155029296875,0.8544921278953552,-0.1831054538488388,0.2441406100988388
45200,0.0341796875,0.1370849609375,1.0152587890625,0.7324218153953552,-0.1831054538488388,0.2441406100988388
45216,0.0360107421875,0.1370849609375,1.0155029296875,0.7934569716453552,-0.1831054538488388,0.2441406100988388
45233,0.0357666015625,0.1361083984375,1.01611328125,0.8544921278953552,-0.1831054538488388,0.2441406100988388
45250,0.0335693359375,0.13623046875,1.016357421875,0.7934569716453552,-0.2441406100988388,0.2441406100988388
45266,0.0347900390625,0.1368408203125,1.0157470703125,0.7934569716453552,-0.1831054538488388,0.1831054538488388
45296,0.0347900390625,0.1358642578125,1.015869140625,0.8544921278953552,-0.2441406100988388,0.2441406100988388
45317,0.0350341796875,0.1361083984375,1.0167236328125,0.8544921278953552,-0.2441406100988388,0.2441406100988388
45332,0.033447265625,0.1370849609375,1.017822265625,0.7934569716453552,-0.1831054538488388,0.30517578125
45349,0.034423828125,0.136962890625,1.017822265625,0.8544921278953552,-0.1831054538488388,0.30517578125
45368,0.0361328125,0.1368408203125,1.0155029296875,0.7934569716453552,-0.1220703050494194,0.2441406100988388
45385,0.0340576171875,0.136962890625,1.0164794921875,0.7934569716453552,-0.1831054538488388,0.30517578125
45416,0.0350341796875,0.1361083984375,1.0146484375,0.7934569716453552,-0.1831054538488388,0.2441406100988388
45438,0.03466796875,0.13623046875,1.0140380859375,0.8544921278953552,-0.1831054538488388,0.1831054538488388
45454,0.033935546875,0.1358642578125,1.0159912109375,0.9155272841453552,-0.1831054538488388,0.2441406100988388
45471,0.0345458984375,0.13671875,1.015869140625,0.8544921278953552,-0.2441406100988388,0.2441406100988388
45488,0.0343017578125,0.136474609375,1.0169677734375,0.8544921278953552,-0.2441406100988388,0.2441406100988388
45504,0.0340576171875,0.1363525390625,1.0169677734375,0.8544921278953552,-0.1831054538488388,0.2441406100988388
45535,0.034423828125,0.136474609375,1.0155029296875,0.7934569716453552,-0.2441406100988388,0.2441406100988388
45555,0.0347900390625,0.1361083984375,1.0147705078125,0.8544921278953552,-0.2441406100988388,0.2441406100988388
45571,0.0345458984375,0.1356201171875,1.0137939453125,0.7934569716453552,-0.1831054538488388,0.2441406100988388
45588,0.03466796875,0.1357421875,1.01708984375,0.7934569716453552,-0.1831054538488388,0.2441406100988388
45606,0.034912109375,0.135498046875,1.0172119140625,0.9155272841453552,-0.2441406100988388,0.2441406100988388
45656,0.0343017578125,0.135498046875,1.015625,0.8544921278953552,-0.1831054538488388,0.2441406100988388
45673,0.0338134765625,0.135986328125,1.0166015625,0.7934569716453552,-0.1831054538488388,0.2441406100988388
45689,0.033935546875,0.1365966796875,1.0152587890625,0.7934569716453552,-0.1220703050494194,0.2441406100988388
45706,0.03466796875,0.1363525390625,1.0155029296875,0.8544921278953552,-0.1220703050494194,0.2441406100988388
45727,0.03515625,0.1353759765625,1.016357421875,0.9155272841453552,-0.1831054538488388,0.2441406100988388
45743,0.0345458984375,0.1361083984375,1.0152587890625,0.7934569716453552,-0.2441406100988388,0.2441406100988388
45777,0.033935546875,0.1353759765625,1.0164794921875,0.8544921278953552,-0.1220703050494194,0.1831054538488388
45794,0.0343017578125,0.1357421875,1.016845703125,0.7934569716453552,-0.1831054538488388,0.2441406100988388
45815,0.034423828125,0.13671875,1.015625,0.7934569716453552,-0.2441406100988388,0.30517578125
45865,0.03466796875,0.1363525390625,1.0162353515625,0.7934569716453552,-0.2441406100988388,0.2441406100988388
45909,0.0341796875,0.13525390625,1.01611328125,0.7934569716453552,-0.1220703050494194,0.2441406100988388
45926,0.0350341796875,0.13525390625,1.0152587890625,0.8544921278953552,-0.1220703050494194,0.2441406100988388
45955,0.0333251953125,0.1361083984375,1.0150146484375,0.8544921278953552,-0.2441406100988388,0.2441406100988388
45972,0.0341796875,0.135986328125,1.0150146484375,0.8544921278953552,-0.2441406100988388,0.3662109076976776
45988,0.0350341796875,0.1356201171875,1.0152587890625,0.8544921278953552,-0.2441406100988388,0.2441406100988388
46009,0.03515625,0.13525390625,1.0167236328125,0.8544921278953552,-0.2441406100988388,0.2441406100988388
46026,0.0357666015625,0.1357421875,1.0181884765625,0.8544921278953552,-0.2441406100988388,0.1831054538488388
46043,0.033935546875,0.136474609375,1.0167236328125,0.7934569716453552,-0.2441406100988388,0.2441406100988388
46075,0.0343017578125,0.1361083984375,1.015625,0.8544921278953552,-0.1831054538488388,0.30517578125
46092,0.03466796875,0.1370849609375,1.0150146484375,0.8544921278953552,-0.1831054538488388,0.2441406100988388
46108,0.0341796875,0.135498046875,1.0164794921875,0.8544921278953552,-0.2441406100988388,0.2441406100988388
46129,0.0345458984375,0.135009765625,1.0162353515625,0.8544921278953552,-0.2441406100988388,0.2441406100988388
46148,0.034912109375,0.1363525390625,1.015625,0.8544921278953552,-0.2441406100988388,0.30517578125
46164,0.0347900390625,0.1357421875,1.0157470703125,0.7934569716453552,-0.2441406100988388,0.30517578125
46195,0.0343017578125,0.13623046875,1.0162353515625,0.8544921278953552,-0.2441406100988388,0.2441406100988388
46210,0.03466796875,0.1358642578125,1.0150146484375,0.8544921278953552,-0.2441406100988388,0.2441406100988388
46227,0.034423828125,0.1361083984375,1.0146484375,0.8544921278953552,-0.2441406100988388,0.2441406100988388
46257,0.0335693359375,0.134765625,1.0162353515625,0.8544921278953552,-0.1831054538488388,0.2441406100988388
46278,0.0343017578125,0.1351318359375,1.016845703125,0.8544921278953552,-0.2441406100988388,0.30517578125
46295,0.033447265625,0.136474609375,1.0157470703125,0.7934569716453552,-0.2441406100988388,0.2441406100988388
46312,0.03466796875,0.135986328125,1.0140380859375,0.7934569716453552,-0.1831054538488388,0.1831054538488388
46328,0.0345458984375,0.13671875,1.0162353515625,0.8544921278953552,-0.1220703050494194,0.2441406100988388
46345,0.03466796875,0.1365966796875,1.015869140625,0.8544921278953552,-0.1831054538488388,0.3662109076976776
46376,0.0345458984375,0.13671875,1.015625,0.7934569716453552,-0.2441406100988388,0.2441406100988388
46396,0.0338134765625,0.13671875,1.015380859375,0.8544921278953552,-0.1220703050494194,0.2441406100988388
46413,0.03369140625,0.1358642578125,1.0162353515625,0.9155272841453552,-0.1220703050494194,0.2441406100988388
46430,0.0340576171875,0.136474609375,1.0166015625,0.8544921278953552,-0.2441406100988388,0.2441406100988388
46447,0.0345458984375,0.13671875,1.0162353515625,0.8544921278953552,-0.1831054538488388,0.2441406100988388
46463,0.034912109375,0.13671875,1.015380859375,0.8544921278953552,-0.1831054538488388,0.30517578125
46496,0.033935546875,0.135009765625,1.0166015625,0.8544921278953552,-0.1831054538488388,0.2441406100988388
46518,0.0343017578125,0.1365966796875,1.014892578125,0.7934569716453552,-0.2441406100988388,0.2441406100988388
46534,0.0345458984375,0.1361083984375,1.015625,0.8544921278953552,-0.2441406100988388,0.2441406100988388
46551,0.034423828125,0.1353759765625,1.0162353515625,0.7934569716453552,-0.2441406100988388,0.2441406100988388
46568,0.0341796875,0.13623046875,1.0162353515625,0.7324218153953552,-0.2441406100988388,0.2441406100988388
46583,0.0345458984375,0.13818359375,1.016357421875,0.7324218153953552,-0.2441406100988388,0.2441406100988388
46617,0.03369140625,0.13623046875,1.01513671875,0.8544921278953552,-0.1831054538488388,0.2441406100988388
46669,0.033935546875,0.1357421875,1.0189208984375,0.8544921278953552,-0.2441406100988388,0.30517578125
46694,0.03369140625,0.136474609375,1.014892578125,0.7934569716453552,-0.2441406100988388,0.2441406100988388
46709,0.0345458984375,0.1363525390625,1.015869140625,0.8544921278953552,-0.2441406100988388,0.30517578125
46726,0.0347900390625,0.1358642578125,1.015869140625,0.8544921278953552,-0.2441406100988388,0.2441406100988388
46746,0.0340576171875,0.135498046875,1.013916015625,0.7934569716453552,-0.1831054538488388,0.2441406100988388
46762,0.0341796875,0.13720703125,1.0169677734375,0.8544921278953552,-0.2441406100988388,0.30517578125
46779,0.0340576171875,0.1373291015625,1.017333984375,0.7934569716453552,-0.2441406100988388,0.30517578125
46795,0.033935546875,0.1357421875,1.0159912109375,0.7934569716453552,-0.2441406100988388,0.2441406100988388
46817,0.0352783203125,0.136474609375,1.014892578125,0.8544921278953552,-0.1831054538488388,0.30517578125
46833,0.033203125,0.137451171875,1.015869140625,0.8544921278953552,-0.2441406100988388,0.30517578125
46845,0.033935546875,0.1363525390625,1.016357421875,0.7934569716453552,-0.1831054538488388,0.2441406100988388
46866,0.0347900390625,0.1365966796875,1.0169677734375,0.7934569716453552,-0.1831054538488388,0.2441406100988388
46881,0.0341796875,0.1368408203125,1.017333984375,0.7934569716453552,-0.1831054538488388,0.2441406100988388
46898,0.0343017578125,0.1365966796875,1.01611328125,0.7934569716453552,-0.1831054538488388,0.2441406100988388
46915,0.0338134765625,0.13623046875,1.0146484375,0.8544921278953552,-0.1831054538488388,0.30517578125
46932,0.0341796875,0.13623046875,1.0140380859375,0.8544921278953552,-0.2441406100988388,0.2441406100988388
46948,0.033935546875,0.13623046875,1.0174560546875,0.8544921278953552,-0.2441406100988388,0.2441406100988388
46974,0.0330810546875,0.13671875,1.0167236328125,0.7934569716453552,-0.1220703050494194,0.1831054538488388
46991,0.034912109375,0.13720703125,1.01611328125,0.7934569716453552,-0.1220703050494194,0.2441406100988388
47007,0.0352783203125,0.1365966796875,1.0169677734375,0.8544921278953552,-0.2441406100988388,0.3662109076976776
47036,0.0341796875,0.1356201171875,1.0164794921875,0.8544921278953552,-0.1831054538488388,0.30517578125
47058,0.0341796875,0.1361083984375,1.015869140625,0.8544921278953552,-0.1831054538488388,0.30517578125
47074,0.0347900390625,0.1353759765625,1.0135498046875,0.7934569716453552,-0.2441406100988388,0.2441406100988388
47091,0.034423828125,0.1353759765625,1.014892578125,0.8544921278953552,-0.2441406100988388,0.1831054538488388
47108,0.0338134765625,0.1361083984375,1.0172119140625,0.8544921278953552,-0.1220703050494194,0.30517578125
47124,0.034423828125,0.1358642578125,1.0152587890625,0.7934569716453552,-0.1831054538488388,0.2441406100988388
47158,0.0350341796875,0.13671875,1.0155029296875,0.7934569716453552,-0.2441406100988388,0.2441406100988388
47174,0.0340576171875,0.1361083984375,1.0166015625,0.9155272841453552,-0.2441406100988388,0.2441406100988388
47191,0.0341796875,0.13623046875,1.0177001953125,0.8544921278953552,-0.2441406100988388,0.2441406100988388
47207,0.034912109375,0.1351318359375,1.013671875,0.7934569716453552,-0.1831054538488388,0.30517578125
47226,0.0357666015625,0.1358642578125,1.012939453125,0.7934569716453552,-0.1831054538488388,0.30517578125
47243,0.03466796875,0.136474609375,1.01904296875,0.8544921278953552,-0.2441406100988388,0.30517578125
47276,0.0341796875,0.1363525390625,1.0147705078125,0.7934569716453552,-0.2441406100988388,0.2441406100988388
47293,0.0352783203125,0.13671875,1.01513671875,0.8544921278953552,-0.2441406100988388,0.2441406100988388
47309,0.0343017578125,0.13671875,1.01513671875,0.8544921278953552,-0.1831054538488388,0.30517578125
47345,0.034423828125,0.135498046875,1.0157470703125,0.7934569716453552,-0.2441406100988388,0.30517578125
47367,0.03515625,0.1358642578125,1.0194091796875,0.7934569716453552,-0.2441406100988388,0.30517578125
47383,0.033935546875,0.13671875,1.018310546875,0.7934569716453552,-0.1831054538488388,0.30517578125
47398,0.0347900390625,0.1368408203125,1.015869140625,0.8544921278953552,-0.1831054538488388,0.2441406100988388
47414,0.03515625,0.1365966796875,1.015869140625,0.8544921278953552,-0.1831054538488388,0.2441406100988388
47431,0.0347900390625,0.135986328125,1.015869140625,0.9155272841453552,-0.2441406100988388,0.30517578125
47448,0.032958984375,0.1361083984375,1.015625,0.8544921278953552,-0.2441406100988388,0.2441406100988388
47468,0.0335693359375,0.135986328125,1.015869140625,0.7934569716453552,-0.2441406100988388,0.30517578125
47489,0.0350341796875,0.1363525390625,1.0140380859375,0.7934569716453552,-0.1831054538488388,0.30517578125
47504,0.0343017578125,0.13671875,1.015380859375,0.7934569716453552,-0.1831054538488388,0.2441406100988388
47524,0.0340576171875,0.136474609375,1.0147705078125,0.7934569716453552,-0.1831054538488388,0.2441406100988388
47541,0.033447265625,0.1361083984375,1.0169677734375,0.7934569716453552,-0.1831054538488388,0.2441406100988388
47574,0.03466796875,0.1373291015625,1.0146484375,0.8544921278953552,-0.1831054538488388,0.30517578125
47591,0.034912109375,0.136962890625,1.0145263671875,0.9155272841453552,-0.1220703050494194,0.2441406100988388
47607,0.0343017578125,0.1358642578125,1.01611328125,0.8544921278953552,-0.2441406100988388,0.2441406100988388
47642,0.034423828125,0.135986328125,1.015869140625,0.7934569716453552,-0.1831054538488388,0.2441406100988388
47658,0.0350341796875,0.13623046875,1.0162353515625,0.8544921278953552,-0.1831054538488388,0.2441406100988388
47675,0.0345458984375,0.1361083984375,1.01708984375,0.7934569716453552,-0.1831054538488388,0.1831054538488388
47692,0.0340576171875,0.1363525390625,1.0155029296875,0.7934569716453552,-0.2441406100988388,0.2441406100988388
47710,0.034423828125,0.136962890625,1.0162353515625,0.7934569716453552,-0.2441406100988388,0.2441406100988388
47726,0.0335693359375,0.1368408203125,1.0162353515625,0.8544921278953552,-0.1831054538488388,0.2441406100988388
47757,0.0333251953125,0.1361083984375,1.01708984375,0.7934569716453552,-0.2441406100988388,0.2441406100988388
47778,0.0328369140625,0.1368408203125,1.015380859375,0.7934569716453552,-0.2441406100988388,0.30517578125
47795,0.033935546875,0.1358642578125,1.0123291015625,0.7934569716453552,-0.1831054538488388,0.2441406100988388
47812,0.034423828125,0.1353759765625,1.0107421875,0.8544921278953552,-0.1831054538488388,0.30517578125
47828,0.03466796875,0.136474609375,1.0203857421875,0.8544921278953552,-0.1831054538488388,0.30517578125
47845,0.03466796875,0.1365966796875,1.021240234375,0.7934569716453552,-0.1831054538488388,0.2441406100988388
47882,0.03369140625,0.1361083984375,1.012939453125,0.8544921278953552,-0.1220703050494194,0.2441406100988388
47898,0.0347900390625,0.13623046875,1.0179443359375,0.7934569716453552,-0.1831054538488388,0.2441406100988388
47910,0.0330810546875,0.136474609375,1.0142822265625,0.8544921278953552,-0.1831054538488388,0.2441406100988388
47927,0.0328369140625,0.135986328125,1.011962890625,0.8544921278953552,-0.1831054538488388,0.1831054538488388
47947,0.033935546875,0.13623046875,1.01220703125,0.8544921278953552,-0.1220703050494194,0.2441406100988388
47964,0.0347900390625,0.13671875,1.01611328125,0.8544921278953552,-0.0610351525247097,0.2441406100988388
47980,0.034912109375,0.135986328125,1.0185546875,0.8544921278953552,-0.1220703050494194,0.1831054538488388
47996,0.0345458984375,0.135498046875,1.0191650390625,0.8544921278953552,-0.1831054538488388,0.2441406100988388
48018,0.03466796875,0.1358642578125,1.0189208984375,0.8544921278953552,-0.1831054538488388,0.2441406100988388
48034,0.03564453125,0.1370849609375,1.0174560546875,0.7934569716453552,-0.1831054538488388,0.30517578125
48046,0.0350341796875,0.1361083984375,1.0150146484375,0.8544921278953552,-0.1831054538488388,0.30517578125
48064,0.0343017578125,0.1357421875,1.0137939453125,0.8544921278953552,-0.1831054538488388,0.30517578125
48080,0.0347900390625,0.1361083984375,1.017578125,0.8544921278953552,-0.2441406100988388,0.2441406100988388
48113,0.034912109375,0.1363525390625,1.0142822265625,0.8544921278953552,-0.2441406100988388,0.30517578125
48131,0.034423828125,0.13623046875,1.0162353515625,0.7934569716453552,-0.1831054538488388,0.30517578125
48150,0.0350341796875,0.1370849609375,1.015380859375,0.8544921278953552,-0.1831054538488388,0.2441406100988388
48166,0.03515625,0.1353759765625,1.012939453125,0.7934569716453552,-0.1831054538488388,0.2441406100988388
48235,0.035400390625,0.1351318359375,1.016357421875,0.8544921278953552,-0.2441406100988388,0.2441406100988388
48252,0.0350341796875,0.135009765625,1.013916015625,0.8544921278953552,-0.1831054538488388,0.2441406100988388
48269,0.0347900390625,0.13671875,1.01806640625,0.8544921278953552,-0.1220703050494194,0.2441406100988388
48289,0.035400390625,0.135498046875,1.0137939453125,0.9155272841453552,-0.1831054538488388,0.2441406100988388
48351,0.0345458984375,0.1358642578125,1.0157470703125,0.8544921278953552,-0.1831054538488388,0.2441406100988388
48374,0.033935546875,0.13671875,1.01513671875,0.9155272841453552,-0.2441406100988388,0.2441406100988388
48407,0.034423828125,0.136962890625,1.017578125,0.7934569716453552,-0.1831054538488388,0.30517578125
48447,0.03466796875,0.1370849609375,1.016357421875,0.8544921278953552,-0.2441406100988388,0.30517578125
48559,0.03515625,0.137451171875,1.0152587890625,0.7934569716453552,-0.2441406100988388,0.2441406100988388
48668,0.0341796875,0.1348876953125,1.0064697265625,0.7934569716453552,-0.2441406100988388,0.2441406100988388
48685,0.0345458984375,0.136474609375,1.015869140625,0.7324218153953552,-0.3662109076976776,0.30517578125
48718,0.0323486328125,0.13671875,1.014892578125,0.7934569716453552,-0.1831054538488388,0.2441406100988388
48752,0.0357666015625,0.135986328125,1.0166015625,0.7324218153953552,-0.2441406100988388,0.30517578125
48794,0.03271484375,0.1373291015625,1.0135498046875,0.7324218153953552,-0.1831054538488388,0.2441406100988388
48806,0.034912109375,0.1365966796875,1.01611328125,0.7324218153953552,-0.2441406100988388,0.2441406100988388
48839,0.033935546875,0.1368408203125,1.0174560546875,0.7934569716453552,-0.2441406100988388,0.2441406100988388
48856,0.0347900390625,0.1361083984375,1.0179443359375,0.7324218153953552,-0.2441406100988388,0.2441406100988388
48872,0.0343017578125,0.1370849609375,1.0164794921875,0.7324218153953552,-0.1831054538488388,0.1831054538488388
48889,0.035400390625,0.135986328125,1.0137939453125,0.7934569716453552,-0.1220703050494194,0.1831054538488388
48914,0.03466796875,0.1363525390625,1.0150146484375,0.8544921278953552,-0.1831054538488388,0.2441406100988388
48930,0.0343017578125,0.1365966796875,1.0167236328125,0.8544921278953552,-0.1831054538488388,0.30517578125
48947,0.033935546875,0.136962890625,1.0162353515625,0.8544921278953552,-0.1831054538488388,0.2441406100988388
48966,0.034423828125,0.1370849609375,1.0157470703125,0.7934569716453552,-0.1831054538488388,0.30517578125
48983,0.0345458984375,0.136962890625,1.0166015625,0.7934569716453552,-0.2441406100988388,0.1831054538488388
49015,0.0338134765625,0.13671875,1.0155029296875,0.8544921278953552,-0.1220703050494194,0.2441406100988388
49031,0.0341796875,0.137451171875,1.017333984375,0.8544921278953552,-0.1220703050494194,0.2441406100988388
49048,0.0350341796875,0.137451171875,1.0162353515625,0.8544921278953552,-0.2441406100988388,0.30517578125
49065,0.0341796875,0.1365966796875,1.0147705078125,0.8544921278953552,-0.1831054538488388,0.1831054538488388
49133,0.0355224609375,0.137939453125,1.02978515625,0.7934569716453552,-0.1831054538488388,0.2441406100988388
49156,0.03369140625,0.1346435546875,1.0089111328125,0.9765624403953552,-0.1220703050494194,0.2441406100988388
49172,0.03369140625,0.1348876953125,1.0103759765625,0.9765624403953552,-0.0610351525247097,0.2441406100988388
49184,0.037353515625,0.13623046875,1.01806640625,0.9155272841453552,-0.1831054538488388,0.2441406100988388
49254,0.0380859375,0.13623046875,1.0181884765625,0.9155272841453552,-0.1831054538488388,0.30517578125
49330,0.0350341796875,0.1351318359375,1.0111083984375,0.7934569716453552,-0.1831054538488388,0.30517578125
49347,0.033203125,0.135009765625,1.010498046875,0.8544921278953552,-0.1831054538488388,0.2441406100988388
49380,0.0360107421875,0.13671875,1.0194091796875,0.8544921278953552,-0.1831054538488388,0.30517578125
49397,0.0355224609375,0.1373291015625,1.016357421875,0.8544921278953552,-0.1831054538488388,0.30517578125
49413,0.033935546875,0.13623046875,1.0162353515625,0.8544921278953552,-0.2441406100988388,0.2441406100988388
49429,0.0328369140625,0.1353759765625,1.0140380859375,0.7934569716453552,-0.1831054538488388,0.2441406100988388
49448,0.0352783203125,0.13623046875,1.0162353515625,0.7934569716453552,-0.1831054538488388,0.2441406100988388
49465,0.03564453125,0.137451171875,1.019287109375,0.8544921278953552,-0.1831054538488388,0.30517578125
49482,0.03466796875,0.1373291015625,1.0203857421875,0.8544921278953552,-0.1831054538488388,0.30517578125
49498,0.03515625,0.13720703125,1.017822265625,0.7934569716453552,-0.2441406100988388,0.30517578125
49515,0.0357666015625,0.1357421875,1.0133056640625,0.7934569716453552,-0.30517578125,0.30517578125
49532,0.033203125,0.1357421875,1.012939453125,0.8544921278953552,-0.30517578125,0.2441406100988388
49549,0.03369140625,0.1348876953125,1.0091552734375,0.8544921278953552,-0.30517578125,0.2441406100988388
49572,0.0350341796875,0.1358642578125,1.016357421875,0.8544921278953552,-0.2441406100988388,0.1831054538488388
49605,0.03271484375,0.1346435546875,1.009521484375,0.7934569716453552,-0.1831054538488388,0.2441406100988388
49626,0.036865234375,0.1358642578125,1.013916015625,0.8544921278953552,-0.2441406100988388,0.30517578125
49642,0.0364990234375,0.1363525390625,1.0250244140625,0.8544921278953552,-0.2441406100988388,0.30517578125
49658,0.0313720703125,0.1368408203125,1.0179443359375,0.8544921278953552,-0.2441406100988388,0.30517578125
49675,0.0321044921875,0.1357421875,1.0128173828125,0.7934569716453552,-0.1831054538488388,0.2441406100988388
49692,0.0374755859375,0.135986328125,1.012451171875,0.7934569716453552,-0.1831054538488388,0.1831054538488388
49711,0.038330078125,0.1361083984375,1.0145263671875,0.8544921278953552,-0.1831054538488388,0.2441406100988388
49727,0.033203125,0.1363525390625,1.0166015625,0.7934569716453552,-0.2441406100988388,0.2441406100988388
49746,0.032958984375,0.1353759765625,1.013671875,0.7934569716453552,-0.1831054538488388,0.2441406100988388
49763,0.037353515625,0.1365966796875,1.0206298828125,0.7934569716453552,-0.2441406100988388,0.2441406100988388
49829,0.03515625,0.135498046875,1.0118408203125,0.7934569716453552,-0.2441406100988388,0.1831054538488388
49869,0.0335693359375,0.1376953125,1.0211181640625,0.8544921278953552,-0.1831054538488388,0.30517578125
49881,0.0360107421875,0.13623046875,1.0155029296875,0.7934569716453552,-0.1220703050494194,0.2441406100988388
49914,0.0340576171875,0.1358642578125,1.0130615234375,0.8544921278953552,-0.2441406100988388,0.2441406100988388
49946,0.0335693359375,0.1378173828125,1.013671875,0.9155272841453552,-0.1831054538488388,0.2441406100988388
50051,0.0357666015625,0.13623046875,1.0162353515625,0.8544921278953552,-0.1831054538488388,0.30517578125
50068,0.03466796875,0.1356201171875,1.0155029296875,0.8544921278953552,-0.1831054538488388,0.2441406100988388
50085,0.0341796875,0.1373291015625,1.0191650390625,0.9155272841453552,-0.1831054538488388,0.2441406100988388
50105,0.0369873046875,0.136474609375,1.01220703125,0.8544921278953552,-0.30517578125,0.2441406100988388
50122,0.0343017578125,0.13427734375,1.0142822265625,0.8544921278953552,-0.30517578125,0.30517578125
50139,0.032958984375,0.13525390625,1.023681640625,0.8544921278953552,-0.2441406100988388,0.30517578125
50159,0.0330810546875,0.134765625,1.0152587890625,0.8544921278953552,-0.1831054538488388,0.30517578125
50209,0.0340576171875,0.1361083984375,1.0198974609375,0.8544921278953552,-0.2441406100988388,0.1831054538488388
50233,0.0341796875,0.1357421875,1.01318359375,0.8544921278953552,-0.2441406100988388,0.2441406100988388
50250,0.0350341796875,0.1363525390625,1.013427734375,0.8544921278953552,-0.1831054538488388,0.2441406100988388
50267,0.03466796875,0.1368408203125,1.0191650390625,0.7324218153953552,-0.1831054538488388,0.30517578125
50287,0.033203125,0.1357421875,1.0152587890625,0.7324218153953552,-0.1220703050494194,0.3662109076976776
50303,0.0343017578125,0.135009765625,1.0140380859375,0.7934569716453552,-0.1831054538488388,0.30517578125
50350,0.03369140625,0.1373291015625,1.017578125,0.7934569716453552,-0.1831054538488388,0.2441406100988388
50427,0.034912109375,0.136962890625,1.0201416015625,0.7934569716453552,-0.1831054538488388,0.30517578125
50546,0.0340576171875,0.135498046875,1.004150390625,0.7934569716453552,-0.30517578125,0.1831054538488388
50591,0.034912109375,0.1365966796875,1.0177001953125,0.7324218153953552,-0.2441406100988388,0.2441406100988388
50608,0.0325927734375,0.1361083984375,1.0096435546875,0.8544921278953552,-0.1831054538488388,0.2441406100988388
50625,0.0364990234375,0.13720703125,1.02197265625,0.8544921278953552,-0.2441406100988388,0.2441406100988388
50677,0.0330810546875,0.1373291015625,1.0247802734375,0.7934569716453552,-0.2441406100988388,0.1831054538488388
50710,0.034423828125,0.135986328125,1.013916015625,0.8544921278953552,-0.1831054538488388,0.2441406100988388
50722,0.035400390625,0.135009765625,1.0101318359375,0.8544921278953552,-0.2441406100988388,0.2441406100988388
50755,0.0338134765625,0.1370849609375,1.0162353515625,0.7934569716453552,-0.2441406100988388,0.2441406100988388
50772,0.033935546875,0.1375732421875,1.0186767578125,0.7934569716453552,-0.2441406100988388,0.2441406100988388
50788,0.034912109375,0.13671875,1.0157470703125,0.7934569716453552,-0.30517578125,0.30517578125
50821,0.0330810546875,0.1357421875,1.020263671875,0.8544921278953552,-0.1831054538488388,0.2441406100988388
50842,0.03515625,0.1351318359375,1.010498046875,0.8544921278953552,-0.1831054538488388,0.2441406100988388
50858,0.0343017578125,0.1357421875,1.015380859375,0.8544921278953552,-0.2441406100988388,0.30517578125
50875,0.032958984375,0.1351318359375,1.0118408203125,0.7324218153953552,-0.30517578125,0.2441406100988388
50925,0.0350341796875,0.1361083984375,1.0162353515625,0.8544921278953552,-0.1831054538488388,0.2441406100988388
51028,0.0352783203125,0.137451171875,1.0181884765625,0.8544921278953552,-0.1831054538488388,0.2441406100988388
51073,0.0330810546875,0.1363525390625,1.01416015625,0.8544921278953552,-0.2441406100988388,0.2441406100988388
51085,0.0347900390625,0.13671875,1.015625,0.7934569716453552,-0.2441406100988388,0.2441406100988388
51118,0.035400390625,0.1373291015625,1.018798828125,0.7934569716453552,-0.2441406100988388,0.1831054538488388
51135,0.0330810546875,0.1356201171875,1.01416015625,0.8544921278953552,-0.1831054538488388,0.30517578125
51152,0.0330810546875,0.1348876953125,1.0103759765625,0.9155272841453552,-0.1831054538488388,0.30517578125
51169,0.0352783203125,0.136474609375,1.01806640625,0.8544921278953552,-0.2441406100988388,0.2441406100988388
51194,0.0343017578125,0.13623046875,1.0166015625,0.8544921278953552,-0.1220703050494194,0.1831054538488388
51210,0.0335693359375,0.1356201171875,1.0130615234375,0.9155272841453552,-0.1831054538488388,0.30517578125
51222,0.035400390625,0.1363525390625,1.015625,0.9155272841453552,-0.1831054538488388,0.30517578125
51239,0.0360107421875,0.1368408203125,1.0201416015625,0.9155272841453552,-0.2441406100988388,0.30517578125
51289,0.0357666015625,0.1365966796875,1.012939453125,0.9155272841453552,-0.2441406100988388,0.2441406100988388
51311,0.03515625,0.136474609375,1.025390625,0.7934569716453552,-0.1831054538488388,0.2441406100988388
51328,0.0318603515625,0.1353759765625,1.0118408203125,0.7934569716453552,-0.1831054538488388,0.2441406100988388
51345,0.0328369140625,0.1358642578125,1.0135498046875,0.8544921278953552,-0.1831054538488388,0.2441406100988388
51365,0.0361328125,0.13671875,1.0137939453125,0.8544921278953552,-0.1831054538488388,0.1831054538488388
51436,0.035400390625,0.1378173828125,1.018310546875,1.3427733182907104,-0.30517578125,0.1831054538488388
51492,0.034912109375,0.13671875,1.0181884765625,2.25830078125,-0.2441406100988388,0.2441406100988388
51509,0.034912109375,0.130859375,1.0164794921875,2.3193359375,-0.2441406100988388,0.30517578125
51526,0.033203125,0.1278076171875,1.0177001953125,2.13623046875,-0.30517578125,0.2441406100988388
51546,0.03466796875,0.1317138671875,1.01611328125,1.9531248807907104,-0.30517578125,0.1831054538488388
51563,0.033935546875,0.1376953125,1.015869140625,1.8920897245407104,-0.30517578125,0.1220703050494194
51579,0.0333251953125,0.1309814453125,1.016357421875,1.8920897245407104,-0.30517578125,0.2441406100988388
51596,0.03515625,0.1322021484375,1.0167236328125,1.8920897245407104,-0.30517578125,0.2441406100988388
51646,0.0333251953125,0.138671875,1.017333984375,2.25830078125,-0.30517578125,0.1831054538488388
51669,0.0335693359375,0.138427734375,1.015380859375,2.685546636581421,-0.30517578125,0.1831054538488388
51685,0.0335693359375,0.1346435546875,1.013671875,3.234863042831421,-0.30517578125,0.1220703050494194
51718,0.0360107421875,0.143798828125,1.0152587890625,4.45556640625,-0.4272460639476776,0.1220703050494194
51751,0.0328369140625,0.134521484375,1.017578125,5.554198741912842,-0.4272460639476776,0.1831054538488388
51793,0.034912109375,0.12158203125,1.019775390625,5.737304210662842,-0.4882812201976776,0.1831054538488388
51805,0.0323486328125,0.11669921875,1.01708984375,5.615233898162842,-0.4882812201976776,0.1220703050494194
51835,0.033203125,0.1175537109375,1.01806640625,5.126952648162842,-0.4272460639476776,0.0610351525247097
51851,0.0333251953125,0.1195068359375,1.016845703125,5.0048828125,-0.4272460639476776,0.0610351525247097
51868,0.0347900390625,0.1177978515625,1.018798828125,5.0048828125,-0.4272460639476776,0.0
51903,0.032958984375,0.1241455078125,1.0164794921875,5.615233898162842,-0.4882812201976776,0.1220703050494194
51920,0.032470703125,0.1170654296875,1.02001953125,5.920409679412842,-0.4882812201976776,0.1220703050494194
51937,0.0333251953125,0.11083984375,1.02001953125,6.103515148162842,-0.4882812201976776,0.1220703050494194
51953,0.0318603515625,0.111083984375,1.017822265625,6.042479991912842,-0.4272460639476776,0.0
51970,0.0343017578125,0.1092529296875,1.0196533203125,5.981444835662842,-0.4272460639476776,0.0610351525247097
51986,0.033447265625,0.1041259765625,1.018310546875,5.920409679412842,-0.4272460639476776,0.1220703050494194
52018,0.03125,0.1011962890625,1.0216064453125,5.432128429412842,-0.30517578125,0.0610351525247097
52071,0.0321044921875,0.091796875,1.02197265625,4.638671875,-0.30517578125,0.1831054538488388
52088,0.0321044921875,0.0882568359375,1.02197265625,3.906249761581421,-0.1831054538488388,0.1220703050494194
52105,0.0330810546875,0.087646484375,1.01806640625,3.051757574081421,-0.1831054538488388,0.0610351525247097
52138,0.029296875,0.08740234375,1.0225830078125,1.8920897245407104,0.0610351525247097,0.2441406100988388
52154,0.030517578125,0.0836181640625,1.02392578125,0.9155272841453552,0.1220703050494194,0.30517578125
52170,0.035888671875,0.08349609375,1.025146484375,-0.1831054538488388,0.1220703050494194,0.30517578125
52212,0.0335693359375,0.0841064453125,1.016845703125,-1.6479490995407104,-0.1831054538488388,0.4882812201976776
52228,0.0286865234375,0.0986328125,1.0186767578125,-2.197265625,0.2441406100988388,0.2441406100988388
52240,0.0306396484375,0.1016845703125,1.0224609375,-2.44140625,0.4882812201976776,0.3662109076976776
52257,0.0341796875,0.101806640625,1.0279541015625,-2.624511480331421,0.4882812201976776,0.3662109076976776
52307,0.0333251953125,0.1043701171875,1.0260009765625,-3.112792730331421,0.4272460639476776,0.3662109076976776
52405,0.02978515625,0.1439208984375,1.0045166015625,1.7089842557907104,2.38037109375,-0.3662109076976776
52450,0.0897216796875,0.2275390625,1.4639892578125,5.554198741912842,1.7700194120407104,-0.3662109076976776
52467,0.0916748046875,0.2373046875,1.5262451171875,8.1787109375,-0.8544921278953552,0.1831054538488388
52504,0.0692138671875,0.1861572265625,1.5673828125,11.718749046325684,-2.868652105331421,0.1220703050494194
52521,0.0655517578125,0.162841796875,1.5654296875,13.549803733825684,-4.57763671875,-0.0610351525247097
52538,0.062255859375,0.15087890625,1.546630859375,13.549803733825684,-5.065917491912842,-0.1220703050494194
52554,0.0577392578125,0.1475830078125,1.499755859375,14.099120140075684,-5.554198741912842,-0.2441406100988388
52608,0.038818359375,0.135498046875,1.4915771484375,14.953612327575684,-6.896972179412842,-0.1220703050494194
52688,0.02685546875,0.1771240234375,1.4779052734375,13.916014671325684,-6.713866710662842,-0.4272460639476776
52705,0.0184326171875,0.181884765625,1.4273681640625,14.343260765075684,-6.835937023162842,-0.30517578125
52739,0.0155029296875,0.191162109375,1.4044189453125,14.831542015075684,-6.896972179412842,0.1220703050494194
52755,0.01171875,0.1529541015625,1.3626708984375,14.465331077575684,-6.774901866912842,0.4272460639476776
52772,0.0103759765625,0.109619140625,1.3458251953125,13.305663108825684,-6.408690929412842,0.4272460639476776
52788,0.0089111328125,0.0889892578125,1.353515625,12.756346702575684,-6.408690929412842,0.3662109076976776
52813,-0.000244140625,0.0582275390625,1.34423828125,11.291502952575684,-6.774901866912842,0.4272460639476776
52829,-0.01708984375,0.02783203125,1.281982421875,9.8876953125,-7.080077648162842,0.3662109076976776
52846,-0.027587890625,0.0064697265625,1.1922607421875,8.48388671875,-7.019042491912842,0.1831054538488388
52864,-0.03076171875,-0.007568359375,1.0723876953125,7.812499523162842,-7.080077648162842,0.1831054538488388
52881,-0.032470703125,-0.0340576171875,0.9129638671875,5.920409679412842,-6.713866710662842,-0.0610351525247097
52914,-0.031982421875,-0.0469970703125,0.692138671875,4.08935546875,-5.310058116912842,-0.2441406100988388
52931,-0.033447265625,-0.044189453125,0.560302734375,3.295898199081421,-4.8828125,-0.3662109076976776
52952,-0.03173828125,-0.0462646484375,0.51171875,1.7700194120407104,-4.21142578125,-0.4272460639476776
52968,-0.0325927734375,-0.043701171875,0.376220703125,0.4882812201976776,-3.479003667831421,-0.7324218153953552
52986,-0.0250244140625,-0.03076171875,0.2928466796875,-0.8544921278953552,-2.3193359375,-0.8544921278953552
53003,-0.0186767578125,-0.0125732421875,0.2567138671875,-1.3427733182907104,-1.7700194120407104,-0.9155272841453552
53036,-0.0181884765625,-0.0184326171875,0.2630615234375,-2.44140625,-0.3662109076976776,-0.8544921278953552
53053,-0.028076171875,-0.03564453125,0.25390625,-2.38037109375,0.7324218153953552,-1.0986328125
53070,-0.0281982421875,-0.0362548828125,0.267333984375,-2.38037109375,1.3427733182907104,-1.2817381620407104
53086,-0.0238037109375,-0.035400390625,0.3052978515625,-2.197265625,2.685546636581421,-1.6479490995407104
53104,-0.01025390625,-0.0174560546875,0.3675537109375,-2.0751953125,3.234863042831421,-1.8310545682907104
53121,-0.0062255859375,-0.0181884765625,0.3983154296875,-1.4038084745407104,4.39453125,-1.8310545682907104
53154,0.008544921875,-0.0120849609375,0.6591796875,0.4272460639476776,6.042479991912842,-2.01416015625
53171,0.0181884765625,0.0081787109375,0.8155517578125,1.03759765625,6.103515148162842,-2.0751953125
53187,0.0244140625,0.0072021484375,0.879150390625,2.197265625,5.432128429412842,-2.01416015625
53225,0.0364990234375,0.015380859375,0.972900390625,4.0283203125,4.5166015625,-1.7089842557907104
53241,0.0345458984375,0.00634765625,0.995849609375,4.33349609375,3.784179449081421,-1.5258787870407104
53258,0.0323486328125,-0.0242919921875,1.01513671875,3.601073980331421,3.051757574081421,-1.4648436307907104
53275,0.0384521484375,-0.03076171875,1.04931640625,3.051757574081421,2.868652105331421,-1.5258787870407104
53291,0.040771484375,-0.02880859375,1.069580078125,1.8310545682907104,1.8310545682907104,-1.4038084745407104
53308,0.0361328125,-0.0216064453125,1.0667724609375,0.7934569716453552,0.7934569716453552,-1.220703125
53341,0.0048828125,-0.0186767578125,1.015380859375,-0.2441406100988388,0.0610351525247097,-1.0986328125
53357,0.001953125,-0.01806640625,1.005859375,-1.0986328125,-0.1220703050494194,-1.03759765625
53373,-0.003662109375,-0.0174560546875,0.95947265625,-2.0751953125,-0.1220703050494194,-0.8544921278953552
53390,-0.0074462890625,-0.0233154296875,0.92724609375,-2.624511480331421,0.1220703050494194,-0.8544921278953552
53463,-0.0059814453125,0.0003662109375,0.9405517578125,-5.187987804412842,2.38037109375,-0.6713866591453552
53479,-0.0003662109375,0.0135498046875,0.938720703125,-5.126952648162842,3.295898199081421,-0.6103515625
53496,0.00732421875,0.0196533203125,0.9776611328125,-4.7607421875,4.08935546875,-0.54931640625
53513,0.0089111328125,0.0235595703125,1.009521484375,-4.08935546875,4.08935546875,-0.6103515625
53561,0.0076904296875,0.034912109375,1.0238037109375,-2.01416015625,5.065917491912842,-0.6713866591453552
53593,0.0184326171875,0.04345703125,1.0252685546875,-0.3662109076976776,5.126952648162842,-0.7324218153953552
53609,0.0205078125,0.044921875,1.0235595703125,0.54931640625,5.432128429412842,-0.7934569716453552
53626,0.027587890625,0.0517578125,1.0650634765625,0.9765624403953552,5.615233898162842,-0.7324218153953552
53677,0.0384521484375,0.0479736328125,1.1033935546875,2.38037109375,3.784179449081421,-0.30517578125
53709,0.038818359375,0.0396728515625,1.1099853515625,2.25830078125,2.50244140625,-0.2441406100988388
53721,0.0357666015625,0.0352783203125,1.0924072265625,2.0751953125,2.13623046875,-0.2441406100988388
53754,0.0299072265625,0.018310546875,1.0499267578125,1.0986328125,1.220703125,-0.4882812201976776
53771,0.0272216796875,0.0162353515625,1.0390625,0.7324218153953552,1.2817381620407104,-0.54931640625
53787,0.0302734375,0.0125732421875,1.048583984375,0.0,1.0986328125,-0.7324218153953552
53816,0.0299072265625,0.0089111328125,1.0299072265625,-0.8544921278953552,0.8544921278953552,-1.03759765625
53837,0.03076171875,0.0067138671875,1.0172119140625,-1.220703125,0.7934569716453552,-1.0986328125
53853,0.0299072265625,0.0032958984375,1.011474609375,-2.01416015625,0.9155272841453552,-1.2817381620407104
53870,0.0325927734375,0.0068359375,1.01904296875,-2.746581792831421,1.03759765625,-1.5258787870407104
53920,0.041015625,0.028564453125,1.0333251953125,-3.173827886581421,0.7324218153953552,-2.13623046875
53951,0.0440673828125,0.0450439453125,1.0313720703125,-2.38037109375,0.4272460639476776,-2.25830078125
53968,0.050048828125,0.05322265625,1.055908203125,-2.01416015625,0.3662109076976776,-2.3193359375
53985,0.0501708984375,0.05029296875,1.0550537109375,-1.2817381620407104,-0.30517578125,-2.3193359375
54005,0.04443359375,0.048095703125,1.0206298828125,-0.4882812201976776,-0.9765624403953552,-2.38037109375
54022,0.0445556640625,0.046630859375,1.0147705078125,0.0,-1.0986328125,-2.44140625
54039,0.0428466796875,0.0491943359375,1.0223388671875,0.4272460639476776,-1.3427733182907104,-2.50244140625
54055,0.042236328125,0.05517578125,1.01806640625,0.8544921278953552,-1.8920897245407104,-2.44140625
54077,0.0404052734375,0.05615234375,1.004638671875,1.15966796875,-1.9531248807907104,-2.44140625
54093,0.039306640625,0.0565185546875,1.00537109375,1.5258787870407104,-1.8310545682907104,-2.50244140625
54110,0.034423828125,0.0557861328125,1.0111083984375,2.13623046875,-2.0751953125,-2.563476324081421
54129,0.0291748046875,0.0616455078125,1.008056640625,2.44140625,-2.0751953125,-2.624511480331421
54146,0.0264892578125,0.063720703125,1.0108642578125,3.417968511581421,-1.7700194120407104,-2.50244140625
54176,0.02587890625,0.0634765625,1.0191650390625,4.150390625,-1.8310545682907104,-2.3193359375
54192,0.024169921875,0.0621337890625,1.00732421875,4.2724609375,-1.8310545682907104,-2.3193359375
54208,0.0203857421875,0.0545654296875,0.985595703125,4.39453125,-1.3427733182907104,-2.3193359375
54246,0.0235595703125,0.052978515625,1.0079345703125,4.57763671875,-1.0986328125,-2.25830078125
54263,0.0230712890625,0.0577392578125,1.010986328125,4.82177734375,-0.9765624403953552,-2.197265625
54280,0.026123046875,0.0572509765625,1.029052734375,4.8828125,-0.8544921278953552,-2.13623046875
54300,0.0299072265625,0.0623779296875,1.0440673828125,5.187987804412842,-0.8544921278953552,-2.0751953125
54321,0.028564453125,0.0584716796875,1.044189453125,5.615233898162842,-1.0986328125,-1.8920897245407104
54337,0.0284423828125,0.05419921875,1.0408935546875,5.737304210662842,-1.2817381620407104,-1.7700194120407104
54354,0.029052734375,0.0537109375,1.03564453125,5.737304210662842,-1.2817381620407104,-1.7700194120407104
54372,0.029541015625,0.0511474609375,1.03271484375,5.615233898162842,-1.2817381620407104,-1.6479490995407104
54389,0.029052734375,0.0479736328125,1.0335693359375,5.554198741912842,-1.2817381620407104,-1.5869139432907104
54406,0.02783203125,0.0458984375,1.03173828125,5.249022960662842,-1.3427733182907104,-1.5258787870407104
54426,0.0283203125,0.042724609375,1.0252685546875,4.94384765625,-1.4648436307907104,-1.3427733182907104
54476,0.0238037109375,0.02880859375,0.9886474609375,3.479003667831421,-1.7089842557907104,-0.8544921278953552
54493,0.023193359375,0.0250244140625,0.9859619140625,2.624511480331421,-1.8310545682907104,-0.7324218153953552
54513,0.0225830078125,0.012939453125,0.9761962890625,1.6479490995407104,-1.8310545682907104,-0.6103515625
54529,0.0234375,0.0074462890625,0.984619140625,1.220703125,-1.8310545682907104,-0.54931640625
54548,0.02587890625,0.0057373046875,0.9979248046875,0.54931640625,-1.9531248807907104,-0.4272460639476776
54565,0.030517578125,0.0045166015625,1.015380859375,0.1220703050494194,-2.44140625,-0.30517578125
54595,0.0284423828125,-0.0062255859375,1.0159912109375,0.0610351525247097,-3.234863042831421,-0.2441406100988388
54612,0.0264892578125,-0.009521484375,1.0159912109375,0.0610351525247097,-3.723144292831421,-0.2441406100988388
54628,0.0247802734375,-0.007080078125,1.0106201171875,0.2441406100988388,-4.21142578125,-0.2441406100988388
54661,0.0159912109375,0.0108642578125,0.999267578125,1.220703125,-4.39453125,-0.1831054538488388
54680,0.010498046875,0.0208740234375,0.9974365234375,2.44140625,-4.638671875,0.0
54696,0.0076904296875,0.02587890625,0.9837646484375,3.173827886581421,-4.638671875,0.0610351525247097
54713,0.007568359375,0.030517578125,0.9591064453125,4.57763671875,-4.2724609375,0.2441406100988388
54780,0.0107421875,0.002685546875,0.901611328125,8.1787109375,-2.868652105331421,0.4882812201976776
54812,0.01611328125,-0.0015869140625,0.892822265625,8.9111328125,-2.624511480331421,0.7934569716453552
54870,0.0115966796875,-0.02294921875,0.8514404296875,9.6435546875,-2.01416015625,1.3427733182907104
54908,0.0228271484375,-0.029541015625,0.9173583984375,10.192870140075684,-1.4038084745407104,1.5869139432907104
54924,0.0234375,-0.0244140625,0.916015625,10.986327171325684,-2.563476324081421,1.7089842557907104
54955,0.01220703125,-0.0399169921875,0.733642578125,10.986327171325684,-2.0751953125,2.0751953125
54971,0.013427734375,-0.046630859375,0.7373046875,10.070799827575684,-0.6103515625,2.25830078125
54988,0.018798828125,-0.0579833984375,0.82373046875,9.27734375,-0.1831054538488388,2.44140625
55023,0.0162353515625,-0.0621337890625,0.882568359375,8.7890625,-1.220703125,2.50244140625
55039,0.0037841796875,-0.054931640625,0.78369140625,8.30078125,-2.38037109375,2.50244140625
55056,-0.001220703125,-0.0526123046875,0.751953125,7.507323741912842,-1.220703125,2.685546636581421
55072,-0.00390625,-0.0546875,0.817138671875,7.141112804412842,-0.3662109076976776,2.807616949081421
55139,-0.0279541015625,-0.0457763671875,0.7308349609375,5.0048828125,0.1831054538488388,2.868652105331421
55159,-0.0281982421875,-0.0447998046875,0.7103271484375,4.45556640625,1.15966796875,2.929687261581421
55175,-0.0220947265625,-0.0467529296875,0.77197265625,3.601073980331421,3.234863042831421,2.990722417831421
55192,-0.0152587890625,-0.0489501953125,0.9456787109375,3.417968511581421,3.967284917831421,2.990722417831421
55209,-0.0009765625,-0.0352783203125,1.15234375,4.2724609375,4.2724609375,2.868652105331421
55225,0.000244140625,-0.0294189453125,1.17138671875,6.164550304412842,1.9531248807907104,2.685546636581421
55256,-0.0216064453125,-0.0216064453125,0.87255859375,8.85009765625,1.7089842557907104,2.746581792831421
55273,-0.0191650390625,-0.0291748046875,0.8653564453125,9.09423828125,3.845214605331421,2.746581792831421
55294,-0.0078125,-0.04248046875,0.93798828125,8.85009765625,4.45556640625,2.563476324081421
55310,0.0062255859375,-0.0361328125,0.9718017578125,8.72802734375,4.21142578125,2.44140625
55373,0.03076171875,-0.00341796875,1.0543212890625,11.108397483825684,2.807616949081421,2.44140625
55406,0.0257568359375,-0.0269775390625,1.1329345703125,13.000487327575684,2.44140625,2.38037109375
55511,0.0447998046875,-0.078125,1.166015625,17.15087890625,0.0,1.4648436307907104
55528,0.046142578125,-0.08203125,1.181884765625,17.27294921875,-0.30517578125,1.3427733182907104
55545,0.0443115234375,-0.0860595703125,1.1978759765625,17.333984375,-0.6713866591453552,1.15966796875
55597,0.0267333984375,-0.09912109375,1.2535400390625,18.06640625,-1.5258787870407104,1.0986328125
55692,0.0208740234375,-0.151611328125,1.1988525390625,12.329100608825684,-0.7324218153953552,0.9765624403953552
55709,0.017333984375,-0.1566162109375,1.1766357421875,10.803221702575684,-0.4882812201976776,0.9155272841453552
55726,0.0137939453125,-0.1663818359375,1.1424560546875,9.27734375,0.3662109076976776,0.6713866591453552
55778,0.0240478515625,-0.1812744140625,1.2144775390625,4.2724609375,0.8544921278953552,0.1831054538488388
55947,0.0081787109375,-0.1494140625,1.0731201171875,-9.6435546875,2.563476324081421,-0.30517578125
55992,0.0108642578125,-0.137939453125,1.0841064453125,-11.108397483825684,2.38037109375,-0.1831054538488388
56009,0.012939453125,-0.1397705078125,1.10595703125,-11.413573265075684,2.44140625,-0.1220703050494194
56026,0.015625,-0.1392822265625,1.12744140625,-11.474608421325684,2.197265625,-0.1831054538488388
56076,0.0208740234375,-0.1298828125,1.0877685546875,-10.803221702575684,1.03759765625,-0.4882812201976776
56109,0.025146484375,-0.111328125,1.0679931640625,-10.559081077575684,0.4882812201976776,-0.6713866591453552
56121,0.0224609375,-0.1016845703125,1.0657958984375,-10.375975608825684,0.3662109076976776,-0.6713866591453552
56154,0.0206298828125,-0.0960693359375,1.041015625,-9.033203125,-0.7934569716453552,-0.7324218153953552
56171,0.020263671875,-0.093017578125,1.015625,-8.85009765625,-0.7934569716453552,-0.7324218153953552
56186,0.0211181640625,-0.09228515625,1.017333984375,-8.11767578125,-0.7934569716453552,-0.7934569716453552
56206,0.0216064453125,-0.0863037109375,1.02001953125,-7.385253429412842,-0.9155272841453552,-0.8544921278953552
56259,0.0743408203125,-0.03955078125,1.3204345703125,0.4272460639476776,-0.9155272841453552,0.4272460639476776
56349,0.016357421875,-0.0692138671875,0.942626953125,-0.6713866591453552,0.1220703050494194,0.0610351525247097
56361,0.0347900390625,-0.0684814453125,1.0162353515625,0.0,-0.0610351525247097,0.2441406100988388
56393,0.0360107421875,-0.087890625,1.03662109375,0.54931640625,-1.5258787870407104,0.3662109076976776
56426,0.0054931640625,-0.099609375,1.0145263671875,-0.2441406100988388,-0.6713866591453552,0.30517578125
56529,0.020751953125,-0.08251953125,1.013427734375,-3.173827886581421,-0.30517578125,0.3662109076976776
56546,0.0274658203125,-0.0733642578125,1.0299072265625,-3.234863042831421,-0.30517578125,0.30517578125
56579,0.025390625,-0.0689697265625,1.0177001953125,-2.868652105331421,-0.4272460639476776,0.3662109076976776
56596,0.01953125,-0.0692138671875,1.0283203125,-2.868652105331421,-0.3662109076976776,0.4272460639476776
56612,0.0225830078125,-0.0733642578125,1.0186767578125,-2.868652105331421,-0.30517578125,0.4272460639476776
56628,0.0247802734375,-0.0755615234375,1.0205078125,-2.929687261581421,-0.1831054538488388,0.3662109076976776
56649,0.0264892578125,-0.070068359375,1.0281982421875,-2.990722417831421,-0.1831054538488388,0.3662109076976776
56670,0.024658203125,-0.063720703125,1.0250244140625,-2.868652105331421,-0.1831054538488388,0.4272460639476776
56682,0.0242919921875,-0.0592041015625,1.021728515625,-2.807616949081421,-0.1831054538488388,0.4272460639476776
56699,0.0252685546875,-0.0611572265625,1.0272216796875,-2.44140625,-0.2441406100988388,0.4272460639476776
56715,0.0247802734375,-0.0589599609375,1.024658203125,-2.3193359375,-0.30517578125,0.4272460639476776
56731,0.024169921875,-0.0623779296875,1.02001953125,-2.0751953125,-0.4882812201976776,0.4882812201976776
56748,0.0245361328125,-0.0660400390625,1.02490234375,-2.0751953125,-0.4272460639476776,0.4272460639476776
56768,0.0216064453125,-0.0677490234375,1.0225830078125,-2.25830078125,-0.1831054538488388,0.2441406100988388
56784,0.02294921875,-0.06201171875,1.0250244140625,-2.44140625,-0.1220703050494194,0.3662109076976776
56805,0.0244140625,-0.0679931640625,1.028564453125,-2.746581792831421,0.0,0.4272460639476776
56824,0.02392578125,-0.0648193359375,1.0245361328125,-3.234863042831421,0.0,0.4272460639476776
56840,0.02099609375,-0.07080078125,1.02001953125,-4.08935546875,0.0,0.3662109076976776
56907,0.021484375,-0.0511474609375,1.0230712890625,-5.554198741912842,0.1831054538488388,0.3662109076976776
56966,0.02783203125,-0.038330078125,1.0250244140625,-5.0048828125,0.0610351525247097,0.4272460639476776
57009,0.0247802734375,-0.0322265625,1.0283203125,-3.784179449081421,0.0,0.3662109076976776
57026,0.0277099609375,-0.0313720703125,1.0216064453125,-3.112792730331421,0.0,0.4272460639476776
57059,0.0247802734375,-0.030517578125,1.0274658203125,-2.01416015625,-0.1831054538488388,0.3662109076976776
57076,0.02490234375,-0.030029296875,1.028564453125,-1.5258787870407104,-0.2441406100988388,0.3662109076976776
57092,0.02490234375,-0.03076171875,1.0250244140625,-1.2817381620407104,-0.2441406100988388,0.3662109076976776
57108,0.02783203125,-0.0303955078125,1.0247802734375,-0.9155272841453552,-0.2441406100988388,0.3662109076976776
57165,0.0233154296875,-0.0335693359375,1.0255126953125,-0.30517578125,-0.2441406100988388,0.30517578125
57248,0.0257568359375,-0.0281982421875,1.0277099609375,0.7324218153953552,-0.2441406100988388,0.1831054538488388
57265,0.025634765625,-0.027587890625,1.0262451171875,1.15966796875,-0.2441406100988388,0.2441406100988388
57297,0.0257568359375,-0.030517578125,1.0262451171875,1.7700194120407104,-0.2441406100988388,0.2441406100988388
57314,0.0260009765625,-0.0333251953125,1.02685546875,2.01416015625,-0.30517578125,0.2441406100988388
57331,0.025146484375,-0.037353515625,1.0255126953125,1.9531248807907104,-0.3662109076976776,0.1831054538488388
57347,0.02490234375,-0.034423828125,1.0252685546875,1.9531248807907104,-0.30517578125,0.2441406100988388
57367,0.02490234375,-0.0345458984375,1.0260009765625,2.01416015625,-0.2441406100988388,0.2441406100988388
57389,0.0245361328125,-0.03466796875,1.0247802734375,2.0751953125,-0.30517578125,0.2441406100988388
57404,0.0247802734375,-0.03857421875,1.028564453125,2.13623046875,-0.2441406100988388,0.1831054538488388
57424,0.024169921875,-0.0390625,1.0233154296875,2.0751953125,-0.2441406100988388,0.2441406100988388
57474,0.025146484375,-0.03759765625,1.025634765625,2.0751953125,-0.2441406100988388,0.1831054538488388
57507,0.02685546875,-0.03515625,1.02685546875,2.38037109375,-0.2441406100988388,0.2441406100988388
57672,0.0244140625,-0.0484619140625,1.0238037109375,3.479003667831421,-0.3662109076976776,0.1220703050494194
57689,0.024658203125,-0.050048828125,1.02392578125,3.479003667831421,-0.30517578125,0.1220703050494194
57706,0.024658203125,-0.0504150390625,1.0255126953125,3.295898199081421,-0.30517578125,0.1831054538488388
57724,0.025390625,-0.047607421875,1.0257568359375,3.173827886581421,-0.30517578125,0.1831054538488388
57741,0.0262451171875,-0.0479736328125,1.025390625,3.112792730331421,-0.2441406100988388,0.1831054538488388
57758,0.02490234375,-0.0531005859375,1.024658203125,3.112792730331421,-0.1831054538488388,0.2441406100988388
57774,0.023681640625,-0.054443359375,1.023681640625,2.990722417831421,-0.1220703050494194,0.2441406100988388
57798,0.0224609375,-0.05322265625,1.0230712890625,2.685546636581421,-0.1220703050494194,0.2441406100988388
57814,0.02490234375,-0.0548095703125,1.025146484375,2.38037109375,-0.1831054538488388,0.2441406100988388
57831,0.0257568359375,-0.0574951171875,1.028076171875,2.25830078125,-0.1831054538488388,0.30517578125
57850,0.023193359375,-0.0601806640625,1.0230712890625,1.7700194120407104,-0.1831054538488388,0.30517578125
57867,0.024658203125,-0.0589599609375,1.0257568359375,1.3427733182907104,-0.1831054538488388,0.30517578125
57900,0.025390625,-0.0556640625,1.023681640625,0.7324218153953552,-0.1831054538488388,0.2441406100988388
57916,0.0260009765625,-0.054443359375,1.0242919921875,0.6103515625,-0.1831054538488388,0.2441406100988388
57950,0.023681640625,-0.0517578125,1.025390625,0.54931640625,-0.0610351525247097,0.30517578125
58012,0.023681640625,-0.0582275390625,1.0234375,0.2441406100988388,-0.1220703050494194,0.30517578125
58031,0.0250244140625,-0.0582275390625,1.026123046875,-0.1831054538488388,-0.1831054538488388,0.30517578125
58048,0.0255126953125,-0.0565185546875,1.0247802734375,-0.4272460639476776,-0.1220703050494194,0.30517578125
58069,0.024658203125,-0.056884765625,1.0244140625,-0.9155272841453552,-0.0610351525247097,0.3662109076976776
58135,0.0247802734375,-0.0499267578125,1.02392578125,-2.13623046875,0.1220703050494194,0.3662109076976776
58209,0.0244140625,-0.037353515625,1.0223388671875,-1.6479490995407104,0.3662109076976776,0.3662109076976776
58226,0.0240478515625,-0.0330810546875,1.017578125,-1.0986328125,0.8544921278953552,0.4882812201976776
58259,0.0289306640625,-0.027099609375,1.055908203125,0.6103515625,3.112792730331421,0.2441406100988388
58276,0.029052734375,-0.0340576171875,1.072265625,1.15966796875,3.417968511581421,0.0610351525247097
58308,0.062255859375,-0.008544921875,1.490234375,3.845214605331421,2.624511480331421,0.0610351525247097
58330,0.07080078125,-0.031005859375,1.5380859375,5.798339366912842,-0.0610351525247097,0.30517578125
58347,0.0712890625,-0.0428466796875,1.5655517578125,7.995604991912842,-0.6713866591453552,0.0610351525247097
58384,0.0406494140625,-0.0589599609375,1.492919921875,11.169432640075684,-3.540038824081421,-0.30517578125
58401,0.0357666015625,-0.0689697265625,1.44091796875,11.840819358825684,-3.723144292831421,-0.4882812201976776
58418,0.040771484375,-0.063232421875,1.439697265625,12.023924827575684,-3.967284917831421,-0.6103515625
58434,0.0521240234375,-0.06103515625,1.4564208984375,13.000487327575684,-4.638671875,-0.54931640625
58457,0.0452880859375,-0.061279296875,1.440185546875,14.221190452575684,-5.310058116912842,-0.54931640625
58473,0.0338134765625,-0.08642578125,1.4324951171875,14.953612327575684,-5.554198741912842,-0.54931640625
58485,0.0211181640625,-0.09814453125,1.3931884765625,16.11328125,-6.347655773162842,-0.9155272841453552
58555,0.0096435546875,-0.1021728515625,1.3304443359375,17.9443359375,-6.530761241912842,-1.7700194120407104
58572,0.0054931640625,-0.1116943359375,1.3388671875,18.49365234375,-6.774901866912842,-2.13623046875
58593,0.0010986328125,-0.1080322265625,1.3333740234375,18.85986328125,-6.958007335662842,-2.3193359375
58609,-0.007080078125,-0.1048583984375,1.3060302734375,19.04296875,-7.141112804412842,-2.50244140625
58674,-0.01708984375,-0.133056640625,1.153076171875,16.4794921875,-5.554198741912842,-2.685546636581421
58706,-0.0244140625,-0.1370849609375,1.1124267578125,14.526366233825684,-4.08935546875,-2.624511480331421
58748,-0.0269775390625,-0.14404296875,0.9923095703125,11.901854515075684,-2.3193359375,-2.50244140625
58765,-0.0274658203125,-0.14208984375,0.9161376953125,11.169432640075684,-1.7700194120407104,-2.50244140625
58795,-0.0228271484375,-0.131103515625,0.79638671875,8.72802734375,0.1220703050494194,-2.25830078125
58811,-0.015380859375,-0.12255859375,0.7373046875,7.690429210662842,0.54931640625,-2.13623046875
58828,-0.0135498046875,-0.114013671875,0.6895751953125,7.141112804412842,0.54931640625,-2.13623046875
58864,-0.0101318359375,-0.0926513671875,0.5521240234375,5.676269054412842,1.03759765625,-1.9531248807907104
58880,-0.006591796875,-0.0784912109375,0.48193359375,4.7607421875,1.2817381620407104,-1.9531248807907104
58897,-0.0047607421875,-0.067138671875,0.4293212890625,4.150390625,1.6479490995407104,-1.8310545682907104
58911,-0.0032958984375,-0.0673828125,0.418212890625,3.906249761581421,1.8310545682907104,-1.6479490995407104
58960,0.0006103515625,-0.07470703125,0.466064453125,4.33349609375,2.13623046875,-1.5258787870407104
58990,-0.0008544921875,-0.0875244140625,0.50341796875,5.615233898162842,2.624511480331421,-1.3427733182907104
59002,-0.0045166015625,-0.10546875,0.55419921875,6.591796398162842,2.25830078125,-1.3427733182907104
59032,-0.003662109375,-0.13134765625,0.586669921875,7.202147960662842,2.50244140625,-1.220703125
59065,0.0010986328125,-0.1680908203125,0.6517333984375,6.774901866912842,2.563476324081421,-1.220703125
59170,0.030029296875,-0.2091064453125,1.071044921875,9.6435546875,0.2441406100988388,-1.03759765625
59182,0.0283203125,-0.2225341796875,1.068603515625,9.8876953125,-0.3662109076976776,-1.0986328125
59215,0.0252685546875,-0.226806640625,1.0343017578125,9.58251953125,-1.3427733182907104,-1.2817381620407104
59232,0.02392578125,-0.224853515625,1.044677734375,9.33837890625,-1.3427733182907104,-1.3427733182907104
59248,0.025146484375,-0.224609375,1.0606689453125,9.033203125,-1.7700194120407104,-1.2817381620407104
59286,0.0111083984375,-0.2178955078125,1.0208740234375,8.36181640625,-2.685546636581421,-1.0986328125
59302,0.0032958984375,-0.2147216796875,0.9754638671875,7.385253429412842,-2.929687261581421,-0.8544921278953552
59319,-0.0001220703125,-0.2164306640625,0.9573974609375,6.103515148162842,-2.685546636581421,-0.7324218153953552
59352,-0.0072021484375,-0.220947265625,0.9425048828125,4.150390625,-1.6479490995407104,-0.4882812201976776
59407,-0.00732421875,-0.2139892578125,0.980712890625,1.8310545682907104,-0.6713866591453552,0.0610351525247097
59435,-0.005126953125,-0.21826171875,1.0098876953125,1.4648436307907104,-0.54931640625,0.1831054538488388
59528,-0.0029296875,-0.2081298828125,1.013916015625,0.8544921278953552,-0.3662109076976776,0.7934569716453552
59545,-0.0032958984375,-0.2080078125,0.9952392578125,0.6713866591453552,-0.30517578125,0.7934569716453552
59578,-0.0042724609375,-0.2012939453125,0.9703369140625,-0.3662109076976776,0.0610351525247097,0.9765624403953552
59595,-0.0018310546875,-0.19677734375,0.975830078125,-0.8544921278953552,0.1220703050494194,1.220703125
59611,-0.0010986328125,-0.19482421875,0.9775390625,-1.03759765625,0.1220703050494194,1.3427733182907104
59627,0.0003662109375,-0.193115234375,0.97216796875,-1.4038084745407104,0.0,1.3427733182907104
59645,-0.001708984375,-0.188232421875,0.969482421875,-1.5869139432907104,0.1220703050494194,1.4038084745407104
59720,-0.00341796875,-0.1812744140625,0.9991455078125,-0.4882812201976776,0.0610351525247097,1.8310545682907104
59791,-0.0047607421875,-0.194091796875,0.9681396484375,0.3662109076976776,-0.1220703050494194,2.0751953125
59843,-0.0035400390625,-0.19970703125,0.94775390625,-0.1220703050494194,0.0,2.25830078125
59893,-0.003662109375,-0.20458984375,0.908935546875,-1.03759765625,-0.0610351525247097,2.197265625
59910,-0.00537109375,-0.200927734375,0.8720703125,-1.6479490995407104,-0.1220703050494194,2.197265625
59927,-0.00830078125,-0.201416015625,0.8333740234375,-2.01416015625,0.0610351525247097,2.25830078125
59946,-0.0091552734375,-0.2060546875,0.83154296875,-2.929687261581421,0.54931640625,2.3193359375
59962,-0.0084228515625,-0.208251953125,0.8399658203125,-3.723144292831421,1.0986328125,2.25830078125
59979,-0.0054931640625,-0.2076416015625,0.862060546875,-4.08935546875,1.3427733182907104,2.13623046875
60011,0.00048828125,-0.2017822265625,0.882568359375,-3.967284917831421,1.4038084745407104,1.8920897245407104
60089,0.0133056640625,-0.195556640625,0.9605712890625,-3.295898199081421,1.5258787870407104,1.7089842557907104
60211,0.01806640625,-0.1737060546875,0.928466796875,-0.1220703050494194,-1.220703125,1.4648436307907104
60249,0.0238037109375,-0.1822509765625,0.93603515625,-0.1831054538488388,-0.1220703050494194,1.7700194120407104
60265,0.0228271484375,-0.183349609375,0.95458984375,-0.1831054538488388,-0.3662109076976776,1.7089842557907104
60297,0.013671875,-0.178955078125,1.0067138671875,1.03759765625,-0.8544921278953552,1.6479490995407104
60313,0.007080078125,-0.17236328125,0.951904296875,1.8920897245407104,-1.8920897245407104,1.5258787870407104
60330,0.0018310546875,-0.162109375,0.8551025390625,1.8310545682907104,-1.0986328125,1.7089842557907104
60364,0.0032958984375,-0.1727294921875,0.87255859375,1.03759765625,0.30517578125,2.01416015625
60409,0.0068359375,-0.154541015625,0.9432373046875,1.7089842557907104,-0.8544921278953552,1.7700194120407104
60432,-0.0020751953125,-0.1365966796875,0.8780517578125,2.13623046875,-0.30517578125,2.01416015625
60449,-0.0029296875,-0.141357421875,0.893798828125,2.25830078125,0.1831054538488388,2.13623046875
60466,-0.0013427734375,-0.152587890625,0.927001953125,2.25830078125,0.6103515625,2.38037109375
60484,0.00146484375,-0.1697998046875,0.98828125,2.3193359375,0.1220703050494194,2.3193359375
60501,0.0013427734375,-0.168212890625,0.974365234375,2.563476324081421,-0.6103515625,2.13623046875
60518,0.0023193359375,-0.1514892578125,0.9310302734375,2.685546636581421,-0.4882812201976776,2.13623046875
60535,0.0030517578125,-0.147216796875,0.9222412109375,2.746581792831421,-0.0610351525247097,2.197265625
60553,0.0052490234375,-0.158935546875,0.9752197265625,3.112792730331421,0.7934569716453552,2.38037109375
60570,0.005615234375,-0.17529296875,1.055419921875,3.540038824081421,0.7934569716453552,2.3193359375
60587,0.007568359375,-0.1806640625,1.0927734375,4.69970703125,0.1831054538488388,2.13623046875
60606,0.002685546875,-0.170654296875,1.0418701171875,5.798339366912842,-0.6713866591453552,1.7700194120407104
60622,0.00244140625,-0.1654052734375,1.0142822265625,6.469726085662842,-0.7934569716453552,1.8310545682907104
60639,0.0028076171875,-0.16650390625,0.9761962890625,6.347655773162842,-0.6713866591453552,2.01416015625
60656,0.001953125,-0.16943359375,0.9571533203125,6.103515148162842,-0.54931640625,2.0751953125
60672,0.002197265625,-0.18212890625,0.9329833984375,5.187987804412842,-0.0610351525247097,2.0751953125
60734,0.0032958984375,-0.2177734375,1.0521240234375,2.563476324081421,1.9531248807907104,2.01416015625
60791,0.0035400390625,-0.2030029296875,0.99951171875,2.807616949081421,0.54931640625,1.4038084745407104
60808,0.010009765625,-0.2196044921875,1.0198974609375,1.8310545682907104,1.5869139432907104,1.5258787870407104
60825,0.0169677734375,-0.2279052734375,1.0650634765625,0.7934569716453552,2.25830078125,1.4038084745407104
60845,0.027587890625,-0.2347412109375,1.154541015625,0.4272460639476776,1.7089842557907104,1.0986328125
60860,0.0308837890625,-0.2265625,1.17919921875,0.7934569716453552,0.30517578125,0.7324218153953552
60877,0.0228271484375,-0.2061767578125,1.09375,0.8544921278953552,-0.1220703050494194,0.6713866591453552
60894,0.0194091796875,-0.203857421875,1.06591796875,0.7324218153953552,0.30517578125,0.8544921278953552
60948,0.0313720703125,-0.220458984375,1.1981201171875,0.54931640625,-0.0610351525247097,0.4272460639476776
61030,0.0245361328125,-0.217529296875,1.1341552734375,-0.0610351525247097,0.0,0.2441406100988388
61047,0.0235595703125,-0.2159423828125,1.1336669921875,0.30517578125,-0.3662109076976776,0.1220703050494194
61083,0.0120849609375,-0.217041015625,1.0965576171875,1.220703125,0.2441406100988388,-0.0610351525247097
61099,0.0087890625,-0.2186279296875,1.1053466796875,1.2817381620407104,0.3662109076976776,-0.1220703050494194
61148,0.0189208984375,-0.2137451171875,1.0946044921875,1.5869139432907104,0.3662109076976776,-0.30517578125
61209,0.0072021484375,-0.2388916015625,1.103271484375,1.4648436307907104,1.2817381620407104,-0.3662109076976776
61226,0.0076904296875,-0.2449951171875,1.127685546875,1.4648436307907104,1.3427733182907104,-0.6103515625
61263,0.0093994140625,-0.2200927734375,1.103515625,2.01416015625,0.0610351525247097,-1.15966796875
61280,0.0108642578125,-0.2017822265625,1.056640625,2.3193359375,0.30517578125,-0.9765624403953552
61297,0.0096435546875,-0.2008056640625,1.042236328125,2.25830078125,0.6103515625,-0.8544921278953552
61313,0.0108642578125,-0.214111328125,1.0567626953125,1.9531248807907104,0.9155272841453552,-0.6713866591453552
61336,0.010009765625,-0.2249755859375,1.0614013671875,1.4038084745407104,0.54931640625,-0.9155272841453552
61352,0.0098876953125,-0.221435546875,1.0390625,1.0986328125,0.4882812201976776,-1.03759765625
61369,0.010986328125,-0.2188720703125,1.0360107421875,0.7324218153953552,0.6103515625,-1.03759765625
61388,0.0167236328125,-0.212158203125,1.051025390625,0.30517578125,0.54931640625,-0.9155272841453552
61405,0.01806640625,-0.2113037109375,1.0545654296875,0.1220703050494194,0.30517578125,-1.03759765625
61436,0.0177001953125,-0.212158203125,1.0430908203125,-0.1831054538488388,0.0610351525247097,-0.9765624403953552
61456,0.0177001953125,-0.25390625,1.3868408203125,0.9155272841453552,0.4272460639476776,-0.4882812201976776
61472,0.066650390625,-0.2603759765625,1.540771484375,1.2817381620407104,-0.4272460639476776,-0.1831054538488388
61489,0.0472412109375,-0.1807861328125,1.0010986328125,-0.9155272841453552,-1.5869139432907104,0.0610351525247097
61507,0.0076904296875,-0.1309814453125,0.7099609375,-4.33349609375,0.0610351525247097,0.9155272841453552
61524,0.013916015625,-0.1510009765625,0.9122314453125,0.6103515625,0.4272460639476776,1.2817381620407104
61557,0.0262451171875,-0.2906494140625,1.169189453125,2.990722417831421,-1.5869139432907104,0.4272460639476776
61576,0.017578125,-0.2264404296875,0.836181640625,-0.4882812201976776,-1.220703125,-0.1220703050494194
61592,0.01171875,-0.23095703125,1.0302734375,-0.8544921278953552,-0.4882812201976776,-0.1831054538488388
61608,0.0126953125,-0.225341796875,1.117919921875,-1.5258787870407104,-0.6103515625,-0.2441406100988388
61626,0.0185546875,-0.1640625,0.9703369140625,-1.9531248807907104,-1.0986328125,0.0
61643,0.01611328125,-0.1968994140625,0.9923095703125,-1.5258787870407104,-0.6103515625,0.54931640625
61676,0.0198974609375,-0.233642578125,0.9833984375,-3.356933355331421,-0.9155272841453552,0.1831054538488388
61692,0.0155029296875,-0.2049560546875,1.000244140625,-3.784179449081421,-0.54931640625,-0.0610351525247097
61708,0.0142822265625,-0.199951171875,1.047607421875,-4.21142578125,-0.4272460639476776,0.0610351525247097
61757,0.018310546875,-0.2027587890625,1.015869140625,-3.784179449081421,-0.3662109076976776,0.6713866591453552
61807,0.0157470703125,-0.17138671875,1.0185546875,-3.479003667831421,-0.3662109076976776,0.2441406100988388
61835,0.0142822265625,-0.1676025390625,1.0078125,-2.197265625,-0.54931640625,0.3662109076976776
61869,0.0162353515625,-0.18603515625,1.0064697265625,-0.6103515625,-0.6103515625,0.3662109076976776
61881,0.016357421875,-0.1844482421875,1.0081787109375,-0.3662109076976776,-0.4882812201976776,0.1831054538488388
61912,0.014404296875,-0.1783447265625,1.0113525390625,0.0,-0.4272460639476776,0.30517578125
61945,0.0167236328125,-0.1810302734375,1.00927734375,0.6713866591453552,-0.4272460639476776,0.1831054538488388
62049,0.0147705078125,-0.2054443359375,1.0062255859375,-0.30517578125,0.0,0.2441406100988388
62066,0.0152587890625,-0.1982421875,1.00537109375,-0.9765624403953552,-0.0610351525247097,0.2441406100988388
62099,0.01513671875,-0.1851806640625,1.0089111328125,-2.197265625,-0.1831054538488388,0.3662109076976776
62116,0.0155029296875,-0.18798828125,1.0087890625,-2.50244140625,-0.1831054538488388,0.4272460639476776
62132,0.0142822265625,-0.1878662109375,1.0098876953125,-2.868652105331421,-0.1220703050494194,0.4272460639476776
62148,0.0147705078125,-0.1890869140625,1.0096435546875,-3.112792730331421,-0.1220703050494194,0.4272460639476776
62173,0.015380859375,-0.18359375,1.0072021484375,-3.540038824081421,0.0,0.4272460639476776
62189,0.015380859375,-0.17724609375,1.0118408203125,-3.662109136581421,-0.0610351525247097,0.3662109076976776
62201,0.015380859375,-0.171142578125,1.01025390625,-3.662109136581421,-0.1220703050494194,0.3662109076976776
62215,0.0146484375,-0.1715087890625,1.0123291015625,-3.234863042831421,-0.1831054538488388,0.3662109076976776
62231,0.0169677734375,-0.1663818359375,1.0118408203125,-3.051757574081421,-0.2441406100988388,0.30517578125
62247,0.0177001953125,-0.164306640625,1.0091552734375,-2.38037109375,-0.1831054538488388,0.4272460639476776
62281,0.0145263671875,-0.161376953125,1.0130615234375,-1.3427733182907104,-0.1831054538488388,0.3662109076976776
62300,0.01513671875,-0.1649169921875,1.01220703125,-0.7324218153953552,-0.1831054538488388,0.4272460639476776
62316,0.0172119140625,-0.16748046875,1.0108642578125,-0.4882812201976776,-0.1831054538488388,0.3662109076976776
62330,0.017333984375,-0.16552734375,1.0130615234375,-0.1220703050494194,-0.2441406100988388,0.30517578125
62397,0.0169677734375,-0.1644287109375,1.0120849609375,1.5258787870407104,-0.30517578125,0.2441406100988388
62413,0.0174560546875,-0.1646728515625,1.0101318359375,1.9531248807907104,-0.30517578125,0.2441406100988388
62429,0.01611328125,-0.1668701171875,1.0115966796875,2.13623046875,-0.30517578125,0.2441406100988388
62471,0.01513671875,-0.1683349609375,1.0106201171875,2.929687261581421,-0.4272460639476776,0.1831054538488388
62487,0.0174560546875,-0.1688232421875,1.0103759765625,3.051757574081421,-0.4272460639476776,0.1831054538488388
62504,0.0155029296875,-0.165771484375,1.0107421875,3.417968511581421,-0.3662109076976776,0.2441406100988388
62525,0.0147705078125,-0.1666259765625,1.0113525390625,3.906249761581421,-0.3662109076976776,0.2441406100988388
62575,0.0137939453125,-0.172119140625,1.0115966796875,5.371093273162842,-0.4272460639476776,0.1831054538488388
62592,0.0147705078125,-0.1761474609375,1.0096435546875,5.554198741912842,-0.4272460639476776,0.1831054538488388
62627,0.014892578125,-0.1842041015625,1.0096435546875,5.737304210662842,-0.7324218153953552,0.1220703050494194
62680,0.0142822265625,-0.1878662109375,1.007568359375,5.371093273162842,-0.54931640625,0.0610351525247097
62772,0.0133056640625,-0.1973876953125,1.009521484375,4.21142578125,-0.3662109076976776,0.1831054538488388
62789,0.013671875,-0.200439453125,1.0057373046875,3.662109136581421,-0.4272460639476776,0.1831054538488388
62806,0.0128173828125,-0.2056884765625,1.0029296875,3.356933355331421,-0.4882812201976776,0.1831054538488388
62826,0.012451171875,-0.204833984375,1.005615234375,2.563476324081421,-0.30517578125,0.1831054538488388
62876,0.01513671875,-0.1973876953125,1.0072021484375,1.15966796875,-0.1831054538488388,0.2441406100988388
62893,0.013916015625,-0.1973876953125,1.0059814453125,1.03759765625,-0.2441406100988388,0.2441406100988388
62914,0.012451171875,-0.197265625,1.007080078125,0.9765624403953552,-0.2441406100988388,0.2441406100988388
62931,0.0142822265625,-0.1968994140625,1.006103515625,0.9155272841453552,-0.1831054538488388,0.2441406100988388
62981,0.012939453125,-0.1973876953125,1.0069580078125,0.8544921278953552,-0.30517578125,0.3662109076976776
63072,0.01416015625,-0.1962890625,1.0078125,0.30517578125,-0.1831054538488388,0.3662109076976776
63084,0.01416015625,-0.1944580078125,1.005859375,0.30517578125,-0.2441406100988388,0.3662109076976776
63117,0.01220703125,-0.1956787109375,1.0069580078125,0.4272460639476776,-0.2441406100988388,0.2441406100988388
63134,0.0135498046875,-0.1959228515625,1.007080078125,0.4882812201976776,-0.2441406100988388,0.30517578125
63151,0.0145263671875,-0.193359375,1.00634765625,0.54931640625,-0.2441406100988388,0.3662109076976776
63167,0.012451171875,-0.19677734375,1.007568359375,0.4272460639476776,-0.1831054538488388,0.3662109076976776
63185,0.0140380859375,-0.1943359375,1.0074462890625,0.4272460639476776,-0.1831054538488388,0.3662109076976776
63260,0.014404296875,-0.1932373046875,1.0076904296875,0.6713866591453552,-0.1831054538488388,0.30517578125
63314,0.01220703125,-0.194580078125,1.0059814453125,0.9155272841453552,-0.2441406100988388,0.30517578125
63331,0.0130615234375,-0.19384765625,1.00732421875,0.9155272841453552,-0.2441406100988388,0.2441406100988388
63348,0.0147705078125,-0.1925048828125,1.0087890625,1.03759765625,-0.2441406100988388,0.2441406100988388
63399,0.0145263671875,-0.194580078125,1.0076904296875,1.3427733182907104,-0.30517578125,0.30517578125
63493,0.013916015625,-0.1959228515625,1.007080078125,1.6479490995407104,-0.2441406100988388,0.1831054538488388
63510,0.0123291015625,-0.1959228515625,1.0076904296875,1.6479490995407104,-0.30517578125,0.1831054538488388
63527,0.01318359375,-0.1962890625,1.0072021484375,1.7700194120407104,-0.2441406100988388,0.30517578125
63579,0.0125732421875,-0.1995849609375,1.0067138671875,1.4648436307907104,-0.2441406100988388,0.2441406100988388
63628,0.0135498046875,-0.1990966796875,1.0042724609375,1.3427733182907104,-0.2441406100988388,0.30517578125
63673,0.01318359375,-0.1995849609375,1.009521484375,0.9765624403953552,-0.1831054538488388,0.2441406100988388
63685,0.01220703125,-0.1981201171875,1.006591796875,0.9155272841453552,-0.2441406100988388,0.30517578125
63718,0.01318359375,-0.197265625,1.00732421875,0.8544921278953552,-0.1831054538488388,0.2441406100988388
63735,0.013916015625,-0.1971435546875,1.008056640625,0.8544921278953552,-0.1831054538488388,0.2441406100988388
63769,0.0140380859375,-0.1981201171875,1.0059814453125,0.7934569716453552,-0.2441406100988388,0.30517578125
63849,0.013427734375,-0.1978759765625,1.0067138671875,1.0986328125,-0.2441406100988388,0.2441406100988388
63866,0.01318359375,-0.1966552734375,1.0068359375,1.15966796875,-0.30517578125,0.30517578125
63899,0.0133056640625,-0.1954345703125,1.0072021484375,1.4648436307907104,-0.30517578125,0.3662109076976776
63970,0.0145263671875,-0.197021484375,1.005126953125,1.7700194120407104,-0.2441406100988388,0.2441406100988388
63982,0.0145263671875,-0.198486328125,1.00634765625,1.7089842557907104,-0.1831054538488388,0.30517578125
64012,0.01318359375,-0.2008056640625,1.004150390625,1.7700194120407104,-0.2441406100988388,0.30517578125
64045,0.0135498046875,-0.199951171875,1.00634765625,1.7089842557907104,-0.2441406100988388,0.1831054538488388
64087,0.0125732421875,-0.2015380859375,1.0042724609375,1.7089842557907104,-0.30517578125,0.2441406100988388
64099,0.0137939453125,-0.2025146484375,1.005126953125,1.6479490995407104,-0.2441406100988388,0.2441406100988388
64133,0.0146484375,-0.1990966796875,1.006591796875,1.6479490995407104,-0.1220703050494194,0.3662109076976776
64152,0.012939453125,-0.19921875,1.00634765625,1.7089842557907104,-0.1831054538488388,0.30517578125
64168,0.01220703125,-0.2025146484375,1.00537109375,1.7700194120407104,-0.2441406100988388,0.30517578125
64201,0.0142822265625,-0.2049560546875,1.0054931640625,1.5258787870407104,-0.1831054538488388,0.2441406100988388
64222,0.0133056640625,-0.205078125,1.005859375,1.4648436307907104,-0.2441406100988388,0.2441406100988388
64255,0.0130615234375,-0.20361328125,1.0050048828125,1.15966796875,-0.1220703050494194,0.30517578125
64272,0.0123291015625,-0.207275390625,1.0052490234375,1.03759765625,-0.1831054538488388,0.30517578125
64288,0.0133056640625,-0.2069091796875,1.005126953125,0.7934569716453552,-0.30517578125,0.30517578125
64321,0.0130615234375,-0.20166015625,1.00341796875,0.4272460639476776,-0.1831054538488388,0.30517578125
64338,0.01220703125,-0.20263671875,1.0042724609375,0.4272460639476776,-0.1831054538488388,0.30517578125
64357,0.0130615234375,-0.20458984375,1.005615234375,0.30517578125,-0.1831054538488388,0.30517578125
64370,0.013671875,-0.2052001953125,1.00390625,0.2441406100988388,-0.1831054538488388,0.3662109076976776
64431,0.0133056640625,-0.1990966796875,1.0087890625,0.0610351525247097,-0.1220703050494194,0.3662109076976776
64454,0.0147705078125,-0.199462890625,1.005615234375,0.1831054538488388,-0.1831054538488388,0.4272460639476776
64466,0.0126953125,-0.19921875,1.00634765625,0.30517578125,-0.1220703050494194,0.3662109076976776
64501,0.0126953125,-0.1983642578125,1.00634765625,0.54931640625,-0.1220703050494194,0.30517578125
64518,0.012939453125,-0.198486328125,1.0040283203125,0.6103515625,-0.1831054538488388,0.30517578125
64535,0.0147705078125,-0.200927734375,1.0062255859375,0.6103515625,-0.1831054538488388,0.3662109076976776
64551,0.0146484375,-0.2017822265625,1.0054931640625,0.6103515625,-0.1831054538488388,0.3662109076976776
64570,0.0113525390625,-0.2020263671875,1.0062255859375,0.54931640625,-0.2441406100988388,0.30517578125
64586,0.010986328125,-0.2020263671875,1.0054931640625,0.54931640625,-0.1831054538488388,0.30517578125
64624,0.0155029296875,-0.198486328125,1.007080078125,0.54931640625,-0.30517578125,0.2441406100988388
64640,0.01318359375,-0.2000732421875,1.0032958984375,0.6103515625,-0.30517578125,0.2441406100988388
64657,0.0120849609375,-0.20166015625,1.00634765625,0.7324218153953552,-0.1220703050494194,0.30517578125
64674,0.0118408203125,-0.2032470703125,1.006103515625,0.54931640625,-0.0610351525247097,0.30517578125
64691,0.013671875,-0.203857421875,1.0050048828125,0.30517578125,0.0610351525247097,0.3662109076976776
64728,0.0108642578125,-0.1990966796875,1.007080078125,0.1831054538488388,-0.1831054538488388,0.3662109076976776
64796,0.01220703125,-0.19384765625,1.0079345703125,0.9765624403953552,-0.1831054538488388,0.3662109076976776
64813,0.01416015625,-0.1959228515625,1.0069580078125,1.3427733182907104,0.0,0.3662109076976776
64829,0.01513671875,-0.197265625,1.008544921875,1.4648436307907104,0.0,0.3662109076976776
64867,0.0125732421875,-0.1993408203125,1.0040283203125,1.4648436307907104,-0.30517578125,0.2441406100988388
64883,0.013671875,-0.19384765625,1.0079345703125,1.7089842557907104,-0.30517578125,0.1831054538488388
64900,0.0145263671875,-0.1922607421875,1.00830078125,2.197265625,-0.3662109076976776,0.2441406100988388
64917,0.015380859375,-0.191650390625,1.006103515625,2.807616949081421,-0.4882812201976776,0.1831054538488388
64933,0.016357421875,-0.1927490234375,1.0068359375,3.112792730331421,-0.4882812201976776,0.1831054538488388
64950,0.014404296875,-0.193603515625,1.00634765625,3.723144292831421,-0.54931640625,0.2441406100988388
64967,0.0120849609375,-0.196533203125,1.005615234375,4.33349609375,-0.4272460639476776,0.1831054538488388
64986,0.0152587890625,-0.1956787109375,1.0084228515625,5.0048828125,-0.4272460639476776,0.1220703050494194
65007,0.015380859375,-0.194091796875,1.0079345703125,5.737304210662842,-0.6103515625,0.0
65023,0.01123046875,-0.2030029296875,1.005126953125,6.042479991912842,-0.6103515625,0.0
65044,0.0103759765625,-0.2061767578125,1.0030517578125,6.347655773162842,-0.3662109076976776,0.1220703050494194
65061,0.0133056640625,-0.2142333984375,1.0009765625,6.347655773162842,-0.3662109076976776,0.1831054538488388
65077,0.0140380859375,-0.2117919921875,1.0025634765625,6.164550304412842,-0.30517578125,0.1831054538488388
65094,0.009765625,-0.21435546875,1.003173828125,5.981444835662842,-0.2441406100988388,0.1831054538488388
65111,0.009765625,-0.2259521484375,1.0045166015625,5.859374523162842,-0.3662109076976776,0.1831054538488388
65127,0.0140380859375,-0.2276611328125,1.000244140625,5.371093273162842,-0.6103515625,0.0
65164,0.0159912109375,-0.2249755859375,0.998779296875,4.7607421875,-0.4272460639476776,0.1831054538488388
65181,0.0069580078125,-0.219970703125,0.9990234375,4.5166015625,-0.3662109076976776,0.2441406100988388
65198,0.0089111328125,-0.2308349609375,0.9991455078125,3.967284917831421,-0.30517578125,0.2441406100988388
65214,0.0169677734375,-0.240478515625,0.9964599609375,3.540038824081421,-0.30517578125,0.30517578125
65231,0.0150146484375,-0.2415771484375,0.99755859375,2.44140625,-0.1831054538488388,0.2441406100988388
65248,0.0072021484375,-0.23828125,0.998046875,1.3427733182907104,-0.1220703050494194,0.4272460639476776
65286,0.0135498046875,-0.2366943359375,0.9996337890625,-0.30517578125,-0.1220703050494194,0.4882812201976776
65302,0.00927734375,-0.24072265625,0.99658203125,-1.7089842557907104,-0.0610351525247097,0.4272460639476776
65319,0.00732421875,-0.242919921875,0.997802734375,-3.112792730331421,0.1220703050494194,0.4882812201976776
65335,0.01123046875,-0.229248046875,1.0013427734375,-3.601073980331421,0.1831054538488388,0.4272460639476776
65401,0.0142822265625,-0.2109375,1.0010986328125,-3.784179449081421,0.0,0.4882812201976776
65471,0.01171875,-0.1982421875,1.00634765625,-2.746581792831421,0.0,0.4272460639476776
65483,0.0147705078125,-0.19921875,1.0064697265625,-2.01416015625,-0.0610351525247097,0.4882812201976776
65516,0.0147705078125,-0.2012939453125,1.004638671875,-1.2817381620407104,-0.1220703050494194,0.4882812201976776
65549,0.012451171875,-0.203369140625,1.0062255859375,-0.3662109076976776,-0.1831054538488388,0.3662109076976776
65591,0.01416015625,-0.2010498046875,1.0047607421875,0.3662109076976776,-0.2441406100988388,0.2441406100988388
65608,0.0128173828125,-0.1966552734375,1.00634765625,0.6713866591453552,-0.2441406100988388,0.2441406100988388
65625,0.011962890625,-0.1925048828125,1.008056640625,1.4648436307907104,-0.30517578125,0.1831054538488388
65645,0.0166015625,-0.1903076171875,1.0069580078125,2.44140625,-0.3662109076976776,0.1831054538488388
65662,0.0177001953125,-0.1927490234375,1.00537109375,3.479003667831421,-0.4272460639476776,0.2441406100988388
65679,0.015625,-0.2020263671875,1.006103515625,4.150390625,-0.4272460639476776,0.2441406100988388
65694,0.0106201171875,-0.2061767578125,1.0054931640625,4.5166015625,-0.4272460639476776,0.1831054538488388
65749,0.015380859375,-0.209228515625,1.0048828125,5.065917491912842,-0.4272460639476776,0.1220703050494194
65773,0.008056640625,-0.2083740234375,1.0010986328125,5.310058116912842,-0.54931640625,0.1831054538488388
65790,0.010009765625,-0.2120361328125,1.00341796875,5.554198741912842,-0.54931640625,0.1220703050494194
65807,0.0147705078125,-0.2147216796875,1.0032958984375,5.615233898162842,-0.6103515625,0.1220703050494194
65858,0.0086669921875,-0.229736328125,0.9998779296875,4.69970703125,-0.4882812201976776,0.1831054538488388
65890,0.010498046875,-0.2286376953125,1.000244140625,3.723144292831421,-0.3662109076976776,0.0610351525247097
65906,0.01611328125,-0.22216796875,1.002197265625,3.662109136581421,-0.3662109076976776,0.1220703050494194
65939,0.0091552734375,-0.2247314453125,1.0001220703125,3.845214605331421,-0.54931640625,0.1831054538488388
65972,0.0113525390625,-0.234130859375,1.0006103515625,3.295898199081421,-0.3662109076976776,0.1831054538488388
66072,0.0115966796875,-0.2283935546875,1.0003662109375,2.3193359375,-0.30517578125,0.1831054538488388
66089,0.01513671875,-0.2303466796875,1.000732421875,2.3193359375,-0.4272460639476776,0.2441406100988388
66106,0.011962890625,-0.2288818359375,0.998779296875,2.44140625,-0.30517578125,0.2441406100988388
66157,0.012451171875,-0.235107421875,0.996826171875,2.0751953125,-0.1831054538488388,0.30517578125
66190,0.010986328125,-0.234375,0.9969482421875,1.9531248807907104,-0.2441406100988388,0.4272460639476776
66202,0.0120849609375,-0.2374267578125,0.99658203125,1.7700194120407104,-0.1831054538488388,0.30517578125
66235,0.0101318359375,-0.231689453125,0.9991455078125,1.3427733182907104,-0.1831054538488388,0.1831054538488388
66252,0.01123046875,-0.2308349609375,0.9998779296875,1.4648436307907104,-0.2441406100988388,0.1831054538488388
66269,0.013427734375,-0.23046875,0.999755859375,1.7089842557907104,-0.30517578125,0.2441406100988388
66289,0.0093994140625,-0.2322998046875,0.997802734375,1.7700194120407104,-0.3662109076976776,0.2441406100988388
66303,0.0086669921875,-0.2396240234375,0.9986572265625,1.6479490995407104,-0.2441406100988388,0.3662109076976776
66320,0.0103759765625,-0.2369384765625,0.996337890625,1.5869139432907104,-0.2441406100988388,0.3662109076976776
66353,0.01123046875,-0.23193359375,0.997314453125,1.4038084745407104,-0.1831054538488388,0.30517578125
66372,0.0120849609375,-0.2314453125,0.99951171875,1.7089842557907104,-0.1831054538488388,0.3662109076976776
66389,0.01220703125,-0.2315673828125,0.99853515625,1.9531248807907104,-0.1831054538488388,0.2441406100988388
66410,0.01220703125,-0.2315673828125,0.9993896484375,1.9531248807907104,-0.1220703050494194,0.2441406100988388
66427,0.0125732421875,-0.23486328125,0.9990234375,2.197265625,-0.30517578125,0.2441406100988388
66438,0.0126953125,-0.2373046875,0.998291015625,2.3193359375,-0.30517578125,0.1831054538488388
66471,0.0096435546875,-0.2410888671875,0.9967041015625,2.01416015625,-0.4272460639476776,0.30517578125
66489,0.0108642578125,-0.241943359375,0.998046875,1.7089842557907104,-0.30517578125,0.3662109076976776
66505,0.0125732421875,-0.2403564453125,0.9974365234375,1.5869139432907104,-0.30517578125,0.30517578125
66543,0.0093994140625,-0.2431640625,0.9979248046875,0.9765624403953552,-0.3662109076976776,0.3662109076976776
66560,0.0098876953125,-0.2423095703125,0.9969482421875,0.8544921278953552,-0.30517578125,0.4272460639476776
66577,0.010986328125,-0.241943359375,0.9970703125,0.6103515625,-0.1831054538488388,0.3662109076976776
