tMillis,ax,ay,az,gx,gy,gz
246980,0.0140380859375,-0.586181640625,0.83544921875,0.6713866591453552,-0.2441406100988388,0.30517578125
246997,0.0146484375,-0.5863037109375,0.8350830078125,0.6713866591453552,-0.2441406100988388,0.2441406100988388
247013,0.0152587890625,-0.5865478515625,0.83447265625,0.6713866591453552,-0.2441406100988388,0.2441406100988388
247026,0.0135498046875,-0.584716796875,0.83447265625,0.6713866591453552,-0.2441406100988388,0.2441406100988388
247043,0.013916015625,-0.584228515625,0.8349609375,0.6713866591453552,-0.2441406100988388,0.30517578125
247059,0.014892578125,-0.5849609375,0.833251953125,0.6713866591453552,-0.1831054538488388,0.30517578125
247092,0.01513671875,-0.586181640625,0.836181640625,0.6713866591453552,-0.1831054538488388,0.2441406100988388
247113,0.0140380859375,-0.5853271484375,0.833251953125,0.6713866591453552,-0.1831054538488388,0.30517578125
247129,0.013671875,-0.582763671875,0.832763671875,0.6713866591453552,-0.1831054538488388,0.3662109076976776
247146,0.015869140625,-0.5863037109375,0.83544921875,0.6713866591453552,-0.1831054538488388,0.30517578125
247163,0.01611328125,-0.5867919921875,0.8360595703125,0.6713866591453552,-0.2441406100988388,0.30517578125
247179,0.0137939453125,-0.5855712890625,0.8343505859375,0.6713866591453552,-0.2441406100988388,0.30517578125
247217,0.0147705078125,-0.58544921875,0.8370361328125,0.6713866591453552,-0.2441406100988388,0.2441406100988388
247233,0.013916015625,-0.5845947265625,0.836181640625,0.6713866591453552,-0.2441406100988388,0.30517578125
247249,0.012451171875,-0.5855712890625,0.8353271484375,0.6713866591453552,-0.1831054538488388,0.30517578125
247265,0.01611328125,-0.5848388671875,0.8321533203125,0.6713866591453552,-0.1831054538488388,0.30517578125
247282,0.01611328125,-0.585205078125,0.833984375,0.6103515625,-0.1831054538488388,0.1831054538488388
247303,0.014404296875,-0.586669921875,0.837158203125,0.6713866591453552,-0.1831054538488388,0.1831054538488388
247319,0.0137939453125,-0.5843505859375,0.83251953125,0.7324218153953552,-0.2441406100988388,0.2441406100988388
247336,0.014404296875,-0.5863037109375,0.834716796875,0.6713866591453552,-0.2441406100988388,0.30517578125
247353,0.0135498046875,-0.5869140625,0.8338623046875,0.6103515625,-0.2441406100988388,0.30517578125
247386,0.0146484375,-0.585693359375,0.8353271484375,0.6713866591453552,-0.2441406100988388,0.2441406100988388
247402,0.0150146484375,-0.586181640625,0.8355712890625,0.7324218153953552,-0.2441406100988388,0.30517578125
247418,0.0146484375,-0.58447265625,0.8321533203125,0.6103515625,-0.1831054538488388,0.30517578125
247450,0.0135498046875,-0.5863037109375,0.83544921875,0.6103515625,-0.1831054538488388,0.30517578125
247466,0.0147705078125,-0.588134765625,0.8360595703125,0.6103515625,-0.1831054538488388,0.30517578125
247482,0.0147705078125,-0.586669921875,0.8345947265625,0.6713866591453552,-0.2441406100988388,0.30517578125
247498,0.0152587890625,-0.5845947265625,0.832763671875,0.6713866591453552,-0.30517578125,0.2441406100988388
247523,0.0140380859375,-0.5859375,0.8349609375,0.6713866591453552,-0.2441406100988388,0.2441406100988388
247539,0.01416015625,-0.5849609375,0.835693359375,0.6713866591453552,-0.1831054538488388,0.2441406100988388
247556,0.01416015625,-0.5853271484375,0.8348388671875,0.6713866591453552,-0.1831054538488388,0.2441406100988388
247577,0.0159912109375,-0.5853271484375,0.832763671875,0.6713866591453552,-0.1831054538488388,0.2441406100988388
247593,0.014892578125,-0.587158203125,0.8363037109375,0.6103515625,-0.1831054538488388,0.30517578125
247626,0.013916015625,-0.5853271484375,0.832763671875,0.6713866591453552,-0.2441406100988388,0.2441406100988388
247648,0.0157470703125,-0.586669921875,0.833984375,0.7324218153953552,-0.30517578125,0.2441406100988388
247664,0.0159912109375,-0.5855712890625,0.8338623046875,0.6713866591453552,-0.1831054538488388,0.30517578125
247681,0.0125732421875,-0.5855712890625,0.8343505859375,0.6713866591453552,-0.1831054538488388,0.30517578125
247698,0.0142822265625,-0.5850830078125,0.83447265625,0.6713866591453552,-0.1831054538488388,0.30517578125
247714,0.0166015625,-0.585205078125,0.8345947265625,0.6713866591453552,-0.1831054538488388,0.2441406100988388
247746,0.013671875,-0.5863037109375,0.8338623046875,0.6103515625,-0.2441406100988388,0.2441406100988388
247768,0.013427734375,-0.5860595703125,0.833251953125,0.6713866591453552,-0.2441406100988388,0.2441406100988388
247784,0.0146484375,-0.5859375,0.83544921875,0.6713866591453552,-0.1831054538488388,0.2441406100988388
247801,0.015625,-0.5858154296875,0.833984375,0.6713866591453552,-0.1831054538488388,0.2441406100988388
247867,0.0150146484375,-0.586181640625,0.835205078125,0.6713866591453552,-0.2441406100988388,0.30517578125
247884,0.0147705078125,-0.5859375,0.8350830078125,0.6713866591453552,-0.1831054538488388,0.2441406100988388
247900,0.0135498046875,-0.5855712890625,0.83447265625,0.6713866591453552,-0.2441406100988388,0.2441406100988388
247932,0.0140380859375,-0.585693359375,0.8338623046875,0.6713866591453552,-0.2441406100988388,0.30517578125
247948,0.0145263671875,-0.585205078125,0.8345947265625,0.6713866591453552,-0.1831054538488388,0.2441406100988388
247964,0.0146484375,-0.585205078125,0.8348388671875,0.6713866591453552,-0.1831054538488388,0.1831054538488388
247980,0.0142822265625,-0.5865478515625,0.836181640625,0.6713866591453552,-0.1831054538488388,0.2441406100988388
248000,0.013916015625,-0.5849609375,0.833740234375,0.6103515625,-0.1831054538488388,0.30517578125
248021,0.0147705078125,-0.5850830078125,0.8341064453125,0.6103515625,-0.1831054538488388,0.2441406100988388
248038,0.01513671875,-0.5855712890625,0.8341064453125,0.6103515625,-0.1831054538488388,0.2441406100988388
248055,0.0146484375,-0.5848388671875,0.8350830078125,0.6713866591453552,-0.30517578125,0.2441406100988388
248072,0.0133056640625,-0.58447265625,0.8338623046875,0.6713866591453552,-0.2441406100988388,0.30517578125
248105,0.0159912109375,-0.58642578125,0.8350830078125,0.6103515625,-0.2441406100988388,0.30517578125
248122,0.01513671875,-0.584228515625,0.8341064453125,0.6103515625,-0.2441406100988388,0.2441406100988388
248143,0.0140380859375,-0.5850830078125,0.8353271484375,0.6713866591453552,-0.2441406100988388,0.2441406100988388
248159,0.0147705078125,-0.585693359375,0.83447265625,0.6713866591453552,-0.1831054538488388,0.30517578125
248176,0.0147705078125,-0.5858154296875,0.833984375,0.6713866591453552,-0.1831054538488388,0.2441406100988388
248193,0.0142822265625,-0.5859375,0.835205078125,0.7324218153953552,-0.2441406100988388,0.2441406100988388
248226,0.013671875,-0.5845947265625,0.8319091796875,0.6713866591453552,-0.2441406100988388,0.2441406100988388
248242,0.014892578125,-0.588623046875,0.838623046875,0.6713866591453552,-0.2441406100988388,0.2441406100988388
248258,0.0133056640625,-0.585205078125,0.836181640625,0.6713866591453552,-0.1831054538488388,0.30517578125
248290,0.014404296875,-0.5836181640625,0.832763671875,0.6713866591453552,-0.1831054538488388,0.30517578125
248306,0.0152587890625,-0.5831298828125,0.831787109375,0.6713866591453552,-0.2441406100988388,0.2441406100988388
248322,0.015625,-0.583251953125,0.833740234375,0.6713866591453552,-0.2441406100988388,0.1831054538488388
248338,0.01513671875,-0.5906982421875,0.8428955078125,0.6713866591453552,-0.2441406100988388,0.2441406100988388
248358,0.013916015625,-0.5885009765625,0.839111328125,0.6713866591453552,-0.1831054538488388,0.30517578125
248374,0.0133056640625,-0.5848388671875,0.83154296875,0.6713866591453552,-0.1831054538488388,0.2441406100988388
248406,0.0152587890625,-0.5810546875,0.8306884765625,0.6713866591453552,-0.2441406100988388,0.2441406100988388
248423,0.013671875,-0.5830078125,0.831787109375,0.7324218153953552,-0.2441406100988388,0.2441406100988388
248444,0.0137939453125,-0.588623046875,0.837890625,0.7324218153953552,-0.1831054538488388,0.2441406100988388
248460,0.0152587890625,-0.5888671875,0.8389892578125,0.6713866591453552,-0.1831054538488388,0.2441406100988388
248526,0.0135498046875,-0.585693359375,0.8345947265625,0.6713866591453552,-0.2441406100988388,0.2441406100988388
248543,0.0146484375,-0.5867919921875,0.8370361328125,0.6713866591453552,-0.2441406100988388,0.30517578125
248559,0.0142822265625,-0.58837890625,0.8377685546875,0.6713866591453552,-0.2441406100988388,0.30517578125
248592,0.013671875,-0.584716796875,0.8345947265625,0.6713866591453552,-0.1831054538488388,0.30517578125
248613,0.0145263671875,-0.585205078125,0.8360595703125,0.6713866591453552,-0.1831054538488388,0.30517578125
248629,0.014404296875,-0.5841064453125,0.8348388671875,0.6713866591453552,-0.1831054538488388,0.2441406100988388
248646,0.0135498046875,-0.586181640625,0.8367919921875,0.6103515625,-0.1220703050494194,0.2441406100988388
248663,0.013916015625,-0.5855712890625,0.833984375,0.6103515625,-0.1831054538488388,0.2441406100988388
248679,0.014404296875,-0.584228515625,0.8330078125,0.6103515625,-0.2441406100988388,0.30517578125
248717,0.014404296875,-0.5850830078125,0.8360595703125,0.6103515625,-0.1831054538488388,0.30517578125
248733,0.013916015625,-0.5853271484375,0.834716796875,0.6713866591453552,-0.2441406100988388,0.2441406100988388
248749,0.0145263671875,-0.5858154296875,0.8353271484375,0.6713866591453552,-0.2441406100988388,0.2441406100988388
248765,0.015869140625,-0.5882568359375,0.8359375,0.6103515625,-0.2441406100988388,0.2441406100988388
248782,0.0137939453125,-0.5833740234375,0.83154296875,0.6103515625,-0.1831054538488388,0.2441406100988388
248803,0.0133056640625,-0.5831298828125,0.8336181640625,0.6103515625,-0.1831054538488388,0.1831054538488388
248819,0.01416015625,-0.5848388671875,0.83544921875,0.6713866591453552,-0.1831054538488388,0.2441406100988388
248836,0.014404296875,-0.5870361328125,0.8359375,0.6103515625,-0.1831054538488388,0.30517578125
248853,0.0135498046875,-0.5860595703125,0.834228515625,0.6103515625,-0.1831054538488388,0.30517578125
248885,0.0145263671875,-0.5860595703125,0.8367919921875,0.6103515625,-0.1831054538488388,0.2441406100988388
248901,0.0146484375,-0.585693359375,0.8355712890625,0.6103515625,-0.1220703050494194,0.2441406100988388
248917,0.013916015625,-0.584228515625,0.834228515625,0.6713866591453552,-0.2441406100988388,0.30517578125
248957,0.0135498046875,-0.585205078125,0.8333740234375,0.6713866591453552,-0.1220703050494194,0.2441406100988388
249005,0.0140380859375,-0.585693359375,0.8341064453125,0.6713866591453552,-0.2441406100988388,0.2441406100988388
249077,0.013916015625,-0.587158203125,0.8375244140625,0.6713866591453552,-0.2441406100988388,0.2441406100988388
249094,0.01318359375,-0.5858154296875,0.834716796875,0.6103515625,-0.1831054538488388,0.2441406100988388
249126,0.0145263671875,-0.584228515625,0.8345947265625,0.54931640625,-0.2441406100988388,0.2441406100988388
249142,0.0140380859375,-0.58544921875,0.835693359375,0.54931640625,-0.2441406100988388,0.2441406100988388
249159,0.0140380859375,-0.5865478515625,0.8360595703125,0.6713866591453552,-0.1831054538488388,0.2441406100988388
249191,0.0146484375,-0.58544921875,0.83349609375,0.6103515625,-0.1831054538488388,0.30517578125
249239,0.0146484375,-0.5841064453125,0.833251953125,0.7324218153953552,-0.1831054538488388,0.2441406100988388
249261,0.0147705078125,-0.5848388671875,0.8355712890625,0.7324218153953552,-0.2441406100988388,0.30517578125
249278,0.0157470703125,-0.586181640625,0.835205078125,0.6713866591453552,-0.1831054538488388,0.1831054538488388
249315,0.01416015625,-0.585205078125,0.8348388671875,0.7324218153953552,-0.2441406100988388,0.30517578125
249332,0.0146484375,-0.5848388671875,0.833740234375,0.6713866591453552,-0.1831054538488388,0.1831054538488388
249348,0.0142822265625,-0.5850830078125,0.835693359375,0.7324218153953552,-0.1831054538488388,0.2441406100988388
249365,0.0147705078125,-0.58447265625,0.8345947265625,0.8544921278953552,-0.2441406100988388,0.1831054538488388
249382,0.0147705078125,-0.584228515625,0.83447265625,0.8544921278953552,-0.1831054538488388,0.2441406100988388
249403,0.013671875,-0.5859375,0.8359375,0.9155272841453552,-0.1831054538488388,0.2441406100988388
249419,0.0145263671875,-0.586669921875,0.8369140625,0.8544921278953552,-0.1831054538488388,0.2441406100988388
249436,0.0142822265625,-0.5855712890625,0.8333740234375,0.8544921278953552,-0.1831054538488388,0.2441406100988388
249453,0.0147705078125,-0.5860595703125,0.8341064453125,0.9155272841453552,-0.2441406100988388,0.30517578125
249486,0.0142822265625,-0.5848388671875,0.8350830078125,0.9765624403953552,-0.2441406100988388,0.2441406100988388
249503,0.0137939453125,-0.585693359375,0.8349609375,0.9765624403953552,-0.2441406100988388,0.2441406100988388
249519,0.01318359375,-0.5869140625,0.8338623046875,1.0986328125,-0.1831054538488388,0.2441406100988388
249552,0.0155029296875,-0.5859375,0.83447265625,1.0986328125,-0.1831054538488388,0.2441406100988388
249573,0.0146484375,-0.586181640625,0.8336181640625,0.9765624403953552,-0.1831054538488388,0.1831054538488388
249589,0.013427734375,-0.5875244140625,0.83447265625,0.9765624403953552,-0.2441406100988388,0.1831054538488388
249606,0.01416015625,-0.5882568359375,0.833984375,0.9765624403953552,-0.2441406100988388,0.1831054538488388
249623,0.0147705078125,-0.5889892578125,0.833251953125,0.8544921278953552,-0.2441406100988388,0.2441406100988388
249639,0.0146484375,-0.586669921875,0.83251953125,0.7934569716453552,-0.2441406100988388,0.2441406100988388
249676,0.013427734375,-0.589599609375,0.8328857421875,0.6103515625,-0.2441406100988388,0.2441406100988388
249693,0.013427734375,-0.59130859375,0.8309326171875,0.4882812201976776,-0.2441406100988388,0.30517578125
249709,0.0142822265625,-0.59033203125,0.831298828125,0.1831054538488388,-0.2441406100988388,0.30517578125
249725,0.013427734375,-0.587158203125,0.8333740234375,0.0610351525247097,-0.1831054538488388,0.1831054538488388
249747,0.0128173828125,-0.5833740234375,0.836181640625,0.0610351525247097,-0.2441406100988388,0.1831054538488388
249763,0.0146484375,-0.5789794921875,0.8377685546875,0.3662109076976776,-0.2441406100988388,0.2441406100988388
249780,0.015869140625,-0.586181640625,0.8330078125,0.6713866591453552,-0.2441406100988388,0.3662109076976776
249798,0.0125732421875,-0.5889892578125,0.8311767578125,0.7324218153953552,-0.2441406100988388,0.3662109076976776
249814,0.013671875,-0.5826416015625,0.8377685546875,0.7324218153953552,-0.1220703050494194,0.2441406100988388
249848,0.015625,-0.5850830078125,0.8331298828125,1.0986328125,-0.2441406100988388,0.30517578125
249864,0.013916015625,-0.5859375,0.8338623046875,1.0986328125,-0.1831054538488388,0.2441406100988388
249880,0.012939453125,-0.5838623046875,0.83544921875,1.15966796875,-0.1220703050494194,0.1831054538488388
249928,0.0159912109375,-0.5811767578125,0.8369140625,2.3193359375,-0.1220703050494194,0.1831054538488388
249980,0.010986328125,-0.581787109375,0.834716796875,3.845214605331421,-0.2441406100988388,0.2441406100988388
249997,0.01171875,-0.587158203125,0.8328857421875,4.0283203125,-0.2441406100988388,0.2441406100988388
250030,0.017578125,-0.58544921875,0.8343505859375,4.638671875,-0.1220703050494194,0.1220703050494194
250104,0.011474609375,-0.59375,0.8260498046875,6.408690929412842,0.1831054538488388,0.3662109076976776
250121,0.0107421875,-0.5933837890625,0.826171875,6.652831554412842,0.3662109076976776,0.3662109076976776
250138,0.0164794921875,-0.59814453125,0.8297119140625,6.713866710662842,0.4272460639476776,0.4272460639476776
250157,0.015380859375,-0.59814453125,0.8223876953125,6.958007335662842,0.4882812201976776,0.54931640625
250173,0.01123046875,-0.6002197265625,0.8145751953125,7.019042491912842,0.7324218153953552,0.4882812201976776
250189,0.009765625,-0.5946044921875,0.824951171875,7.324218273162842,1.15966796875,0.8544921278953552
250206,0.0172119140625,-0.599609375,0.840087890625,8.23974609375,1.9531248807907104,1.3427733182907104
250222,0.02734375,-0.5933837890625,0.8468017578125,8.6669921875,2.38037109375,1.7089842557907104
250238,0.0635986328125,-0.58935546875,0.897216796875,7.995604991912842,3.540038824081421,2.624511480331421
250286,0.022705078125,-0.9671630859375,1.4266357421875,13.061522483825684,-5.859374523162842,-3.479003667831421
250338,0.0106201171875,-0.9033203125,1.1917724609375,11.535643577575684,-10.986327171325684,-7.507323741912842
250355,0.0128173828125,-0.862548828125,1.1768798828125,9.70458984375,-12.451170921325684,-9.033203125
250388,-0.0206298828125,-0.859375,1.1669921875,8.97216796875,-14.221190452575684,-10.192870140075684
250405,-0.033935546875,-0.892822265625,1.1717529296875,10.253905296325684,-15.747069358825684,-10.803221702575684
250421,-0.05322265625,-0.8892822265625,1.138916015625,11.230467796325684,-16.78466796875,-12.207030296325684
250438,-0.0689697265625,-0.86328125,1.0701904296875,12.207030296325684,-16.90673828125,-12.390135765075684
250458,-0.0667724609375,-0.8194580078125,1.034423828125,11.779784202575684,-16.7236328125,-12.451170921325684
250480,-0.0703125,-0.8017578125,0.990966796875,11.352538108825684,-16.4794921875,-12.207030296325684
250496,-0.07373046875,-0.7327880859375,0.9222412109375,10.253905296325684,-15.319823265075684,-11.352538108825684
250513,-0.0828857421875,-0.708740234375,0.8642578125,8.4228515625,-13.671874046325684,-9.765625
250534,-0.08984375,-0.7005615234375,0.834716796875,6.469726085662842,-12.084959983825684,-8.36181640625
250567,-0.0936279296875,-0.6121826171875,0.6971435546875,2.01416015625,-8.9111328125,-6.103515148162842
250583,-0.09423828125,-0.5888671875,0.67529296875,-1.3427733182907104,-5.859374523162842,-3.540038824081421
250599,-0.09326171875,-0.575927734375,0.6954345703125,-4.39453125,-3.112792730331421,-0.9155272841453552
250630,-0.0853271484375,-0.561279296875,0.671630859375,-9.09423828125,0.9765624403953552,2.868652105331421
250652,-0.0687255859375,-0.6058349609375,0.7095947265625,-10.375975608825684,2.50244140625,4.21142578125
250668,-0.0506591796875,-0.6357421875,0.76513671875,-13.000487327575684,4.57763671875,6.103515148162842
250685,-0.0496826171875,-0.635009765625,0.7572021484375,-14.648436546325684,5.981444835662842,7.263183116912842
250701,-0.045654296875,-0.62109375,0.7763671875,-15.319823265075684,6.835937023162842,7.873534679412842
250718,-0.0408935546875,-0.5894775390625,0.743408203125,-17.15087890625,8.72802734375,9.70458984375
250752,-0.0179443359375,-0.55615234375,0.7301025390625,-18.98193359375,10.253905296325684,11.291502952575684
250773,-0.0035400390625,-0.5338134765625,0.7259521484375,-19.775390625,10.986327171325684,11.962889671325684
250789,0.0054931640625,-0.5185546875,0.6995849609375,-20.141599655151367,11.230467796325684,12.207030296325684
250805,0.010498046875,-0.502685546875,0.693603515625,-20.385740280151367,11.596678733825684,12.268065452575684
250821,0.023193359375,-0.4996337890625,0.71240234375,-20.141599655151367,11.657713890075684,12.329100608825684
250838,0.033935546875,-0.495849609375,0.732666015625,-18.5546875,10.437010765075684,11.718749046325684
250871,0.0419921875,-0.4932861328125,0.730712890625,-16.2353515625,8.60595703125,10.070799827575684
250887,0.0406494140625,-0.4794921875,0.7041015625,-15.319823265075684,7.751464366912842,9.46044921875
250903,0.0400390625,-0.45849609375,0.684326171875,-13.488768577575684,6.103515148162842,8.11767578125
250919,0.0377197265625,-0.427001953125,0.646728515625,-11.474608421325684,4.8828125,7.202147960662842
250989,0.026123046875,-0.3739013671875,0.605224609375,-4.08935546875,1.4648436307907104,4.39453125
251023,0.013427734375,-0.3653564453125,0.58447265625,-0.2441406100988388,0.3662109076976776,3.662109136581421
251057,0.0,-0.3804931640625,0.5557861328125,3.662109136581421,-0.1220703050494194,3.234863042831421
251074,-0.0111083984375,-0.381103515625,0.5458984375,4.8828125,-0.0610351525247097,3.112792730331421
251107,-0.01611328125,-0.3883056640625,0.551513671875,6.225585460662842,1.15966796875,3.662109136581421
251124,-0.01318359375,-0.4366455078125,0.609130859375,7.202147960662842,1.5869139432907104,3.967284917831421
251141,-0.0150146484375,-0.48388671875,0.6705322265625,8.72802734375,1.8310545682907104,4.0283203125
251177,-0.0128173828125,-0.5557861328125,0.77197265625,11.779784202575684,1.5258787870407104,3.356933355331421
251193,-0.004638671875,-0.569580078125,0.7977294921875,13.854979515075684,0.9765624403953552,2.990722417831421
251209,0.002197265625,-0.575927734375,0.803466796875,14.709471702575684,0.8544921278953552,2.868652105331421
251225,0.0048828125,-0.5955810546875,0.813232421875,16.17431640625,0.6713866591453552,2.807616949081421
251242,0.00927734375,-0.6346435546875,0.8529052734375,17.76123046875,0.3662109076976776,2.38037109375
251263,0.0126953125,-0.6568603515625,0.8819580078125,18.5546875,-0.1220703050494194,1.8920897245407104
251279,0.0174560546875,-0.6724853515625,0.90966796875,20.202634811401367,-1.4038084745407104,0.7934569716453552
251296,0.01953125,-0.6650390625,0.8885498046875,21.301267623901367,-2.807616949081421,-0.1220703050494194
251313,0.0123291015625,-0.65234375,0.8380126953125,21.484373092651367,-3.173827886581421,-0.4272460639476776
251346,0.004638671875,-0.68310546875,0.8187255859375,19.83642578125,-3.906249761581421,-1.4648436307907104
251363,-0.0020751953125,-0.6865234375,0.8114013671875,18.4326171875,-4.2724609375,-2.13623046875
251379,-0.00341796875,-0.677001953125,0.809814453125,17.63916015625,-4.33349609375,-2.38037109375
251411,-0.0103759765625,-0.6497802734375,0.749267578125,13.366698265075684,-4.5166015625,-2.685546636581421
251427,-0.0120849609375,-0.6453857421875,0.733642578125,11.962889671325684,-4.2724609375,-2.563476324081421
251443,-0.012451171875,-0.6474609375,0.715576171875,8.7890625,-3.540038824081421,-2.44140625
251459,-0.0091552734375,-0.649169921875,0.7237548828125,7.263183116912842,-3.234863042831421,-2.38037109375
251477,-0.0087890625,-0.6468505859375,0.725341796875,4.57763671875,-2.624511480331421,-2.197265625
251498,-0.00244140625,-0.6546630859375,0.7518310546875,2.44140625,-2.197265625,-1.8920897245407104
251514,-0.0010986328125,-0.671875,0.7657470703125,1.4648436307907104,-2.197265625,-1.8310545682907104
251535,-0.001708984375,-0.668701171875,0.760009765625,-0.2441406100988388,-1.9531248807907104,-1.9531248807907104
251552,0.0029296875,-0.6787109375,0.78466796875,-1.8920897245407104,-1.4038084745407104,-1.8310545682907104
251568,0.0028076171875,-0.67529296875,0.7825927734375,-3.051757574081421,-1.5258787870407104,-1.9531248807907104
251585,0.0029296875,-0.6707763671875,0.7733154296875,-4.08935546875,-1.3427733182907104,-2.01416015625
251601,0.00244140625,-0.661376953125,0.765869140625,-4.8828125,-1.220703125,-2.13623046875
251618,-0.0001220703125,-0.65087890625,0.7581787109375,-5.310058116912842,-1.03759765625,-2.13623046875
251650,0.0013427734375,-0.6568603515625,0.783935546875,-6.225585460662842,-0.9155272841453552,-2.13623046875
251666,0.0009765625,-0.646484375,0.7784423828125,-6.591796398162842,-1.03759765625,-2.3193359375
251682,0.0015869140625,-0.62841796875,0.7669677734375,-6.835937023162842,-0.7324218153953552,-2.197265625
251698,0.001953125,-0.625244140625,0.7713623046875,-6.896972179412842,-0.6713866591453552,-2.0751953125
251722,-0.0001220703125,-0.61669921875,0.7716064453125,-6.896972179412842,-0.6713866591453552,-2.0751953125
251738,-0.0042724609375,-0.602783203125,0.7501220703125,-6.774901866912842,-0.1220703050494194,-1.8310545682907104
251755,-0.004150390625,-0.608154296875,0.76953125,-6.713866710662842,0.2441406100988388,-1.6479490995407104
251776,-0.001708984375,-0.60595703125,0.78173828125,-6.103515148162842,0.4882812201976776,-1.5258787870407104
251792,-0.0015869140625,-0.589599609375,0.77587890625,-5.310058116912842,0.7324218153953552,-1.3427733182907104
251813,0.0,-0.592041015625,0.79052734375,-3.540038824081421,1.4648436307907104,-0.7324218153953552
251831,0.00048828125,-0.59716796875,0.795166015625,-2.929687261581421,1.4648436307907104,-0.6103515625
251848,0.0010986328125,-0.59423828125,0.7900390625,-1.6479490995407104,1.7089842557907104,-0.4882812201976776
251864,0.0032958984375,-0.5916748046875,0.7958984375,-0.4882812201976776,2.01416015625,-0.1220703050494194
251880,0.0035400390625,-0.5927734375,0.8004150390625,0.0610351525247097,2.01416015625,-0.0610351525247097
251900,0.00390625,-0.587158203125,0.790771484375,1.03759765625,2.13623046875,0.1831054538488388
251916,0.005126953125,-0.5975341796875,0.7979736328125,1.9531248807907104,2.38037109375,0.4882812201976776
251932,0.0054931640625,-0.6072998046875,0.8077392578125,2.807616949081421,2.25830078125,0.6713866591453552
251953,0.0057373046875,-0.609130859375,0.8084716796875,3.112792730331421,2.25830078125,0.7324218153953552
251969,0.005615234375,-0.614501953125,0.81640625,3.723144292831421,2.3193359375,0.8544921278953552
251986,0.005615234375,-0.6177978515625,0.82421875,3.967284917831421,2.25830078125,0.8544921278953552
252003,0.003662109375,-0.6072998046875,0.809814453125,4.21142578125,2.01416015625,0.8544921278953552
252019,0.0037841796875,-0.608642578125,0.8052978515625,4.2724609375,2.01416015625,1.15966796875
252036,0.0047607421875,-0.6192626953125,0.8094482421875,4.08935546875,2.0751953125,1.15966796875
252074,0.003173828125,-0.6195068359375,0.8154296875,3.845214605331421,1.7089842557907104,1.2817381620407104
252090,0.0013427734375,-0.6192626953125,0.812744140625,3.662109136581421,1.4038084745407104,1.220703125
252107,-0.0010986328125,-0.61669921875,0.8050537109375,3.479003667831421,1.3427733182907104,1.220703125
252124,-0.0018310546875,-0.62353515625,0.8111572265625,3.051757574081421,1.220703125,1.220703125
252140,-0.0023193359375,-0.626220703125,0.813720703125,2.50244140625,0.9155272841453552,1.15966796875
252157,-0.0032958984375,-0.631103515625,0.8131103515625,2.01416015625,0.4882812201976776,1.0986328125
252188,-0.004638671875,-0.62451171875,0.80126953125,1.220703125,0.1220703050494194,0.7934569716453552
252209,-0.0064697265625,-0.6138916015625,0.785888671875,0.6713866591453552,0.1831054538488388,0.9765624403953552
252225,-0.00537109375,-0.6300048828125,0.81396484375,0.4882812201976776,0.30517578125,1.0986328125
252242,-0.005126953125,-0.6343994140625,0.8221435546875,0.3662109076976776,-0.1220703050494194,0.9155272841453552
252308,-0.0048828125,-0.619140625,0.788818359375,1.8920897245407104,-0.1831054538488388,1.15966796875
252325,-0.0009765625,-0.6190185546875,0.7899169921875,2.746581792831421,-0.0610351525247097,1.15966796875
252341,0.0009765625,-0.6156005859375,0.7886962890625,3.173827886581421,-0.1220703050494194,1.220703125
252377,0.0047607421875,-0.605712890625,0.7705078125,4.8828125,0.1220703050494194,1.4648436307907104
252393,0.00732421875,-0.6026611328125,0.771484375,5.371093273162842,0.0610351525247097,1.4648436307907104
252410,0.008544921875,-0.603759765625,0.7716064453125,6.347655773162842,-0.0610351525247097,1.5258787870407104
252431,0.01171875,-0.6134033203125,0.7769775390625,7.202147960662842,-0.2441406100988388,1.4648436307907104
252447,0.0108642578125,-0.6243896484375,0.7777099609375,7.568358898162842,-0.3662109076976776,1.4648436307907104
252464,0.011962890625,-0.62939453125,0.7816162109375,7.995604991912842,-0.54931640625,1.2817381620407104
252481,0.0120849609375,-0.6336669921875,0.78271484375,8.23974609375,-0.9155272841453552,1.03759765625
252497,0.0093994140625,-0.623779296875,0.7640380859375,8.1787109375,-1.15966796875,0.8544921278953552
252514,0.00634765625,-0.6217041015625,0.742431640625,7.446288585662842,-1.4038084745407104,0.8544921278953552
252547,0.0069580078125,-0.63330078125,0.74267578125,5.615233898162842,-1.4648436307907104,0.7934569716453552
252563,0.0067138671875,-0.6373291015625,0.754150390625,5.0048828125,-1.6479490995407104,0.7324218153953552
252579,0.00390625,-0.632080078125,0.7442626953125,3.784179449081421,-2.01416015625,0.4882812201976776
252611,-0.00146484375,-0.6199951171875,0.7177734375,1.5869139432907104,-2.197265625,0.2441406100988388
252627,-0.003173828125,-0.6114501953125,0.6968994140625,-0.1220703050494194,-1.9531248807907104,0.4882812201976776
252643,-0.0018310546875,-0.60205078125,0.683837890625,-1.0986328125,-1.8310545682907104,0.54931640625
252659,-0.0018310546875,-0.6029052734375,0.6837158203125,-3.051757574081421,-1.5869139432907104,0.7324218153953552
252679,-0.001708984375,-0.594970703125,0.6802978515625,-5.0048828125,-1.15966796875,1.03759765625
252695,-0.00048828125,-0.609130859375,0.71337890625,-6.652831554412842,-0.9155272841453552,1.220703125
252711,-0.00146484375,-0.6060791015625,0.7197265625,-7.446288585662842,-0.9765624403953552,1.15966796875
252727,-0.001953125,-0.58740234375,0.712646484375,-8.85009765625,-0.9155272841453552,1.3427733182907104
252790,-0.001220703125,-0.6009521484375,0.7412109375,-12.207030296325684,0.0,2.3193359375
252812,0.003173828125,-0.591552734375,0.7503662109375,-12.451170921325684,-0.3662109076976776,2.01416015625
252828,0.004150390625,-0.560546875,0.7181396484375,-12.573241233825684,-0.3662109076976776,2.0751953125
252845,0.0081787109375,-0.563232421875,0.7216796875,-12.939452171325684,-0.1831054538488388,2.50244140625
252862,0.009521484375,-0.5693359375,0.7279052734375,-13.061522483825684,-0.1220703050494194,2.624511480331421
252878,0.01171875,-0.57763671875,0.7535400390625,-13.000487327575684,-0.1220703050494194,2.624511480331421
252912,0.0074462890625,-0.5626220703125,0.7569580078125,-11.718749046325684,-0.7324218153953552,2.25830078125
252928,0.0048828125,-0.5416259765625,0.7298583984375,-10.864256858825684,-0.54931640625,2.50244140625
252944,0.009521484375,-0.566162109375,0.761474609375,-10.437010765075684,-0.30517578125,2.746581792831421
252960,0.0115966796875,-0.583740234375,0.784423828125,-9.46044921875,-0.30517578125,2.624511480331421
252980,0.0150146484375,-0.5916748046875,0.810302734375,-8.11767578125,-0.8544921278953552,2.0751953125
252996,0.01025390625,-0.5596923828125,0.7843017578125,-6.469726085662842,-1.2817381620407104,1.7089842557907104
253012,0.007568359375,-0.5382080078125,0.7677001953125,-5.798339366912842,-1.4038084745407104,1.7089842557907104
253028,0.004150390625,-0.5089111328125,0.724365234375,-4.69970703125,-0.9765624403953552,2.197265625
253044,0.0035400390625,-0.5054931640625,0.71923828125,-4.33349609375,-0.6713866591453552,2.44140625
253060,0.0015869140625,-0.515869140625,0.7288818359375,-3.479003667831421,-0.2441406100988388,2.685546636581421
253092,0.002197265625,-0.5330810546875,0.7657470703125,-1.5258787870407104,0.4882812201976776,3.051757574081421
253113,0.00537109375,-0.5528564453125,0.8021240234375,0.2441406100988388,0.6713866591453552,3.234863042831421
253129,0.007568359375,-0.5703125,0.8160400390625,1.220703125,0.6713866591453552,3.234863042831421
253146,0.0103759765625,-0.572021484375,0.82080078125,3.051757574081421,0.6713866591453552,2.990722417831421
253163,0.01025390625,-0.5577392578125,0.802001953125,4.57763671875,0.4882812201976776,2.807616949081421
253179,0.0111083984375,-0.530517578125,0.7705078125,5.187987804412842,0.54931640625,2.807616949081421
253217,0.0115966796875,-0.550048828125,0.7530517578125,6.225585460662842,2.0751953125,3.662109136581421
253233,0.016845703125,-0.578857421875,0.7889404296875,6.408690929412842,2.3193359375,3.601073980331421
253249,0.0296630859375,-0.6265869140625,0.87060546875,7.507323741912842,2.197265625,3.234863042831421
253265,0.0399169921875,-0.66064453125,0.9434814453125,8.36181640625,1.7700194120407104,2.807616949081421
253282,0.0406494140625,-0.654052734375,0.940673828125,10.375975608825684,0.3662109076976776,1.6479490995407104
253303,0.0343017578125,-0.6317138671875,0.89453125,11.840819358825684,-0.4882812201976776,0.9765624403953552
253319,0.0252685546875,-0.6138916015625,0.8475341796875,12.145995140075684,-0.6713866591453552,0.7324218153953552
253336,0.0220947265625,-0.6114501953125,0.8282470703125,12.329100608825684,-0.8544921278953552,0.4272460639476776
253353,0.0194091796875,-0.609619140625,0.8067626953125,11.840819358825684,-0.7324218153953552,0.1220703050494194
253386,0.0267333984375,-0.6531982421875,0.8675537109375,11.108397483825684,-0.6103515625,-0.2441406100988388
253403,0.0281982421875,-0.656494140625,0.88134765625,10.925292015075684,-1.15966796875,-0.9155272841453552
253419,0.02685546875,-0.65625,0.888427734375,11.047362327575684,-1.4038084745407104,-1.15966796875
253451,0.0191650390625,-0.6593017578125,0.88427734375,10.681151390075684,-1.7089842557907104,-1.4038084745407104
253467,0.0157470703125,-0.6680908203125,0.8819580078125,10.070799827575684,-2.197265625,-2.0751953125
253483,0.012939453125,-0.648681640625,0.8544921875,9.58251953125,-2.25830078125,-2.197265625
253499,0.0107421875,-0.6251220703125,0.814697265625,8.48388671875,-1.6479490995407104,-1.7700194120407104
253520,0.0113525390625,-0.642822265625,0.832275390625,7.324218273162842,-1.2817381620407104,-1.5258787870407104
253541,0.0113525390625,-0.668212890625,0.8524169921875,6.835937023162842,-1.2817381620407104,-1.5258787870407104
253557,0.007080078125,-0.6651611328125,0.83642578125,6.042479991912842,-1.0986328125,-1.5258787870407104
253574,0.00341796875,-0.66455078125,0.8321533203125,5.371093273162842,-0.54931640625,-1.4038084745407104
253591,-0.0062255859375,-0.6505126953125,0.8123779296875,5.065917491912842,-0.3662109076976776,-1.4038084745407104
253624,-0.0018310546875,-0.6588134765625,0.8201904296875,3.417968511581421,1.5258787870407104,-0.1831054538488388
253641,0.0079345703125,-0.6981201171875,0.871826171875,2.563476324081421,1.5869139432907104,-0.1831054538488388
253657,0.010009765625,-0.699462890625,0.862060546875,2.25830078125,1.4038084745407104,-0.30517578125
253687,0.0032958984375,-0.6629638671875,0.806884765625,1.3427733182907104,1.5869139432907104,-0.3662109076976776
253709,0.0057373046875,-0.6712646484375,0.8148193359375,0.4882812201976776,2.38037109375,0.30517578125
253725,0.0159912109375,-0.720458984375,0.873046875,-0.4272460639476776,2.3193359375,0.1831054538488388
253742,0.0152587890625,-0.719482421875,0.8687744140625,-0.7324218153953552,2.01416015625,-0.0610351525247097
253759,0.011962890625,-0.71826171875,0.8603515625,-1.15966796875,1.7089842557907104,-0.2441406100988388
253775,0.01025390625,-0.714599609375,0.8511962890625,-1.6479490995407104,1.5258787870407104,-0.3662109076976776
253807,0.0218505859375,-0.728515625,0.8939208984375,-2.685546636581421,1.15966796875,-0.7934569716453552
253829,0.0247802734375,-0.726318359375,0.893798828125,-3.356933355331421,0.4272460639476776,-1.220703125
253845,0.0216064453125,-0.721435546875,0.870849609375,-4.08935546875,0.0,-1.5258787870407104
253862,0.02099609375,-0.73291015625,0.87890625,-4.45556640625,-0.0610351525247097,-1.5869139432907104
253879,0.0242919921875,-0.7540283203125,0.8944091796875,-5.0048828125,-0.3662109076976776,-1.9531248807907104
253895,0.026611328125,-0.754638671875,0.907958984375,-5.371093273162842,-0.7934569716453552,-2.50244140625
253929,0.0181884765625,-0.6954345703125,0.8809814453125,-5.126952648162842,-1.7089842557907104,-3.051757574081421
253945,0.0145263671875,-0.6793212890625,0.8580322265625,-5.126952648162842,-1.7089842557907104,-3.051757574081421
253961,0.009765625,-0.6591796875,0.840087890625,-5.065917491912842,-1.15966796875,-2.624511480331421
253997,0.0081787109375,-0.6539306640625,0.8477783203125,-5.0048828125,-1.3427733182907104,-2.563476324081421
254013,0.0062255859375,-0.625732421875,0.816162109375,-4.57763671875,-0.9765624403953552,-2.0751953125
254029,0.0040283203125,-0.5997314453125,0.781005859375,-4.2724609375,-0.3662109076976776,-1.4648436307907104
254049,0.0057373046875,-0.610595703125,0.780517578125,-4.150390625,0.4272460639476776,-0.7324218153953552
254065,0.00732421875,-0.6201171875,0.7908935546875,-4.08935546875,0.7934569716453552,-0.4272460639476776
254081,0.0111083984375,-0.642578125,0.8275146484375,-3.906249761581421,1.03759765625,-0.3662109076976776
254101,0.0111083984375,-0.6251220703125,0.820556640625,-3.479003667831421,0.7934569716453552,-0.54931640625
254118,0.0106201171875,-0.60888671875,0.805419921875,-3.173827886581421,0.8544921278953552,-0.4272460639476776
254139,0.0086669921875,-0.583984375,0.7855224609375,-2.624511480331421,1.3427733182907104,0.2441406100988388
254155,0.01171875,-0.60693359375,0.820068359375,-2.0751953125,1.3427733182907104,0.4882812201976776
254176,0.0103759765625,-0.6201171875,0.8226318359375,-1.3427733182907104,1.15966796875,0.4272460639476776
254193,0.009033203125,-0.6192626953125,0.8150634765625,-0.9765624403953552,1.03759765625,0.3662109076976776
254209,0.0089111328125,-0.61572265625,0.8077392578125,-0.2441406100988388,1.15966796875,0.4272460639476776
254226,0.009033203125,-0.62158203125,0.8199462890625,0.6103515625,1.3427733182907104,0.6103515625
254243,0.0074462890625,-0.63427734375,0.8363037109375,1.4648436307907104,1.2817381620407104,0.4272460639476776
254259,0.0068359375,-0.63330078125,0.8497314453125,1.8920897245407104,1.03759765625,0.30517578125
254290,0.0013427734375,-0.607666015625,0.8009033203125,2.990722417831421,0.7324218153953552,0.3662109076976776
254312,0.0015869140625,-0.6243896484375,0.81494140625,3.112792730331421,0.8544921278953552,0.54931640625
254328,0.0045166015625,-0.6719970703125,0.8582763671875,3.295898199081421,0.4882812201976776,0.0610351525247097
254345,0.004638671875,-0.6669921875,0.866455078125,3.906249761581421,-0.2441406100988388,-0.4882812201976776
254362,0.0052490234375,-0.655517578125,0.8687744140625,4.2724609375,-0.3662109076976776,-0.6103515625
254378,0.005859375,-0.649169921875,0.8648681640625,4.94384765625,-0.8544921278953552,-0.8544921278953552
254412,0.0040283203125,-0.641845703125,0.828125,5.126952648162842,-1.5869139432907104,-1.03759765625
254428,-0.0015869140625,-0.6351318359375,0.806884765625,4.39453125,-1.2817381620407104,-0.9155272841453552
254444,-0.011962890625,-0.5797119140625,0.7315673828125,0.1220703050494194,1.03759765625,0.7934569716453552
254460,0.0078125,-0.571044921875,0.7545166015625,-1.7089842557907104,2.38037109375,1.8920897245407104
254480,0.0164794921875,-0.62255859375,0.8079833984375,-1.3427733182907104,2.807616949081421,2.50244140625
254501,0.0162353515625,-0.631591796875,0.8114013671875,-2.25830078125,1.9531248807907104,1.9531248807907104
254517,0.0186767578125,-0.6202392578125,0.8111572265625,-1.6479490995407104,1.5869139432907104,1.7089842557907104
254534,0.0234375,-0.622802734375,0.821044921875,-1.5869139432907104,1.4038084745407104,1.5258787870407104
254551,0.0233154296875,-0.618896484375,0.80908203125,-1.220703125,0.7934569716453552,1.2817381620407104
254584,0.0008544921875,-0.6005859375,0.765380859375,-0.8544921278953552,1.220703125,1.5869139432907104
254601,-0.002197265625,-0.58740234375,0.7598876953125,-1.3427733182907104,2.25830078125,2.38037109375
254617,0.004638671875,-0.589599609375,0.7647705078125,-1.4038084745407104,2.50244140625,2.563476324081421
254647,0.028076171875,-0.641357421875,0.8482666015625,-1.03759765625,2.3193359375,2.44140625
254669,0.0692138671875,-0.9931640625,1.2744140625,-1.5869139432907104,-1.2817381620407104,-0.3662109076976776
254685,0.021240234375,-0.5970458984375,0.761474609375,-1.8310545682907104,-3.112792730331421,-1.8310545682907104
254702,-0.0174560546875,-0.4229736328125,0.5599365234375,-2.0751953125,-1.0986328125,-0.4882812201976776
254719,-0.005615234375,-0.4913330078125,0.6556396484375,-1.7089842557907104,1.4038084745407104,1.5869139432907104
254735,0.0338134765625,-0.744140625,0.9837646484375,-1.5869139432907104,1.4648436307907104,1.7089842557907104
254767,0.023681640625,-0.5687255859375,0.7427978515625,-1.7089842557907104,-0.8544921278953552,-0.0610351525247097
254789,0.00830078125,-0.5413818359375,0.7178955078125,-1.8310545682907104,0.3662109076976776,0.7934569716453552
254805,0.0101318359375,-0.6502685546875,0.8603515625,-1.8310545682907104,0.30517578125,0.7324218153953552
254822,0.0174560546875,-0.6475830078125,0.857177734375,-1.4648436307907104,-0.7324218153953552,-0.1220703050494194
254839,0.0189208984375,-0.5968017578125,0.79248046875,-1.4038084745407104,-0.8544921278953552,-0.1831054538488388
254855,0.0224609375,-0.58984375,0.7877197265625,-1.4038084745407104,-0.4272460639476776,0.1220703050494194
254889,0.0159912109375,-0.6246337890625,0.830078125,-1.5869139432907104,-0.6103515625,0.1220703050494194
254905,0.009765625,-0.5999755859375,0.795654296875,-1.5258787870407104,-0.3662109076976776,0.1831054538488388
254921,0.0135498046875,-0.620849609375,0.822509765625,-1.5869139432907104,-0.2441406100988388,0.1831054538488388
254957,0.0220947265625,-0.60205078125,0.808349609375,-1.7700194120407104,-0.30517578125,0.30517578125
254973,0.0184326171875,-0.613037109375,0.82373046875,-1.8310545682907104,-0.4272460639476776,0.30517578125
254989,0.01513671875,-0.6131591796875,0.8226318359375,-1.8920897245407104,-0.4272460639476776,0.30517578125
255005,0.012939453125,-0.6103515625,0.810791015625,-2.13623046875,-0.3662109076976776,0.30517578125
255022,0.015380859375,-0.60986328125,0.814208984375,-2.25830078125,-0.30517578125,0.2441406100988388
255043,0.016845703125,-0.610107421875,0.820556640625,-2.197265625,-0.3662109076976776,0.1831054538488388
255059,0.0181884765625,-0.601806640625,0.8240966796875,-1.9531248807907104,-0.3662109076976776,0.1831054538488388
255076,0.0174560546875,-0.5975341796875,0.81884765625,-1.7700194120407104,-0.3662109076976776,0.2441406100988388
255093,0.017578125,-0.605712890625,0.822265625,-1.4648436307907104,-0.4272460639476776,0.30517578125
255126,0.015869140625,-0.603271484375,0.8184814453125,-1.5869139432907104,-0.1220703050494194,0.3662109076976776
255143,0.0152587890625,-0.6048583984375,0.8184814453125,-1.6479490995407104,-0.0610351525247097,0.3662109076976776
255159,0.0155029296875,-0.60595703125,0.8233642578125,-1.6479490995407104,-0.1220703050494194,0.3662109076976776
255191,0.017333984375,-0.5982666015625,0.823974609375,-1.4648436307907104,-0.1831054538488388,0.3662109076976776
255207,0.017578125,-0.600341796875,0.8289794921875,-1.220703125,-0.2441406100988388,0.2441406100988388
255223,0.016357421875,-0.5958251953125,0.821533203125,-0.9155272841453552,-0.30517578125,0.30517578125
255239,0.0147705078125,-0.597900390625,0.8184814453125,-0.8544921278953552,-0.2441406100988388,0.30517578125
255264,0.0159912109375,-0.6036376953125,0.8238525390625,-0.8544921278953552,-0.1220703050494194,0.30517578125
255280,0.01806640625,-0.6002197265625,0.8240966796875,-0.7934569716453552,-0.1831054538488388,0.30517578125
255297,0.0174560546875,-0.59619140625,0.825927734375,-0.7934569716453552,-0.1220703050494194,0.30517578125
255314,0.0164794921875,-0.596435546875,0.82568359375,-0.6713866591453552,-0.1831054538488388,0.3662109076976776
255335,0.0150146484375,-0.5963134765625,0.82421875,-0.4272460639476776,-0.1831054538488388,0.30517578125
255368,0.015380859375,-0.6004638671875,0.8243408203125,-0.30517578125,-0.1831054538488388,0.30517578125
255384,0.017822265625,-0.59765625,0.826171875,-0.30517578125,-0.1220703050494194,0.4272460639476776
255400,0.0181884765625,-0.5963134765625,0.82666015625,-0.2441406100988388,-0.0610351525247097,0.4272460639476776
255433,0.0162353515625,-0.5972900390625,0.826904296875,-0.1831054538488388,-0.1220703050494194,0.3662109076976776
255454,0.015380859375,-0.598388671875,0.82373046875,-0.1220703050494194,-0.1831054538488388,0.2441406100988388
255470,0.0157470703125,-0.59716796875,0.8260498046875,-0.0610351525247097,-0.1831054538488388,0.2441406100988388
255485,0.01806640625,-0.5950927734375,0.8267822265625,0.0610351525247097,-0.2441406100988388,0.2441406100988388
255502,0.01806640625,-0.5948486328125,0.828369140625,0.1831054538488388,-0.2441406100988388,0.1831054538488388
255518,0.0162353515625,-0.59423828125,0.829345703125,0.30517578125,-0.2441406100988388,0.1831054538488388
255551,0.0166015625,-0.5950927734375,0.823486328125,0.6713866591453552,-0.2441406100988388,0.2441406100988388
255568,0.0185546875,-0.5980224609375,0.8277587890625,0.7934569716453552,-0.2441406100988388,0.1831054538488388
255584,0.017333984375,-0.5950927734375,0.825439453125,0.9765624403953552,-0.2441406100988388,0.1220703050494194
255600,0.016845703125,-0.5955810546875,0.82763671875,1.03759765625,-0.30517578125,0.1220703050494194
255624,0.0150146484375,-0.59521484375,0.8258056640625,1.15966796875,-0.30517578125,0.1831054538488388
255640,0.015869140625,-0.5977783203125,0.823974609375,1.15966796875,-0.2441406100988388,0.30517578125
255657,0.0174560546875,-0.6021728515625,0.8262939453125,1.15966796875,-0.1831054538488388,0.30517578125
255674,0.0167236328125,-0.6011962890625,0.822998046875,1.0986328125,-0.1831054538488388,0.30517578125
255691,0.01708984375,-0.60009765625,0.825927734375,0.8544921278953552,-0.1220703050494194,0.2441406100988388
255723,0.017578125,-0.595703125,0.8275146484375,0.9155272841453552,-0.1831054538488388,0.30517578125
255740,0.0179443359375,-0.5985107421875,0.8232421875,0.8544921278953552,-0.30517578125,0.1831054538488388
255756,0.0162353515625,-0.6007080078125,0.8187255859375,0.7324218153953552,-0.2441406100988388,0.2441406100988388
255788,0.0167236328125,-0.599609375,0.8271484375,0.4882812201976776,-0.1831054538488388,0.30517578125
255809,0.01611328125,-0.593505859375,0.8251953125,0.4272460639476776,-0.1831054538488388,0.30517578125
255826,0.0172119140625,-0.596923828125,0.8287353515625,0.4882812201976776,-0.1220703050494194,0.2441406100988388
255840,0.0174560546875,-0.596923828125,0.8250732421875,0.6103515625,-0.2441406100988388,0.30517578125
255858,0.0174560546875,-0.601806640625,0.8226318359375,0.6103515625,-0.2441406100988388,0.30517578125
255875,0.015380859375,-0.6021728515625,0.822265625,0.4882812201976776,-0.1831054538488388,0.30517578125
255908,0.016845703125,-0.591796875,0.82177734375,0.3662109076976776,0.1220703050494194,0.4882812201976776
255930,0.01611328125,-0.5885009765625,0.822265625,0.4272460639476776,0.3662109076976776,0.7324218153953552
255946,0.0145263671875,-0.59130859375,0.8316650390625,0.6713866591453552,1.3427733182907104,1.4038084745407104
255959,0.0152587890625,-0.6014404296875,0.8525390625,1.4648436307907104,2.25830078125,2.0751953125
255978,0.0252685546875,-0.6375732421875,0.9190673828125,2.0751953125,2.563476324081421,2.197265625
255994,0.0380859375,-0.7052001953125,1.036376953125,3.601073980331421,2.38037109375,1.8920897245407104
256027,0.0579833984375,-0.8941650390625,1.3028564453125,9.94873046875,-3.845214605331421,-2.0751953125
256049,0.0506591796875,-0.87939453125,1.26904296875,11.352538108825684,-5.187987804412842,-2.807616949081421
256065,0.0284423828125,-0.81884765625,1.1373291015625,13.916014671325684,-6.469726085662842,-3.906249761581421
256082,0.015869140625,-0.7637939453125,1.051025390625,14.709471702575684,-5.920409679412842,-3.601073980331421
256099,0.022216796875,-0.8077392578125,1.125,15.136717796325684,-5.676269054412842,-3.417968511581421
256115,0.0220947265625,-0.8482666015625,1.2176513671875,16.29638671875,-6.164550304412842,-3.662109136581421
256149,0.0069580078125,-0.8779296875,1.2222900390625,20.080564498901367,-8.9111328125,-4.57763671875
256165,-0.01220703125,-0.8851318359375,1.1380615234375,20.507810592651367,-9.21630859375,-4.8828125
256181,-0.0177001953125,-0.886474609375,1.103271484375,21.179197311401367,-8.97216796875,-5.0048828125
256217,-0.0263671875,-0.8514404296875,1.0555419921875,20.690916061401367,-7.568358898162842,-4.5166015625
256233,-0.0240478515625,-0.8594970703125,1.083740234375,20.874021530151367,-7.202147960662842,-4.21142578125
256249,-0.021240234375,-0.8990478515625,1.1363525390625,21.240232467651367,-7.934569835662842,-4.39453125
256297,-0.0491943359375,-0.788330078125,0.89306640625,17.578125,-7.934569835662842,-4.39453125
256339,-0.04345703125,-0.6964111328125,0.7880859375,12.634276390075684,-5.371093273162842,-2.50244140625
256356,-0.040771484375,-0.698486328125,0.8018798828125,9.765625,-3.967284917831421,-1.220703125
256389,-0.0474853515625,-0.65576171875,0.7440185546875,5.737304210662842,-3.173827886581421,0.0
256406,-0.0511474609375,-0.6097412109375,0.6595458984375,2.25830078125,-2.13623046875,1.03759765625
256422,-0.04931640625,-0.588134765625,0.63037109375,-1.5869139432907104,-0.7324218153953552,2.13623046875
256439,-0.04541015625,-0.52587890625,0.560546875,-5.737304210662842,0.8544921278953552,3.479003667831421
256493,-0.0137939453125,-0.5123291015625,0.6158447265625,-13.183592796325684,3.234863042831421,5.798339366912842
256584,0.0064697265625,-0.45947265625,0.585693359375,-18.5546875,3.417968511581421,5.920409679412842
256601,0.0098876953125,-0.438720703125,0.56884765625,-18.73779296875,3.173827886581421,5.737304210662842
256618,0.0101318359375,-0.420166015625,0.529541015625,-19.22607421875,2.624511480331421,5.249022960662842
256638,0.007080078125,-0.37890625,0.4791259765625,-19.59228515625,2.0751953125,4.69970703125
256654,0.0069580078125,-0.36279296875,0.463134765625,-19.71435546875,2.0751953125,4.33349609375
256671,0.00927734375,-0.344482421875,0.467529296875,-19.6533203125,2.0751953125,4.33349609375
256687,0.012451171875,-0.3607177734375,0.5010986328125,-19.4091796875,1.8920897245407104,4.2724609375
256703,0.0125732421875,-0.365966796875,0.5089111328125,-18.798828125,1.5258787870407104,4.0283203125
256719,0.0155029296875,-0.3994140625,0.547607421875,-17.88330078125,0.9765624403953552,3.601073980331421
256752,0.0146484375,-0.398193359375,0.5556640625,-16.05224609375,0.4882812201976776,2.990722417831421
256773,0.01123046875,-0.40283203125,0.5609130859375,-14.831542015075684,0.7934569716453552,3.417968511581421
256789,0.0050048828125,-0.4566650390625,0.6173095703125,-14.221190452575684,0.9765624403953552,3.601073980331421
256806,0.0023193359375,-0.47998046875,0.643310546875,-12.939452171325684,1.03759765625,3.417968511581421
256827,0.002685546875,-0.5106201171875,0.6885986328125,-11.230467796325684,1.15966796875,3.173827886581421
256843,0.0030517578125,-0.5074462890625,0.6826171875,-9.27734375,1.0986328125,2.990722417831421
256864,0.0067138671875,-0.50439453125,0.6798095703125,-7.507323741912842,2.01416015625,3.417968511581421
256881,0.00927734375,-0.529541015625,0.7142333984375,-5.676269054412842,2.807616949081421,3.601073980331421
256901,0.0084228515625,-0.5438232421875,0.74365234375,-3.906249761581421,3.112792730331421,3.601073980331421
256937,0.0118408203125,-0.554931640625,0.74853515625,-1.7089842557907104,3.540038824081421,3.540038824081421
256953,0.0224609375,-0.5877685546875,0.802978515625,-0.30517578125,4.150390625,3.723144292831421
256969,0.0338134765625,-0.626953125,0.8702392578125,1.4648436307907104,3.479003667831421,3.234863042831421
256985,0.03564453125,-0.640380859375,0.88037109375,2.3193359375,3.112792730331421,2.868652105331421
257001,0.038330078125,-0.65625,0.8997802734375,3.784179449081421,2.25830078125,2.01416015625
257049,0.03125,-0.645263671875,0.8592529296875,5.493163585662842,0.6103515625,0.54931640625
257065,0.03076171875,-0.6558837890625,0.8685302734375,5.737304210662842,0.3662109076976776,0.1831054538488388
257081,0.0286865234375,-0.6741943359375,0.882568359375,6.408690929412842,-0.4272460639476776,-0.6103515625
257117,0.02197265625,-0.65625,0.86376953125,7.324218273162842,-1.7700194120407104,-1.8310545682907104
257133,0.01220703125,-0.6221923828125,0.8189697265625,7.629394054412842,-2.0751953125,-2.13623046875
257149,0.0040283203125,-0.616455078125,0.7900390625,7.690429210662842,-2.01416015625,-2.13623046875
257165,0.003173828125,-0.6259765625,0.7930908203125,7.507323741912842,-2.0751953125,-2.197265625
257182,0.00048828125,-0.621826171875,0.77197265625,7.202147960662842,-2.0751953125,-2.563476324081421
257203,0.0008544921875,-0.614013671875,0.764892578125,7.202147960662842,-1.8310545682907104,-2.624511480331421
257219,0.0037841796875,-0.611083984375,0.7861328125,7.202147960662842,-1.5869139432907104,-2.563476324081421
257286,0.0,-0.61328125,0.7978515625,7.751464366912842,-1.4648436307907104,-2.50244140625
257302,-0.001708984375,-0.615966796875,0.80029296875,8.056640625,-1.3427733182907104,-2.50244140625
257318,-0.0029296875,-0.6119384765625,0.7969970703125,8.1787109375,-1.2817381620407104,-2.563476324081421
257352,-0.006591796875,-0.6004638671875,0.787353515625,8.60595703125,-0.3662109076976776,-2.01416015625
257373,-0.005126953125,-0.6103515625,0.802001953125,8.6669921875,-0.30517578125,-1.9531248807907104
257389,-0.0025634765625,-0.621337890625,0.809814453125,9.033203125,-0.30517578125,-2.0751953125
257404,0.001220703125,-0.6246337890625,0.80615234375,9.1552734375,-0.2441406100988388,-2.13623046875
257421,0.004638671875,-0.61767578125,0.801025390625,9.1552734375,-0.1831054538488388,-2.197265625
257438,0.0052490234375,-0.6171875,0.80029296875,8.97216796875,-0.0610351525247097,-2.13623046875
257471,0.003662109375,-0.626220703125,0.7911376953125,8.36181640625,0.0,-2.25830078125
257519,0.0045166015625,-0.629150390625,0.803466796875,7.934569835662842,0.0,-2.38037109375
257541,0.0029296875,-0.62451171875,0.788818359375,7.751464366912842,-0.1220703050494194,-2.38037109375
257558,0.0001220703125,-0.6253662109375,0.7830810546875,7.690429210662842,-0.0610351525247097,-2.38037109375
257595,-0.002197265625,-0.64892578125,0.8050537109375,7.202147960662842,0.2441406100988388,-2.38037109375
257612,-0.0018310546875,-0.64794921875,0.80859375,6.530761241912842,0.0,-2.44140625
257628,-0.002685546875,-0.64453125,0.80029296875,6.286620616912842,0.0,-2.38037109375
257642,-0.0029296875,-0.6407470703125,0.792724609375,5.554198741912842,0.30517578125,-2.197265625
257660,-0.0030517578125,-0.64208984375,0.78857421875,5.065917491912842,0.30517578125,-2.13623046875
257681,-0.0047607421875,-0.631103515625,0.7686767578125,4.0283203125,0.4272460639476776,-2.01416015625
257697,-0.006103515625,-0.6229248046875,0.75732421875,2.868652105331421,0.8544921278953552,-1.5869139432907104
257764,-0.0025634765625,-0.6287841796875,0.7669677734375,-0.6103515625,2.0751953125,-0.4272460639476776
257781,0.001220703125,-0.6380615234375,0.788330078125,-0.9155272841453552,2.13623046875,-0.30517578125
257797,0.007080078125,-0.6610107421875,0.8240966796875,-1.4648436307907104,1.7700194120407104,-0.4272460639476776
257828,0.008056640625,-0.661865234375,0.8292236328125,-1.7700194120407104,1.3427733182907104,-0.54931640625
257849,0.0074462890625,-0.6568603515625,0.826416015625,-1.8920897245407104,1.220703125,-0.4882812201976776
257865,0.0086669921875,-0.662109375,0.8294677734375,-1.9531248807907104,1.03759765625,-0.4882812201976776
257886,0.006103515625,-0.651611328125,0.814697265625,-2.197265625,0.7324218153953552,-0.6713866591453552
257903,0.00341796875,-0.645263671875,0.809326171875,-2.38037109375,0.54931640625,-0.6103515625
257919,0.0028076171875,-0.6390380859375,0.8040771484375,-2.746581792831421,0.30517578125,-0.6103515625
257940,0.0032958984375,-0.628173828125,0.7977294921875,-2.990722417831421,0.1220703050494194,-0.54931640625
258005,0.0025634765625,-0.6072998046875,0.791259765625,-3.601073980331421,0.1220703050494194,-0.0610351525247097
258022,0.0028076171875,-0.6143798828125,0.811279296875,-3.417968511581421,0.1220703050494194,0.0
258043,0.001953125,-0.6148681640625,0.817626953125,-2.990722417831421,-0.2441406100988388,0.0
258058,0.0008544921875,-0.6102294921875,0.8128662109375,-2.3193359375,-0.3662109076976776,0.0610351525247097
258077,0.001220703125,-0.6151123046875,0.8167724609375,-2.01416015625,-0.3662109076976776,0.1220703050494194
258094,0.0010986328125,-0.6273193359375,0.8348388671875,-1.3427733182907104,-0.3662109076976776,0.30517578125
258123,0.00244140625,-0.6224365234375,0.825439453125,0.30517578125,-0.9765624403953552,0.1220703050494194
258188,-0.0020751953125,-0.611572265625,0.79931640625,2.44140625,-1.0986328125,0.1220703050494194
258210,-0.00146484375,-0.6158447265625,0.796875,3.112792730331421,-1.15966796875,0.1831054538488388
258226,0.0001220703125,-0.611083984375,0.7901611328125,3.417968511581421,-1.220703125,0.1220703050494194
258243,0.00146484375,-0.613525390625,0.789306640625,3.967284917831421,-1.220703125,0.1220703050494194
258260,0.0010986328125,-0.61083984375,0.7791748046875,4.33349609375,-1.3427733182907104,0.1220703050494194
258276,0.0001220703125,-0.605224609375,0.76171875,4.45556640625,-1.4648436307907104,0.1220703050494194
258310,-0.0006103515625,-0.6097412109375,0.76025390625,4.638671875,-1.0986328125,0.2441406100988388
258358,-0.0013427734375,-0.612548828125,0.753173828125,4.7607421875,-1.03759765625,0.30517578125
258380,-0.000244140625,-0.6268310546875,0.7669677734375,4.638671875,-0.9765624403953552,0.30517578125
258397,0.0008544921875,-0.625244140625,0.761474609375,4.57763671875,-1.0986328125,0.2441406100988388
258434,-0.003662109375,-0.60791015625,0.726318359375,3.662109136581421,-0.7934569716453552,0.54931640625
258467,-0.0029296875,-0.6265869140625,0.747314453125,2.38037109375,-0.1831054538488388,0.9155272841453552
258500,-0.0042724609375,-0.6385498046875,0.7652587890625,1.5869139432907104,-0.2441406100988388,0.7324218153953552
258517,-0.0059814453125,-0.621337890625,0.7470703125,1.4038084745407104,-0.3662109076976776,0.6103515625
258550,-0.0068359375,-0.5870361328125,0.687744140625,-0.1831054538488388,0.0,1.0986328125
258567,-0.007080078125,-0.5966796875,0.6861572265625,-1.2817381620407104,0.4272460639476776,1.4038084745407104
258584,-0.0050048828125,-0.6080322265625,0.7100830078125,-1.7700194120407104,0.4882812201976776,1.4648436307907104
258600,-0.0030517578125,-0.6087646484375,0.7225341796875,-2.44140625,0.54931640625,1.4038084745407104
258620,-0.003662109375,-0.6029052734375,0.72705078125,-2.807616949081421,0.1831054538488388,1.2817381620407104
258636,-0.0054931640625,-0.5946044921875,0.7178955078125,-3.051757574081421,0.1220703050494194,1.220703125
258652,-0.007080078125,-0.5909423828125,0.71240234375,-3.173827886581421,0.1831054538488388,1.2817381620407104
258669,-0.0076904296875,-0.5994873046875,0.718017578125,-3.173827886581421,0.6103515625,1.5258787870407104
258690,-0.0025634765625,-0.6419677734375,0.7772216796875,-2.990722417831421,0.4882812201976776,1.3427733182907104
258706,-0.0018310546875,-0.6466064453125,0.800048828125,-2.746581792831421,0.0610351525247097,1.03759765625
258723,-0.00341796875,-0.6317138671875,0.7828369140625,-1.8920897245407104,-0.6713866591453552,0.54931640625
258740,-0.0029296875,-0.617431640625,0.7679443359375,-1.2817381620407104,-0.7324218153953552,0.6103515625
258756,0.0003662109375,-0.616943359375,0.766845703125,-1.03759765625,-0.7934569716453552,0.6103515625
258790,0.00048828125,-0.632568359375,0.78564453125,-0.1831054538488388,-1.2817381620407104,0.1831054538488388
258838,-0.00830078125,-0.5831298828125,0.710205078125,-0.1220703050494194,-2.3193359375,-0.3662109076976776
258860,-0.0089111328125,-0.56689453125,0.6815185546875,-0.8544921278953552,-1.8920897245407104,0.0
258877,-0.00634765625,-0.59375,0.7281494140625,-1.0986328125,-1.5258787870407104,0.1831054538488388
258913,-0.01171875,-0.6556396484375,0.83935546875,-0.4882812201976776,-2.563476324081421,-0.3662109076976776
258946,-0.0235595703125,-0.58056640625,0.7298583984375,0.54931640625,-3.234863042831421,-0.54931640625
258978,-0.0274658203125,-0.568603515625,0.6927490234375,0.54931640625,-2.38037109375,0.0
258995,-0.02490234375,-0.590087890625,0.7271728515625,0.8544921278953552,-1.4648436307907104,0.4272460639476776
259027,-0.004150390625,-0.638671875,0.82666015625,2.13623046875,-1.8920897245407104,0.2441406100988388
259044,-0.0028076171875,-0.6324462890625,0.8128662109375,3.295898199081421,-2.50244140625,-0.1220703050494194
259060,-0.006103515625,-0.6044921875,0.759033203125,3.784179449081421,-2.624511480331421,-0.1220703050494194
259097,-0.0111083984375,-0.55859375,0.6834716796875,3.112792730331421,-1.220703125,0.8544921278953552
259113,-0.0091552734375,-0.5615234375,0.6907958984375,2.868652105331421,-0.9765624403953552,1.03759765625
259129,-0.0052490234375,-0.5679931640625,0.70703125,2.3193359375,-0.6713866591453552,1.3427733182907104
259145,-0.005126953125,-0.56982421875,0.72021484375,2.25830078125,-0.4272460639476776,1.5258787870407104
259167,-0.004150390625,-0.583740234375,0.7432861328125,2.50244140625,0.1831054538488388,2.01416015625
259183,-0.003662109375,-0.6138916015625,0.78955078125,3.112792730331421,0.3662109076976776,2.25830078125
259200,-0.0013427734375,-0.64208984375,0.82275390625,3.601073980331421,0.2441406100988388,2.25830078125
259217,-0.0001220703125,-0.65185546875,0.8172607421875,4.5166015625,-0.0610351525247097,2.0751953125
259233,0.0001220703125,-0.6497802734375,0.8057861328125,5.310058116912842,-0.1831054538488388,1.7700194120407104
259267,-0.0006103515625,-0.59814453125,0.7252197265625,5.493163585662842,0.30517578125,1.8310545682907104
259283,-0.0015869140625,-0.59228515625,0.7200927734375,5.310058116912842,0.6103515625,2.0751953125
259299,-0.0035400390625,-0.6007080078125,0.7340087890625,4.94384765625,1.220703125,2.50244140625
259330,-0.004638671875,-0.669677734375,0.8328857421875,5.310058116912842,1.5258787870407104,2.746581792831421
259352,-0.0029296875,-0.694580078125,0.8572998046875,6.042479991912842,0.6713866591453552,2.13623046875
259368,-0.003173828125,-0.6611328125,0.806884765625,6.286620616912842,0.4272460639476776,1.8310545682907104
259385,-0.002685546875,-0.6407470703125,0.7861328125,6.469726085662842,0.6713866591453552,1.8310545682907104
259402,-0.001708984375,-0.643798828125,0.778076171875,6.469726085662842,0.9765624403953552,2.13623046875
259418,-0.0008544921875,-0.676513671875,0.8074951171875,6.408690929412842,1.4648436307907104,2.44140625
259454,-0.001953125,-0.6640625,0.8057861328125,6.591796398162842,1.2817381620407104,2.01416015625
259470,-0.0028076171875,-0.6533203125,0.7923583984375,6.652831554412842,1.6479490995407104,2.3193359375
259486,-0.003662109375,-0.66845703125,0.7889404296875,6.530761241912842,1.7089842557907104,2.38037109375
259502,-0.0028076171875,-0.6748046875,0.7901611328125,6.103515148162842,1.9531248807907104,2.38037109375
259519,-0.0018310546875,-0.6654052734375,0.78076171875,5.432128429412842,1.7700194120407104,2.0751953125
259540,-0.001953125,-0.6483154296875,0.7579345703125,5.065917491912842,1.8920897245407104,2.13623046875
259556,0.001953125,-0.6365966796875,0.752685546875,4.45556640625,2.44140625,2.50244140625
259577,0.00634765625,-0.6572265625,0.7762451171875,3.723144292831421,2.990722417831421,2.868652105331421
259594,0.0167236328125,-0.7159423828125,0.856201171875,3.601073980331421,2.50244140625,2.44140625
259610,0.0228271484375,-0.72705078125,0.8719482421875,3.662109136581421,2.0751953125,2.01416015625
259627,0.025390625,-0.7181396484375,0.86767578125,4.08935546875,1.220703125,1.2817381620407104
259643,0.0225830078125,-0.68896484375,0.823974609375,4.21142578125,1.03759765625,1.03759765625
259659,0.0194091796875,-0.687255859375,0.816162109375,3.967284917831421,1.0986328125,1.0986328125
259692,0.01611328125,-0.708740234375,0.8507080078125,3.479003667831421,0.7934569716453552,0.54931640625
259708,0.01708984375,-0.7042236328125,0.8614501953125,3.112792730331421,0.0610351525247097,0.1831054538488388
259724,0.0150146484375,-0.687744140625,0.836669921875,2.807616949081421,0.1220703050494194,0.30517578125
259740,0.013427734375,-0.71484375,0.8575439453125,2.25830078125,0.54931640625,0.54931640625
259761,0.00732421875,-0.7333984375,0.883544921875,1.8920897245407104,-0.1220703050494194,-0.1220703050494194
259782,0.0018310546875,-0.700439453125,0.8363037109375,1.8310545682907104,-0.3662109076976776,-0.3662109076976776
259798,0.0064697265625,-0.68408203125,0.8106689453125,1.5258787870407104,-0.1220703050494194,-0.2441406100988388
259815,0.009033203125,-0.684326171875,0.8037109375,0.54931640625,0.2441406100988388,-0.0610351525247097
259865,0.021484375,-0.7403564453125,0.8660888671875,-0.8544921278953552,0.1220703050494194,-0.30517578125
259881,0.0196533203125,-0.7283935546875,0.8297119140625,-1.2817381620407104,-0.6713866591453552,-0.8544921278953552
259898,0.0111083984375,-0.6781005859375,0.744384765625,-1.6479490995407104,-0.54931640625,-0.8544921278953552
259927,0.0107421875,-0.69287109375,0.7662353515625,-4.08935546875,0.8544921278953552,0.0610351525247097
259949,0.012451171875,-0.707275390625,0.788330078125,-5.187987804412842,1.15966796875,0.1831054538488388
259965,0.015869140625,-0.7205810546875,0.830810546875,-4.8828125,0.9155272841453552,-0.1831054538488388
259982,0.0186767578125,-0.7078857421875,0.8297119140625,-5.0048828125,0.6103515625,-0.3662109076976776
259999,0.016845703125,-0.69091796875,0.8114013671875,-5.554198741912842,0.4272460639476776,-0.2441406100988388
260015,0.0155029296875,-0.697998046875,0.8082275390625,-5.737304210662842,0.54931640625,0.0
260047,0.0172119140625,-0.691162109375,0.7960205078125,-6.286620616912842,0.2441406100988388,-0.30517578125
260069,0.014892578125,-0.673583984375,0.780517578125,-6.713866710662842,0.3662109076976776,-0.1831054538488388
260085,0.0079345703125,-0.657470703125,0.77783203125,-6.530761241912842,0.9765624403953552,0.2441406100988388
260102,0.005126953125,-0.678955078125,0.81689453125,-6.347655773162842,1.15966796875,0.3662109076976776
260168,0.0025634765625,-0.6297607421875,0.77978515625,-4.0283203125,0.2441406100988388,0.0
260185,0.002685546875,-0.6390380859375,0.784423828125,-3.662109136581421,0.7934569716453552,0.4272460639476776
260205,0.0062255859375,-0.673583984375,0.82958984375,-2.624511480331421,0.6713866591453552,0.2441406100988388
260225,0.0107421875,-0.6793212890625,0.8468017578125,-1.220703125,0.1220703050494194,-0.1831054538488388
260242,0.0118408203125,-0.6646728515625,0.839599609375,0.4272460639476776,-0.4882812201976776,-0.54931640625
260267,0.0072021484375,-0.6357421875,0.7913818359375,1.4648436307907104,-0.3662109076976776,-0.54931640625
260283,0.0067138671875,-0.63720703125,0.791259765625,1.9531248807907104,-0.2441406100988388,-0.4272460639476776
260337,0.0125732421875,-0.662841796875,0.8267822265625,4.82177734375,-0.8544921278953552,-0.7324218153953552
260358,0.01025390625,-0.6663818359375,0.820068359375,5.737304210662842,-0.7934569716453552,-0.54931640625
260375,0.009765625,-0.7032470703125,0.8558349609375,6.530761241912842,-0.8544921278953552,-0.7324218153953552
260391,0.011962890625,-0.718994140625,0.8681640625,7.324218273162842,-1.3427733182907104,-1.2817381620407104
260407,0.0130615234375,-0.7099609375,0.860107421875,7.690429210662842,-1.7700194120407104,-1.5869139432907104
260423,0.0069580078125,-0.662353515625,0.7972412109375,7.873534679412842,-2.01416015625,-1.7700194120407104
260439,0.0010986328125,-0.642822265625,0.769287109375,7.934569835662842,-1.6479490995407104,-1.4648436307907104
260471,-0.001708984375,-0.6834716796875,0.7877197265625,7.202147960662842,-1.3427733182907104,-1.0986328125
260519,0.00244140625,-0.6939697265625,0.8062744140625,5.798339366912842,-1.4648436307907104,-1.4648436307907104
260661,0.026123046875,-0.6771240234375,0.7725830078125,0.2441406100988388,2.868652105331421,3.417968511581421
260678,0.0296630859375,-0.6688232421875,0.7674560546875,-0.1220703050494194,2.624511480331421,3.112792730331421
260711,0.0650634765625,-0.952880859375,1.069091796875,-0.4882812201976776,-2.929687261581421,-1.8310545682907104
260727,0.0230712890625,-0.596435546875,0.6636962890625,-1.0986328125,-4.638671875,-3.234863042831421
260744,-0.0382080078125,-0.43701171875,0.4921875,-1.7700194120407104,-0.1220703050494194,0.2441406100988388
260760,-0.0364990234375,-0.4927978515625,0.5704345703125,-2.3193359375,1.7700194120407104,2.01416015625
260780,0.015380859375,-0.672119140625,0.7823486328125,-2.929687261581421,2.25830078125,2.50244140625
260796,0.0306396484375,-0.9051513671875,1.0584716796875,-3.356933355331421,-1.5258787870407104,-0.7934569716453552
260812,-0.0045166015625,-0.570556640625,0.6640625,-2.807616949081421,-1.8310545682907104,-1.03759765625
260829,-0.011962890625,-0.493896484375,0.5782470703125,-2.807616949081421,-0.3662109076976776,0.2441406100988388
260850,0.01220703125,-0.69384765625,0.8160400390625,-3.112792730331421,0.54931640625,1.03759765625
260866,0.035888671875,-0.7423095703125,0.8699951171875,-3.112792730331421,-0.4882812201976776,0.1220703050494194
260883,0.02001953125,-0.571044921875,0.6646728515625,-3.234863042831421,-1.220703125,-0.4882812201976776
260900,0.0135498046875,-0.62890625,0.732421875,-3.845214605331421,0.1831054538488388,0.7934569716453552
260916,0.00830078125,-0.712646484375,0.8365478515625,-4.150390625,0.0610351525247097,0.7324218153953552
260947,0.0103759765625,-0.632568359375,0.7513427734375,-4.82177734375,0.0,0.6103515625
260963,0.0203857421875,-0.6810302734375,0.8138427734375,-4.8828125,-0.3662109076976776,0.30517578125
260979,0.0189208984375,-0.653076171875,0.7830810546875,-4.82177734375,-0.4882812201976776,0.1831054538488388
261011,0.009765625,-0.6602783203125,0.7943115234375,-4.8828125,-0.2441406100988388,0.4272460639476776
261027,0.0126953125,-0.6474609375,0.7838134765625,-4.8828125,-0.3662109076976776,0.3662109076976776
261043,0.017578125,-0.6385498046875,0.7784423828125,-4.7607421875,-0.1220703050494194,0.4882812201976776
261059,0.0184326171875,-0.651123046875,0.798583984375,-4.69970703125,-0.1220703050494194,0.4882812201976776
261079,0.0145263671875,-0.638427734375,0.7889404296875,-4.45556640625,-0.1220703050494194,0.4882812201976776
261095,0.010009765625,-0.6370849609375,0.78662109375,-4.0283203125,0.0610351525247097,0.6103515625
261127,0.01806640625,-0.637451171875,0.7977294921875,-3.479003667831421,-0.0610351525247097,0.3662109076976776
261143,0.0186767578125,-0.6265869140625,0.7943115234375,-2.746581792831421,-0.1831054538488388,0.3662109076976776
261159,0.0177001953125,-0.630126953125,0.8033447265625,-2.25830078125,-0.30517578125,0.30517578125
261191,0.011474609375,-0.6241455078125,0.7928466796875,-1.03759765625,-0.30517578125,0.2441406100988388
261207,0.013427734375,-0.640380859375,0.8016357421875,-0.3662109076976776,-0.2441406100988388,0.30517578125
261223,0.0155029296875,-0.6258544921875,0.7886962890625,-0.0610351525247097,-0.1831054538488388,0.30517578125
261239,0.0167236328125,-0.6282958984375,0.7919921875,0.4272460639476776,-0.0610351525247097,0.3662109076976776
261310,0.0133056640625,-0.636962890625,0.7950439453125,2.746581792831421,-0.3662109076976776,0.1220703050494194
261327,0.0147705078125,-0.6385498046875,0.791748046875,2.990722417831421,-0.30517578125,0.1831054538488388
261343,0.0146484375,-0.64013671875,0.7962646484375,3.295898199081421,-0.1831054538488388,0.2441406100988388
261360,0.0150146484375,-0.638671875,0.7989501953125,3.540038824081421,-0.1831054538488388,0.1831054538488388
261377,0.0145263671875,-0.6322021484375,0.792236328125,3.845214605331421,-0.30517578125,0.1220703050494194
261393,0.0145263671875,-0.642578125,0.7911376953125,3.967284917831421,-0.30517578125,0.1220703050494194
261425,0.013671875,-0.6463623046875,0.7835693359375,4.21142578125,-0.2441406100988388,0.1220703050494194
261442,0.0147705078125,-0.645263671875,0.7843017578125,4.2724609375,-0.1831054538488388,0.0610351525247097
261463,0.013671875,-0.6397705078125,0.7890625,4.33349609375,-0.0610351525247097,0.1220703050494194
261479,0.0146484375,-0.6429443359375,0.79296875,4.5166015625,-0.1220703050494194,0.30517578125
261546,0.010498046875,-0.66015625,0.796630859375,4.57763671875,1.4648436307907104,1.5258787870407104
261562,0.0093994140625,-0.6612548828125,0.7960205078125,4.69970703125,1.7700194120407104,1.8310545682907104
261579,0.0101318359375,-0.7076416015625,0.8321533203125,4.39453125,2.0751953125,2.01416015625
261611,0.0252685546875,-0.8734130859375,1.0218505859375,2.624511480331421,1.5258787870407104,0.9155272841453552
261627,0.02734375,-0.8861083984375,1.08349609375,1.0986328125,0.54931640625,0.2441406100988388
261643,0.0224609375,-0.883056640625,1.084228515625,0.1831054538488388,0.0,0.0
261659,0.0050048828125,-0.81005859375,0.9925537109375,-1.6479490995407104,-0.0610351525247097,0.1831054538488388
261679,0.0006103515625,-0.765869140625,0.94482421875,-3.112792730331421,1.0986328125,1.2817381620407104
261695,0.0174560546875,-0.82080078125,1.0250244140625,-3.967284917831421,1.8310545682907104,2.13623046875
261711,0.0284423828125,-0.85546875,1.078125,-4.0283203125,1.5869139432907104,2.01416015625
261727,0.0478515625,-0.9036865234375,1.165771484375,-3.356933355331421,0.4272460639476776,1.0986328125
261749,0.0526123046875,-0.89306640625,1.173828125,-2.807616949081421,-0.3662109076976776,0.6103515625
261765,0.0711669921875,-0.889892578125,1.182861328125,-1.4038084745407104,-1.3427733182907104,0.30517578125
261782,0.072265625,-0.906005859375,1.173583984375,-0.0610351525247097,-2.685546636581421,-0.1220703050494194
261799,0.0684814453125,-0.92919921875,1.1446533203125,0.4882812201976776,-3.234863042831421,-0.54931640625
261815,0.0572509765625,-0.930419921875,1.116455078125,1.3427733182907104,-4.08935546875,-1.5258787870407104
261848,0.0472412109375,-0.9156494140625,1.158447265625,3.845214605331421,-5.554198741912842,-3.540038824081421
261869,0.0416259765625,-0.8917236328125,1.163818359375,5.493163585662842,-7.080077648162842,-4.2724609375
261889,0.0302734375,-0.871826171875,1.1064453125,6.896972179412842,-8.23974609375,-4.8828125
261905,0.013671875,-0.8436279296875,1.0308837890625,7.446288585662842,-8.544921875,-5.126952648162842
261922,0.005859375,-0.8297119140625,0.986328125,7.751464366912842,-8.85009765625,-5.554198741912842
261947,-0.0020751953125,-0.785888671875,0.92138671875,7.202147960662842,-8.6669921875,-5.676269054412842
261965,-0.0093994140625,-0.734375,0.8641357421875,6.286620616912842,-7.995604991912842,-5.371093273162842
261982,-0.0137939453125,-0.72314453125,0.863037109375,5.737304210662842,-7.446288585662842,-4.638671875
261999,-0.0220947265625,-0.721435546875,0.8516845703125,5.554198741912842,-7.507323741912842,-4.5166015625
262036,-0.0458984375,-0.572509765625,0.6513671875,3.601073980331421,-6.652831554412842,-3.601073980331421
262052,-0.0477294921875,-0.54541015625,0.6202392578125,1.5258787870407104,-5.0048828125,-2.0751953125
262068,-0.0477294921875,-0.5274658203125,0.602783203125,-0.1220703050494194,-3.173827886581421,-0.4272460639476776
262085,-0.0469970703125,-0.5299072265625,0.6116943359375,-0.7324218153953552,-2.563476324081421,0.1220703050494194
262102,-0.0445556640625,-0.5191650390625,0.61181640625,-1.6479490995407104,-1.7089842557907104,0.7934569716453552
262123,-0.03955078125,-0.48291015625,0.58447265625,-2.38037109375,-0.9765624403953552,1.7089842557907104
262139,-0.033203125,-0.44287109375,0.52880859375,-2.929687261581421,-0.6103515625,2.13623046875
262156,-0.0302734375,-0.4324951171875,0.51123046875,-4.39453125,0.7324218153953552,3.234863042831421
262173,-0.0269775390625,-0.448974609375,0.5230712890625,-5.737304210662842,1.7700194120407104,4.150390625
262206,-0.0220947265625,-0.4473876953125,0.5345458984375,-7.141112804412842,1.8920897245407104,4.39453125
262223,-0.0201416015625,-0.4310302734375,0.5172119140625,-7.690429210662842,1.9531248807907104,4.2724609375
262239,-0.0181884765625,-0.3819580078125,0.460693359375,-8.4228515625,2.3193359375,4.5166015625
262271,-0.0076904296875,-0.358642578125,0.4473876953125,-9.33837890625,3.234863042831421,5.126952648162842
262287,-0.0013427734375,-0.3740234375,0.4859619140625,-9.46044921875,3.356933355331421,4.94384765625
262303,0.001220703125,-0.371826171875,0.5040283203125,-9.33837890625,2.990722417831421,4.69970703125
262319,0.005615234375,-0.3515625,0.4949951171875,-8.97216796875,2.0751953125,4.21142578125
262339,-0.0003662109375,-0.300537109375,0.4180908203125,-8.7890625,2.01416015625,4.5166015625
262360,-0.001953125,-0.3052978515625,0.40771484375,-8.7890625,2.685546636581421,5.065917491912842
262376,0.008544921875,-0.399658203125,0.5147705078125,-8.6669921875,2.929687261581421,5.432128429412842
262393,0.0194091796875,-0.498046875,0.622314453125,-8.4228515625,1.8310545682907104,4.21142578125
262410,0.0230712890625,-0.525146484375,0.662353515625,-8.056640625,1.15966796875,3.784179449081421
262443,0.020751953125,-0.5400390625,0.6722412109375,-6.958007335662842,-0.6713866591453552,2.197265625
262460,0.0181884765625,-0.5743408203125,0.699462890625,-6.469726085662842,-0.9765624403953552,1.7089842557907104
262476,0.0169677734375,-0.59375,0.7271728515625,-5.920409679412842,-1.220703125,1.4038084745407104
262508,0.014892578125,-0.6611328125,0.87939453125,-1.7089842557907104,-3.051757574081421,-0.6713866591453552
262524,0.00927734375,-0.6484375,0.857421875,-0.54931640625,-3.906249761581421,-1.2817381620407104
262540,0.000732421875,-0.6070556640625,0.7962646484375,1.3427733182907104,-3.906249761581421,-1.3427733182907104
262573,-0.0015869140625,-0.6409912109375,0.8057861328125,3.540038824081421,-3.784179449081421,-1.7089842557907104
262594,-0.0093994140625,-0.6358642578125,0.7904052734375,5.187987804412842,-3.845214605331421,-2.0751953125
262610,-0.010986328125,-0.6190185546875,0.7928466796875,5.981444835662842,-3.845214605331421,-2.13623046875
262627,-0.012939453125,-0.610595703125,0.771484375,7.263183116912842,-3.906249761581421,-2.13623046875
262644,-0.0157470703125,-0.6021728515625,0.733642578125,7.873534679412842,-3.601073980331421,-1.9531248807907104
262660,-0.018798828125,-0.6171875,0.7144775390625,7.873534679412842,-3.173827886581421,-1.7089842557907104
262677,-0.0177001953125,-0.630126953125,0.7357177734375,8.11767578125,-2.25830078125,-1.4648436307907104
262698,-0.0203857421875,-0.668701171875,0.7874755859375,8.7890625,-2.38037109375,-1.7700194120407104
262714,-0.02099609375,-0.6552734375,0.7752685546875,9.6435546875,-2.624511480331421,-2.197265625
262730,-0.017822265625,-0.6575927734375,0.7659912109375,10.131834983825684,-2.197265625,-2.0751953125
262746,-0.015380859375,-0.6593017578125,0.7711181640625,10.192870140075684,-2.13623046875,-2.01416015625
262762,-0.01318359375,-0.68310546875,0.78076171875,10.437010765075684,-1.9531248807907104,-2.13623046875
262778,-0.0133056640625,-0.7113037109375,0.814453125,10.559081077575684,-2.01416015625,-2.25830078125
262811,-0.0172119140625,-0.7099609375,0.810302734375,10.986327171325684,-2.807616949081421,-3.173827886581421
262832,-0.0198974609375,-0.697998046875,0.786865234375,10.864256858825684,-2.990722417831421,-3.295898199081421
262848,-0.0211181640625,-0.67626953125,0.7457275390625,10.437010765075684,-2.868652105331421,-3.417968511581421
262865,-0.0225830078125,-0.664306640625,0.705322265625,9.521484375,-2.3193359375,-3.234863042831421
262881,-0.0211181640625,-0.6610107421875,0.70947265625,8.97216796875,-2.01416015625,-3.112792730331421
262898,-0.01953125,-0.68408203125,0.74560546875,8.056640625,-1.5258787870407104,-2.929687261581421
262931,-0.02392578125,-0.66064453125,0.714599609375,6.408690929412842,-1.4038084745407104,-3.173827886581421
262947,-0.0257568359375,-0.6533203125,0.713623046875,6.042479991912842,-1.0986328125,-2.990722417831421
262963,-0.0308837890625,-0.6619873046875,0.72314453125,5.493163585662842,-0.54931640625,-2.685546636581421
262979,-0.0311279296875,-0.6650390625,0.74755859375,5.249022960662842,-0.3662109076976776,-2.563476324081421
262998,-0.0294189453125,-0.671630859375,0.7530517578125,5.126952648162842,-0.1831054538488388,-2.44140625
263019,-0.025634765625,-0.6702880859375,0.7608642578125,5.126952648162842,0.0,-2.25830078125
263085,-0.021484375,-0.661376953125,0.749755859375,4.08935546875,1.2817381620407104,-1.3427733182907104
263119,-0.01904296875,-0.664306640625,0.7559814453125,3.601073980331421,1.4648436307907104,-1.15966796875
263136,-0.0184326171875,-0.6512451171875,0.731689453125,3.112792730331421,1.8310545682907104,-1.03759765625
263169,-0.0224609375,-0.6441650390625,0.724853515625,2.3193359375,2.624511480331421,-0.4882812201976776
263186,-0.0230712890625,-0.6435546875,0.7255859375,1.7700194120407104,2.929687261581421,-0.2441406100988388
263202,-0.0185546875,-0.6507568359375,0.7410888671875,1.5258787870407104,3.112792730331421,0.0
263219,-0.0147705078125,-0.6568603515625,0.7528076171875,1.4648436307907104,3.173827886581421,0.0610351525247097
263239,-0.0096435546875,-0.66845703125,0.765869140625,1.4648436307907104,3.173827886581421,0.0
263260,-0.0064697265625,-0.6763916015625,0.7725830078125,1.5258787870407104,2.990722417831421,0.0610351525247097
263277,-0.0059814453125,-0.6785888671875,0.7802734375,1.5869139432907104,2.990722417831421,0.0610351525247097
263294,-0.0054931640625,-0.6929931640625,0.7901611328125,1.6479490995407104,2.929687261581421,0.0610351525247097
263310,-0.0018310546875,-0.69970703125,0.8116455078125,1.8310545682907104,2.807616949081421,-0.1220703050494194
263344,-0.00439453125,-0.6822509765625,0.7960205078125,2.3193359375,1.8310545682907104,-0.6713866591453552
263361,-0.007080078125,-0.6783447265625,0.7808837890625,2.50244140625,1.6479490995407104,-0.6713866591453552
263382,-0.007568359375,-0.67578125,0.7808837890625,2.50244140625,1.5869139432907104,-0.7324218153953552
263398,-0.0081787109375,-0.6737060546875,0.7802734375,2.50244140625,1.220703125,-0.8544921278953552
263462,-0.0164794921875,-0.671142578125,0.7745361328125,1.4038084745407104,0.54931640625,-0.7324218153953552
263479,-0.0186767578125,-0.674560546875,0.7779541015625,1.0986328125,0.4272460639476776,-0.7324218153953552
263527,-0.0201416015625,-0.6610107421875,0.761474609375,-1.2817381620407104,0.1220703050494194,-0.30517578125
263543,-0.0252685546875,-0.6531982421875,0.7392578125,-2.38037109375,0.30517578125,-0.2441406100988388
263559,-0.0272216796875,-0.6451416015625,0.7349853515625,-2.685546636581421,0.4272460639476776,-0.1220703050494194
263590,-0.0286865234375,-0.6458740234375,0.747802734375,-3.112792730331421,0.6713866591453552,0.30517578125
263628,-0.024658203125,-0.65283203125,0.7618408203125,-3.112792730331421,0.9155272841453552,0.6103515625
263664,-0.0206298828125,-0.6507568359375,0.765869140625,-2.563476324081421,0.9765624403953552,0.9155272841453552
263681,-0.0194091796875,-0.65087890625,0.7691650390625,-2.13623046875,1.03759765625,0.9765624403953552
263698,-0.0155029296875,-0.656494140625,0.77490234375,-1.8920897245407104,0.7324218153953552,1.03759765625
263718,-0.0140380859375,-0.6529541015625,0.7637939453125,-1.9531248807907104,0.6103515625,1.03759765625
263735,-0.0133056640625,-0.6470947265625,0.751220703125,-2.38037109375,0.4882812201976776,0.9155272841453552
263751,-0.012451171875,-0.6328125,0.7335205078125,-2.563476324081421,0.4272460639476776,0.9155272841453552
263767,-0.0125732421875,-0.6309814453125,0.729248046875,-2.807616949081421,0.54931640625,1.0986328125
263784,-0.0108642578125,-0.6295166015625,0.737548828125,-2.929687261581421,0.4272460639476776,1.03759765625
263800,-0.011474609375,-0.6265869140625,0.7305908203125,-2.929687261581421,0.30517578125,1.0986328125
263833,-0.0078125,-0.6285400390625,0.7369384765625,-3.051757574081421,0.3662109076976776,1.220703125
263854,-0.00634765625,-0.631591796875,0.748046875,-2.990722417831421,0.2441406100988388,1.220703125
263870,-0.0064697265625,-0.635498046875,0.753173828125,-2.746581792831421,0.0,1.0986328125
263887,-0.010009765625,-0.6251220703125,0.744384765625,-2.50244140625,-0.1220703050494194,0.9765624403953552
263957,-0.0130615234375,-0.6622314453125,0.7890625,-1.220703125,0.1831054538488388,1.4648436307907104
263974,-0.010986328125,-0.6676025390625,0.80419921875,-0.3662109076976776,-0.4882812201976776,0.9765624403953552
263990,-0.013427734375,-0.6484375,0.7789306640625,-0.1220703050494194,-0.9155272841453552,0.7934569716453552
264006,-0.02099609375,-0.5908203125,0.6890869140625,-0.0610351525247097,-0.7324218153953552,1.0986328125
264023,-0.02490234375,-0.5906982421875,0.6685791015625,-0.30517578125,-0.2441406100988388,1.5258787870407104
264044,-0.02392578125,-0.608642578125,0.689697265625,-0.8544921278953552,0.4272460639476776,1.9531248807907104
264060,-0.0208740234375,-0.621337890625,0.7210693359375,-0.9765624403953552,0.30517578125,1.7700194120407104
264077,-0.01904296875,-0.6165771484375,0.7344970703125,-0.7934569716453552,0.1831054538488388,1.7700194120407104
264094,-0.02197265625,-0.5867919921875,0.6851806640625,-0.4882812201976776,-0.30517578125,1.6479490995407104
264127,-0.022705078125,-0.605712890625,0.6868896484375,-1.03759765625,0.8544921278953552,2.685546636581421
264192,-0.017578125,-0.6148681640625,0.7071533203125,0.1831054538488388,-0.6103515625,1.5258787870407104
264208,-0.0177001953125,-0.5970458984375,0.6768798828125,0.0,-0.2441406100988388,1.8310545682907104
264224,-0.013916015625,-0.5980224609375,0.672119140625,-0.6713866591453552,0.4882812201976776,2.38037109375
264240,-0.01123046875,-0.6129150390625,0.6947021484375,-0.9765624403953552,0.6713866591453552,2.44140625
264260,-0.008544921875,-0.642333984375,0.7471923828125,-1.220703125,0.4882812201976776,2.197265625
264276,-0.00927734375,-0.644775390625,0.7685546875,-0.9155272841453552,0.0610351525247097,1.8920897245407104
264292,-0.007080078125,-0.6385498046875,0.7723388671875,-0.6103515625,-0.30517578125,1.5869139432907104
264324,-0.0078125,-0.5908203125,0.6956787109375,-0.7934569716453552,0.0610351525247097,2.0751953125
264376,-0.0076904296875,-0.6370849609375,0.75634765625,-0.7324218153953552,-0.0610351525247097,1.5869139432907104
264393,-0.0067138671875,-0.6279296875,0.7562255859375,0.1220703050494194,-0.2441406100988388,1.4038084745407104
264426,-0.009033203125,-0.5972900390625,0.7105712890625,1.03759765625,-0.3662109076976776,1.4038084745407104
264442,-0.0106201171875,-0.59814453125,0.7008056640625,1.0986328125,0.1220703050494194,1.7700194120407104
264459,-0.0084228515625,-0.619384765625,0.717529296875,1.15966796875,0.6713866591453552,2.01416015625
264487,0.00634765625,-0.6514892578125,0.775390625,1.8920897245407104,0.4882812201976776,1.5258787870407104
264509,0.0081787109375,-0.627685546875,0.755859375,2.25830078125,0.2441406100988388,1.4038084745407104
264525,0.0087890625,-0.63037109375,0.7486572265625,2.746581792831421,0.3662109076976776,1.5869139432907104
264542,0.010498046875,-0.6455078125,0.7642822265625,2.990722417831421,0.7324218153953552,1.6479490995407104
264559,0.0123291015625,-0.66162109375,0.78759765625,3.112792730331421,0.54931640625,1.4648436307907104
264608,0.01708984375,-0.6318359375,0.738037109375,3.540038824081421,-0.7324218153953552,0.1831054538488388
264630,0.0189208984375,-0.617919921875,0.7200927734375,2.929687261581421,-0.54931640625,0.1220703050494194
264646,0.0177001953125,-0.60693359375,0.73095703125,2.624511480331421,-0.6103515625,-0.0610351525247097
264663,0.01513671875,-0.6014404296875,0.72900390625,2.38037109375,-0.6713866591453552,-0.1831054538488388
264680,0.008544921875,-0.604736328125,0.7366943359375,2.44140625,-0.4882812201976776,-0.0610351525247097
264696,0.0023193359375,-0.635498046875,0.7606201171875,2.563476324081421,-0.30517578125,0.0610351525247097
264730,0.0045166015625,-0.6981201171875,0.8350830078125,4.39453125,-0.3662109076976776,-0.6103515625
264746,0.0081787109375,-0.6944580078125,0.834228515625,5.615233898162842,-1.220703125,-1.4648436307907104
264762,0.005126953125,-0.6710205078125,0.7977294921875,6.042479991912842,-1.3427733182907104,-1.5869139432907104
264778,-0.0040283203125,-0.62646484375,0.7347412109375,6.530761241912842,-0.7324218153953552,-1.15966796875
264798,-0.0142822265625,-0.6239013671875,0.72216796875,6.408690929412842,-0.0610351525247097,-0.7934569716453552
264820,-0.0211181640625,-0.616455078125,0.7138671875,6.347655773162842,0.1831054538488388,-0.6713866591453552
264836,-0.0220947265625,-0.615478515625,0.7305908203125,6.469726085662842,0.9155272841453552,-0.30517578125
264853,-0.020751953125,-0.614501953125,0.7398681640625,6.469726085662842,1.4038084745407104,0.1220703050494194
264870,-0.01513671875,-0.625244140625,0.75048828125,6.408690929412842,1.5869139432907104,0.2441406100988388
264903,-0.0142822265625,-0.629638671875,0.7442626953125,5.981444835662842,2.685546636581421,1.3427733182907104
264968,-0.01220703125,-0.6875,0.8128662109375,6.774901866912842,3.723144292831421,2.50244140625
264990,-0.0062255859375,-0.6937255859375,0.82421875,6.835937023162842,3.601073980331421,2.44140625
265006,0.005859375,-0.6759033203125,0.7958984375,6.652831554412842,3.112792730331421,2.13623046875
265023,0.006591796875,-0.6650390625,0.7723388671875,6.042479991912842,2.929687261581421,2.3193359375
265073,0.018798828125,-0.76220703125,0.88232421875,4.94384765625,2.3193359375,1.5869139432907104
265105,0.0205078125,-0.722412109375,0.8480224609375,5.432128429412842,0.7324218153953552,0.4272460639476776
265122,0.0230712890625,-0.7138671875,0.8218994140625,5.493163585662842,0.7324218153953552,0.54931640625
265138,0.0220947265625,-0.76318359375,0.8609619140625,5.554198741912842,0.6103515625,0.4882812201976776
265159,0.0137939453125,-0.776123046875,0.859619140625,5.798339366912842,-0.6103515625,-0.7934569716453552
265175,0.0111083984375,-0.7667236328125,0.8509521484375,6.103515148162842,-0.7934569716453552,-1.0986328125
265192,0.0098876953125,-0.7481689453125,0.840576171875,6.591796398162842,-1.3427733182907104,-1.5258787870407104
265213,0.0130615234375,-0.7161865234375,0.8099365234375,6.347655773162842,-1.7700194120407104,-1.6479490995407104
265229,0.0106201171875,-0.6927490234375,0.76611328125,5.859374523162842,-1.8310545682907104,-1.5869139432907104
265246,0.0079345703125,-0.6920166015625,0.7628173828125,4.5166015625,-1.5869139432907104,-1.03759765625
265263,0.0045166015625,-0.7078857421875,0.7694091796875,2.868652105331421,-1.4648436307907104,-0.54931640625
265280,0.0045166015625,-0.7303466796875,0.780517578125,2.44140625,-1.5258787870407104,-0.54931640625
265297,0.00830078125,-0.683837890625,0.7818603515625,4.69970703125,-1.2817381620407104,-1.03759765625
265330,0.008056640625,-0.7344970703125,0.792236328125,3.906249761581421,-0.9155272841453552,-0.54931640625
265346,0.008544921875,-0.7755126953125,0.7940673828125,4.39453125,-1.03759765625,-0.54931640625
265362,0.01220703125,-0.76806640625,0.7947998046875,4.2724609375,-1.15966796875,-1.15966796875
265410,0.0142822265625,-0.743408203125,0.7587890625,2.868652105331421,-0.4272460639476776,-0.54931640625
265462,0.0146484375,-0.7786865234375,0.8245849609375,3.112792730331421,-0.7324218153953552,-0.9765624403953552
265479,0.0106201171875,-0.7496337890625,0.771728515625,3.234863042831421,-1.2817381620407104,-1.2817381620407104
265496,0.00927734375,-0.738525390625,0.7545166015625,2.624511480331421,-1.03759765625,-1.0986328125
265516,0.0052490234375,-0.73828125,0.743408203125,1.7700194120407104,-0.6103515625,-0.6713866591453552
265533,0.0048828125,-0.744384765625,0.7659912109375,1.03759765625,-0.1831054538488388,-0.54931640625
265549,0.0050048828125,-0.7529296875,0.7857666015625,0.8544921278953552,-0.2441406100988388,-0.54931640625
265566,0.0067138671875,-0.7442626953125,0.7958984375,0.7934569716453552,-0.4272460639476776,-0.4882812201976776
265583,0.0030517578125,-0.7431640625,0.7867431640625,1.0986328125,-0.4882812201976776,-0.1831054538488388
265604,0.003173828125,-0.756103515625,0.7957763671875,1.0986328125,-0.54931640625,-0.1831054538488388
265620,0.001708984375,-0.7520751953125,0.7706298828125,1.03759765625,-0.7324218153953552,-0.3662109076976776
265637,0.0018310546875,-0.7406005859375,0.761962890625,0.7324218153953552,-0.7324218153953552,-0.4882812201976776
265654,-0.0001220703125,-0.719482421875,0.74365234375,0.4882812201976776,-0.54931640625,-0.4272460639476776
265687,0.001220703125,-0.7401123046875,0.78369140625,0.4882812201976776,-0.30517578125,-0.30517578125
265704,0.0003662109375,-0.7313232421875,0.7913818359375,0.9765624403953552,-1.0986328125,-0.8544921278953552
265720,0.00146484375,-0.7056884765625,0.7589111328125,1.2817381620407104,-1.15966796875,-0.8544921278953552
265768,-0.00244140625,-0.745361328125,0.7828369140625,1.7089842557907104,-0.6103515625,-0.4882812201976776
265819,-0.0367431640625,-0.6441650390625,0.70751953125,3.112792730331421,-0.7324218153953552,-0.7324218153953552
265869,0.0111083984375,-0.6915283203125,0.7198486328125,4.5166015625,4.150390625,4.69970703125
265885,0.0125732421875,-0.6953125,0.7210693359375,3.784179449081421,3.479003667831421,3.967284917831421
265902,0.0208740234375,-0.6939697265625,0.717529296875,3.662109136581421,3.295898199081421,3.784179449081421
265918,0.028076171875,-0.7021484375,0.727294921875,3.479003667831421,3.234863042831421,3.723144292831421
265938,0.03369140625,-0.721923828125,0.7366943359375,3.540038824081421,2.929687261581421,3.540038824081421
265960,0.0347900390625,-0.7205810546875,0.7401123046875,3.356933355331421,2.563476324081421,3.173827886581421
265976,0.03515625,-0.728271484375,0.74658203125,3.540038824081421,2.13623046875,2.685546636581421
265993,0.033447265625,-0.7266845703125,0.7413330078125,3.540038824081421,1.7700194120407104,2.50244140625
266010,0.02392578125,-0.7183837890625,0.7293701171875,3.479003667831421,1.3427733182907104,2.13623046875
266043,-0.0394287109375,-1.184814453125,1.185302734375,3.479003667831421,-1.8920897245407104,-1.220703125
266060,-0.017822265625,-0.61083984375,0.6109619140625,2.746581792831421,-1.5258787870407104,-1.03759765625
266076,0.000244140625,-0.538818359375,0.54541015625,1.8920897245407104,-0.6713866591453552,-0.2441406100988388
266108,0.0091552734375,-0.6121826171875,0.6217041015625,1.03759765625,0.2441406100988388,1.0986328125
266169,-0.003173828125,-0.602294921875,0.5870361328125,0.7934569716453552,-0.7324218153953552,-0.30517578125
266191,-0.005615234375,-0.6810302734375,0.683349609375,-0.1220703050494194,0.54931640625,0.6713866591453552
266207,0.0030517578125,-0.808837890625,0.8212890625,-0.6103515625,-0.54931640625,-0.1831054538488388
266224,0.0125732421875,-0.662353515625,0.677490234375,-0.7324218153953552,-0.8544921278953552,-0.30517578125
266241,0.0211181640625,-0.7138671875,0.71337890625,-1.2817381620407104,-0.1831054538488388,0.54931640625
266257,0.0216064453125,-0.760009765625,0.757568359375,-2.01416015625,-0.2441406100988388,0.3662109076976776
266278,0.010009765625,-0.712158203125,0.70849609375,-2.44140625,-0.54931640625,-0.0610351525247097
266343,0.016357421875,-0.7086181640625,0.7236328125,-4.0283203125,-0.1220703050494194,0.7324218153953552
266422,0.013427734375,-0.6978759765625,0.7318115234375,-4.8828125,-0.3662109076976776,0.30517578125
266439,0.013916015625,-0.69970703125,0.7315673828125,-4.82177734375,-0.30517578125,0.3662109076976776
266476,0.007080078125,-0.697021484375,0.732421875,-4.94384765625,-0.1831054538488388,0.4272460639476776
266492,0.0079345703125,-0.7037353515625,0.74365234375,-4.8828125,0.0,0.4882812201976776
266508,0.010009765625,-0.69775390625,0.7442626953125,-4.82177734375,-0.0610351525247097,0.3662109076976776
266525,0.0152587890625,-0.6837158203125,0.7393798828125,-4.33349609375,-0.1831054538488388,0.3662109076976776
266542,0.0142822265625,-0.6917724609375,0.7530517578125,-3.723144292831421,-0.30517578125,0.2441406100988388
266563,0.0120849609375,-0.68994140625,0.749755859375,-3.417968511581421,-0.3662109076976776,0.2441406100988388
266579,0.007568359375,-0.6865234375,0.7437744140625,-2.868652105331421,-0.2441406100988388,0.30517578125
266646,0.01171875,-0.6883544921875,0.752197265625,-1.5869139432907104,-0.1220703050494194,0.3662109076976776
266662,0.0089111328125,-0.6861572265625,0.7471923828125,-1.2817381620407104,-0.1831054538488388,0.30517578125
266679,0.0089111328125,-0.6873779296875,0.7451171875,-1.0986328125,-0.1831054538488388,0.30517578125
266713,0.012451171875,-0.6859130859375,0.7501220703125,-0.7934569716453552,-0.2441406100988388,0.1831054538488388
266730,0.0123291015625,-0.6829833984375,0.74951171875,-0.6103515625,-0.3662109076976776,0.1831054538488388
266747,0.012451171875,-0.6846923828125,0.74755859375,-0.4272460639476776,-0.3662109076976776,0.2441406100988388
266763,0.0108642578125,-0.690673828125,0.7486572265625,-0.30517578125,-0.30517578125,0.2441406100988388
266829,0.0123291015625,-0.682861328125,0.7529296875,0.1831054538488388,-0.0610351525247097,0.4272460639476776
266901,0.01025390625,-0.6903076171875,0.7515869140625,1.220703125,-0.2441406100988388,0.1831054538488388
266918,0.0120849609375,-0.684326171875,0.74951171875,1.4648436307907104,-0.1831054538488388,0.1831054538488388
266954,0.010009765625,-0.685791015625,0.75048828125,1.8920897245407104,-0.2441406100988388,0.2441406100988388
266986,0.012939453125,-0.690673828125,0.75,2.44140625,-0.3662109076976776,0.0610351525247097
267019,0.010498046875,-0.6885986328125,0.7451171875,2.685546636581421,-0.30517578125,0.0610351525247097
267036,0.0086669921875,-0.68896484375,0.7491455078125,2.746581792831421,-0.30517578125,0.0610351525247097
267066,0.009765625,-0.6910400390625,0.74462890625,2.746581792831421,-0.2441406100988388,0.2441406100988388
267082,0.0118408203125,-0.6962890625,0.7406005859375,2.685546636581421,-0.1831054538488388,0.2441406100988388
267098,0.0125732421875,-0.697021484375,0.741455078125,2.624511480331421,-0.1831054538488388,0.30517578125
267127,0.0107421875,-0.695068359375,0.7410888671875,2.25830078125,-0.30517578125,0.0610351525247097
267149,0.009521484375,-0.6929931640625,0.739990234375,2.0751953125,-0.2441406100988388,0.1220703050494194
267165,0.0098876953125,-0.6937255859375,0.7425537109375,2.01416015625,-0.2441406100988388,0.1831054538488388
267182,0.0103759765625,-0.6951904296875,0.7421875,1.8920897245407104,-0.1831054538488388,0.30517578125
267199,0.0103759765625,-0.6986083984375,0.74072265625,1.5869139432907104,-0.0610351525247097,0.4272460639476776
267215,0.01025390625,-0.6964111328125,0.738525390625,1.4038084745407104,-0.0610351525247097,0.3662109076976776
267247,0.010986328125,-0.695556640625,0.740234375,0.8544921278953552,0.0,0.4272460639476776
267269,0.0126953125,-0.69287109375,0.7406005859375,0.7934569716453552,0.0610351525247097,0.4882812201976776
267302,0.0076904296875,-0.6785888671875,0.7352294921875,0.9765624403953552,0.9765624403953552,1.2817381620407104
267319,0.011474609375,-0.704345703125,0.7669677734375,1.4648436307907104,1.7700194120407104,2.13623046875
267335,0.0107421875,-0.727294921875,0.76025390625,1.6479490995407104,1.9531248807907104,2.25830078125
267369,0.042724609375,-0.8817138671875,0.9232177734375,-0.2441406100988388,1.7700194120407104,1.4648436307907104
267433,0.0650634765625,-0.95166015625,1.0357666015625,-5.432128429412842,-2.868652105331421,-0.8544921278953552
267564,-0.03759765625,-0.912109375,0.981689453125,-7.995604991912842,-5.065917491912842,-3.417968511581421
267581,-0.0419921875,-0.90380859375,1.017333984375,-7.080077648162842,-4.2724609375,-3.112792730331421
267598,-0.042236328125,-0.8861083984375,1.0633544921875,-6.164550304412842,-4.21142578125,-2.929687261581421
267618,-0.0418701171875,-0.86572265625,1.06640625,-3.967284917831421,-4.08935546875,-2.3193359375
267635,-0.046142578125,-0.827392578125,0.97314453125,-1.7089842557907104,-4.21142578125,-1.6479490995407104
267651,-0.0445556640625,-0.8116455078125,0.9339599609375,-0.3662109076976776,-3.051757574081421,-0.6713866591453552
267667,-0.03857421875,-0.79052734375,0.890380859375,0.2441406100988388,-1.7700194120407104,0.30517578125
267684,-0.0335693359375,-0.7772216796875,0.8770751953125,0.3662109076976776,-1.15966796875,0.8544921278953552
267700,-0.0260009765625,-0.7659912109375,0.8656005859375,0.6103515625,-0.0610351525247097,1.8920897245407104
267732,-0.0179443359375,-0.79833984375,0.8970947265625,0.9155272841453552,0.30517578125,2.25830078125
267748,-0.0140380859375,-0.769775390625,0.873046875,1.2817381620407104,0.4272460639476776,2.3193359375
267764,-0.0076904296875,-0.743896484375,0.85693359375,1.4648436307907104,0.4882812201976776,2.38037109375
267781,-0.0052490234375,-0.7225341796875,0.8341064453125,1.8920897245407104,0.30517578125,2.38037109375
267806,-0.0059814453125,-0.6806640625,0.769775390625,1.6479490995407104,0.3662109076976776,2.624511480331421
267822,-0.0059814453125,-0.6529541015625,0.7239990234375,1.0986328125,0.6713866591453552,2.990722417831421
267839,-0.0013427734375,-0.635986328125,0.69921875,0.6713866591453552,0.7934569716453552,3.051757574081421
267856,0.0025634765625,-0.626953125,0.694091796875,0.2441406100988388,0.8544921278953552,2.868652105331421
267905,0.0128173828125,-0.489013671875,0.5504150390625,-0.6103515625,-0.1220703050494194,2.0751953125
267922,0.010986328125,-0.4595947265625,0.5118408203125,-1.4038084745407104,-0.1831054538488388,2.0751953125
267938,0.014404296875,-0.4327392578125,0.4888916015625,-2.25830078125,0.2441406100988388,2.25830078125
267970,0.0313720703125,-0.435302734375,0.5091552734375,-2.990722417831421,-0.30517578125,1.7089842557907104
267986,0.0318603515625,-0.3922119140625,0.4849853515625,-3.051757574081421,-1.15966796875,0.9155272841453552
268002,0.028564453125,-0.3638916015625,0.4599609375,-3.051757574081421,-1.4038084745407104,0.6713866591453552
268018,0.022216796875,-0.3250732421875,0.4029541015625,-2.929687261581421,-1.5869139432907104,0.9155272841453552
268038,0.0167236328125,-0.330078125,0.3779296875,-2.929687261581421,-1.3427733182907104,1.03759765625
268060,0.013916015625,-0.338134765625,0.3751220703125,-2.990722417831421,-1.220703125,0.9765624403953552
268076,0.0123291015625,-0.35791015625,0.390869140625,-3.051757574081421,-1.0986328125,0.6713866591453552
268093,0.015869140625,-0.3779296875,0.4263916015625,-2.929687261581421,-1.03759765625,0.8544921278953552
268110,0.0125732421875,-0.4290771484375,0.451904296875,-2.807616949081421,-1.15966796875,0.9765624403953552
268143,-0.0029296875,-0.5120849609375,0.49755859375,-2.685546636581421,-0.7324218153953552,0.7934569716453552
268160,-0.001708984375,-0.5655517578125,0.568115234375,-2.50244140625,-0.7324218153953552,0.3662109076976776
268176,0.0045166015625,-0.5845947265625,0.6173095703125,-2.25830078125,-0.7324218153953552,0.1220703050494194
268205,0.015625,-0.6136474609375,0.68115234375,-0.6713866591453552,-0.6713866591453552,-0.1831054538488388
268259,-0.0013427734375,-0.64501953125,0.732666015625,3.356933355331421,-1.220703125,-1.220703125
268276,-0.002197265625,-0.63818359375,0.727294921875,5.065917491912842,-1.4648436307907104,-1.6479490995407104
268293,0.0009765625,-0.6239013671875,0.7265625,6.835937023162842,-1.5869139432907104,-1.7700194120407104
268326,-0.0018310546875,-0.625,0.71826171875,9.33837890625,-0.9765624403953552,-1.5869139432907104
268343,-0.010009765625,-0.6461181640625,0.71875,10.742186546325684,-1.03759765625,-1.8310545682907104
268359,-0.0137939453125,-0.6407470703125,0.714599609375,11.779784202575684,-0.8544921278953552,-2.0751953125
268391,-0.0101318359375,-0.62939453125,0.71142578125,12.939452171325684,-0.4272460639476776,-1.8310545682907104
268439,-0.0223388671875,-0.682861328125,0.723388671875,14.160155296325684,0.1220703050494194,-1.8920897245407104
268461,-0.020263671875,-0.7080078125,0.7681884765625,14.465331077575684,0.1831054538488388,-2.01416015625
268478,-0.0201416015625,-0.7086181640625,0.7698974609375,14.831542015075684,-0.0610351525247097,-2.44140625
268511,-0.02197265625,-0.73095703125,0.76220703125,15.014647483825684,-0.1831054538488388,-2.563476324081421
268528,-0.027587890625,-0.7423095703125,0.7449951171875,14.770506858825684,-0.3662109076976776,-2.807616949081421
268544,-0.0306396484375,-0.737548828125,0.7220458984375,13.977049827575684,-0.3662109076976776,-3.234863042831421
268560,-0.029541015625,-0.7203369140625,0.6922607421875,12.634276390075684,0.1220703050494194,-3.295898199081421
268580,-0.0228271484375,-0.7227783203125,0.7059326171875,11.108397483825684,0.4882812201976776,-3.112792730331421
268602,-0.0218505859375,-0.726806640625,0.70751953125,10.192870140075684,0.4272460639476776,-3.112792730331421
268618,-0.0228271484375,-0.7315673828125,0.6920166015625,8.48388671875,0.7324218153953552,-3.051757574081421
268635,-0.0205078125,-0.739990234375,0.7052001953125,6.896972179412842,1.0986328125,-2.990722417831421
268652,-0.0146484375,-0.7501220703125,0.7305908203125,6.164550304412842,1.03759765625,-3.051757574081421
268685,-0.0146484375,-0.742431640625,0.7269287109375,3.662109136581421,0.7324218153953552,-3.173827886581421
268702,-0.0111083984375,-0.748779296875,0.7303466796875,2.50244140625,0.6713866591453552,-3.234863042831421
268718,-0.0074462890625,-0.747802734375,0.7344970703125,2.01416015625,0.6103515625,-3.356933355331421
268750,-0.0025634765625,-0.7373046875,0.7369384765625,0.1831054538488388,0.2441406100988388,-3.784179449081421
268766,-0.0028076171875,-0.7310791015625,0.7318115234375,-0.2441406100988388,0.1831054538488388,-3.845214605331421
268782,-0.0064697265625,-0.71630859375,0.7215576171875,-0.9765624403953552,0.1220703050494194,-3.784179449081421
268831,-0.013916015625,-0.69287109375,0.7120361328125,-2.746581792831421,0.3662109076976776,-3.601073980331421
268883,-0.0150146484375,-0.6605224609375,0.6953125,-3.112792730331421,0.54931640625,-3.234863042831421
268900,-0.0142822265625,-0.6629638671875,0.708251953125,-3.112792730331421,1.0986328125,-2.746581792831421
268933,-0.01171875,-0.667724609375,0.7373046875,-2.685546636581421,1.4648436307907104,-2.13623046875
268999,-0.0098876953125,-0.6871337890625,0.751953125,-0.30517578125,1.7700194120407104,-1.0986328125
269015,-0.012939453125,-0.682861328125,0.739501953125,0.0610351525247097,1.8310545682907104,-0.8544921278953552
269048,-0.0147705078125,-0.677001953125,0.731201171875,0.6103515625,1.9531248807907104,-0.4272460639476776
269065,-0.01513671875,-0.680419921875,0.726318359375,0.8544921278953552,2.01416015625,-0.1220703050494194
269081,-0.013671875,-0.689208984375,0.72802734375,0.9765624403953552,2.13623046875,0.0
269098,-0.0123291015625,-0.6922607421875,0.73046875,1.03759765625,2.0751953125,0.0610351525247097
269118,-0.009521484375,-0.6983642578125,0.740478515625,1.15966796875,2.0751953125,0.1220703050494194
269140,-0.0069580078125,-0.7021484375,0.748779296875,1.2817381620407104,1.7700194120407104,0.1831054538488388
269156,-0.0074462890625,-0.6993408203125,0.737548828125,1.220703125,1.5869139432907104,0.2441406100988388
269173,-0.00927734375,-0.69970703125,0.73095703125,1.0986328125,1.4648436307907104,0.2441406100988388
269190,-0.010498046875,-0.7020263671875,0.73291015625,0.9155272841453552,1.2817381620407104,0.3662109076976776
269223,-0.0101318359375,-0.71533203125,0.7552490234375,0.6713866591453552,0.6713866591453552,0.1831054538488388
269240,-0.0115966796875,-0.7095947265625,0.74853515625,0.6713866591453552,0.4882812201976776,0.1831054538488388
269260,-0.0118408203125,-0.708984375,0.74658203125,0.6713866591453552,0.1220703050494194,0.30517578125
269324,-0.0145263671875,-0.716796875,0.7618408203125,0.1220703050494194,-0.7934569716453552,0.4882812201976776
269357,-0.01806640625,-0.7044677734375,0.740966796875,-0.2441406100988388,-1.15966796875,0.4882812201976776
269377,-0.02099609375,-0.700439453125,0.7296142578125,-0.54931640625,-1.15966796875,0.7324218153953552
269410,-0.0240478515625,-0.70166015625,0.72802734375,-0.6103515625,-1.2817381620407104,0.8544921278953552
269426,-0.02490234375,-0.705078125,0.7322998046875,-0.6103515625,-1.3427733182907104,1.03759765625
269443,-0.0269775390625,-0.7037353515625,0.728515625,-0.6103515625,-1.4648436307907104,1.03759765625
269459,-0.02685546875,-0.6993408203125,0.7255859375,-0.6103515625,-1.4648436307907104,1.0986328125
269479,-0.026611328125,-0.693115234375,0.7218017578125,-0.6713866591453552,-1.4038084745407104,1.2817381620407104
269495,-0.0240478515625,-0.6990966796875,0.7294921875,-0.6103515625,-1.3427733182907104,1.4648436307907104
269511,-0.0198974609375,-0.7054443359375,0.738037109375,-0.6103515625,-1.3427733182907104,1.4038084745407104
269527,-0.018798828125,-0.7041015625,0.7391357421875,-0.4882812201976776,-1.5869139432907104,1.3427733182907104
269543,-0.0196533203125,-0.6978759765625,0.73046875,-0.1220703050494194,-1.7089842557907104,1.4038084745407104
269559,-0.0196533203125,-0.6961669921875,0.7261962890625,-0.0610351525247097,-1.7089842557907104,1.4648436307907104
269592,-0.0220947265625,-0.69384765625,0.71240234375,0.30517578125,-1.7700194120407104,1.4038084745407104
269613,-0.0220947265625,-0.6893310546875,0.7052001953125,0.30517578125,-1.7089842557907104,1.4648436307907104
269629,-0.0201416015625,-0.6842041015625,0.69482421875,0.30517578125,-1.5258787870407104,1.5869139432907104
269645,-0.0157470703125,-0.6817626953125,0.6959228515625,0.3662109076976776,-1.3427733182907104,1.5869139432907104
269661,-0.015625,-0.6837158203125,0.693359375,0.6103515625,-1.2817381620407104,1.5869139432907104
269678,-0.0164794921875,-0.6768798828125,0.685791015625,0.7324218153953552,-1.4038084745407104,1.6479490995407104
269711,-0.016845703125,-0.6678466796875,0.671142578125,1.03759765625,-0.9155272841453552,1.8310545682907104
269727,-0.0140380859375,-0.6729736328125,0.6798095703125,1.15966796875,-0.7934569716453552,1.8920897245407104
269743,-0.0115966796875,-0.6793212890625,0.69140625,1.5869139432907104,-0.7934569716453552,1.8310545682907104
269759,-0.010498046875,-0.6785888671875,0.6895751953125,1.8310545682907104,-0.9155272841453552,1.7700194120407104
269779,-0.009033203125,-0.6739501953125,0.6851806640625,2.197265625,-0.9155272841453552,1.8310545682907104
269795,-0.0096435546875,-0.681884765625,0.68310546875,2.3193359375,-1.03759765625,1.8310545682907104
269811,-0.0120849609375,-0.6776123046875,0.6697998046875,2.25830078125,-1.03759765625,1.7089842557907104
269827,-0.0123291015625,-0.6722412109375,0.66015625,1.8310545682907104,-1.0986328125,1.5869139432907104
269843,-0.01220703125,-0.65185546875,0.6368408203125,0.9765624403953552,-1.2817381620407104,1.5869139432907104
269859,-0.012939453125,-0.635986328125,0.6195068359375,0.54931640625,-1.220703125,1.6479490995407104
269888,-0.0150146484375,-0.624755859375,0.5985107421875,-1.220703125,-0.54931640625,2.25830078125
269909,-0.016357421875,-0.6407470703125,0.6190185546875,-2.3193359375,-0.2441406100988388,2.38037109375
269926,-0.0172119140625,-0.6544189453125,0.6417236328125,-2.685546636581421,-0.2441406100988388,2.38037109375
269943,-0.0159912109375,-0.652587890625,0.6483154296875,-3.295898199081421,-0.4882812201976776,2.197265625
269960,-0.0142822265625,-0.623779296875,0.6214599609375,-4.08935546875,-0.6103515625,2.25830078125
269976,-0.0177001953125,-0.6119384765625,0.596923828125,-5.187987804412842,0.0610351525247097,2.868652105331421
270008,-0.02099609375,-0.673095703125,0.66162109375,-6.103515148162842,0.6103515625,3.295898199081421
270030,-0.0186767578125,-0.6878662109375,0.696044921875,-6.103515148162842,0.0610351525247097,2.746581792831421
270046,-0.0211181640625,-0.6339111328125,0.6434326171875,-6.103515148162842,-0.2441406100988388,2.44140625
270063,-0.02294921875,-0.596923828125,0.5968017578125,-6.347655773162842,-0.1831054538488388,2.624511480331421
270080,-0.0228271484375,-0.559326171875,0.540283203125,-7.324218273162842,1.03759765625,3.723144292831421
270096,-0.01904296875,-0.6048583984375,0.586181640625,-7.934569835662842,1.7089842557907104,4.21142578125
270129,-0.0069580078125,-0.6529541015625,0.678466796875,-8.544921875,1.5869139432907104,3.845214605331421
270146,-0.002685546875,-0.618408203125,0.662109375,-8.30078125,1.15966796875,3.601073980331421
270162,-0.001708984375,-0.59765625,0.6392822265625,-8.23974609375,1.2817381620407104,3.723144292831421
270178,0.0003662109375,-0.594482421875,0.6375732421875,-8.23974609375,1.9531248807907104,4.39453125
270198,0.006103515625,-0.649169921875,0.7083740234375,-7.873534679412842,2.3193359375,4.638671875
270220,0.0177001953125,-0.6986083984375,0.832275390625,-6.713866710662842,1.8920897245407104,4.150390625
270236,0.0277099609375,-0.71630859375,0.90673828125,-5.676269054412842,1.03759765625,3.540038824081421
270253,0.02880859375,-0.680908203125,0.884521484375,-3.479003667831421,-1.15966796875,2.25830078125
270270,0.020263671875,-0.5870361328125,0.7591552734375,-2.0751953125,-1.6479490995407104,2.44140625
270303,0.0162353515625,-0.5987548828125,0.724853515625,-1.4038084745407104,-1.5258787870407104,3.112792730331421
270320,0.0164794921875,-0.6207275390625,0.717041015625,-1.03759765625,-1.7700194120407104,2.868652105331421
270336,0.02099609375,-0.6690673828125,0.7520751953125,-0.1220703050494194,-1.5869139432907104,2.685546636581421
270368,0.013671875,-0.6922607421875,0.82177734375,2.563476324081421,-2.868652105331421,1.15966796875
270389,0.0009765625,-0.6417236328125,0.7764892578125,4.638671875,-3.540038824081421,1.03759765625
270405,-0.00537109375,-0.634765625,0.735595703125,5.310058116912842,-3.540038824081421,1.220703125
270422,-0.006591796875,-0.6396484375,0.71044921875,5.798339366912842,-3.417968511581421,1.5258787870407104
270439,-0.008544921875,-0.6512451171875,0.68115234375,5.737304210662842,-2.990722417831421,1.5869139432907104
270455,-0.0006103515625,-0.6964111328125,0.75146484375,5.615233898162842,-2.0751953125,1.8920897245407104
270489,0.005615234375,-0.724365234375,0.82470703125,7.019042491912842,-2.807616949081421,1.220703125
270505,-0.0008544921875,-0.6907958984375,0.7840576171875,7.629394054412842,-3.417968511581421,1.03759765625
270521,-0.006591796875,-0.6759033203125,0.744140625,7.629394054412842,-3.173827886581421,1.2817381620407104
270557,-0.01708984375,-0.710205078125,0.743408203125,6.713866710662842,-1.6479490995407104,2.3193359375
270573,-0.01416015625,-0.7257080078125,0.7646484375,6.774901866912842,-1.7089842557907104,2.13623046875
270589,-0.0093994140625,-0.7044677734375,0.7535400390625,6.896972179412842,-1.7700194120407104,1.8920897245407104
270605,-0.0054931640625,-0.681884765625,0.7178955078125,6.774901866912842,-1.4038084745407104,2.25830078125
270622,-0.005126953125,-0.6790771484375,0.701904296875,6.408690929412842,-1.03759765625,2.563476324081421
270643,-0.0047607421875,-0.6910400390625,0.70556640625,5.554198741912842,-0.30517578125,2.990722417831421
270659,-0.007080078125,-0.7012939453125,0.728759765625,5.187987804412842,-0.0610351525247097,2.929687261581421
270676,-0.004638671875,-0.7213134765625,0.765869140625,4.82177734375,0.0610351525247097,2.868652105331421
270693,-0.0037841796875,-0.723388671875,0.770751953125,4.7607421875,-0.2441406100988388,2.685546636581421
270726,0.002197265625,-0.7734375,0.809814453125,5.371093273162842,-0.0610351525247097,2.50244140625
270743,0.000244140625,-0.7899169921875,0.8211669921875,5.615233898162842,-0.3662109076976776,2.0751953125
270759,-0.0059814453125,-0.772216796875,0.7991943359375,6.042479991912842,-0.7934569716453552,1.3427733182907104
270791,-0.0087890625,-0.7276611328125,0.7369384765625,5.859374523162842,-0.2441406100988388,1.7089842557907104
270807,-0.0076904296875,-0.744873046875,0.752685546875,5.615233898162842,0.4272460639476776,2.13623046875
270823,-0.0087890625,-0.7554931640625,0.76318359375,5.737304210662842,0.6103515625,2.13623046875
270839,-0.009033203125,-0.7685546875,0.788818359375,6.591796398162842,0.6103515625,1.9531248807907104
270864,-0.0064697265625,-0.7415771484375,0.7633056640625,7.141112804412842,0.6713866591453552,1.8920897245407104
270880,0.003662109375,-0.7322998046875,0.7552490234375,7.263183116912842,1.03759765625,2.197265625
270897,0.013427734375,-0.75439453125,0.766845703125,7.141112804412842,1.5869139432907104,2.685546636581421
270914,0.017578125,-0.772216796875,0.7725830078125,6.896972179412842,1.7089842557907104,2.685546636581421
270930,0.0224609375,-0.778076171875,0.7763671875,6.835937023162842,1.6479490995407104,2.38037109375
270964,0.029541015625,-0.7421875,0.776123046875,6.835937023162842,1.9531248807907104,2.01416015625
270981,0.030517578125,-0.7760009765625,0.8046875,7.080077648162842,1.8920897245407104,2.13623046875
271002,0.027587890625,-0.82666015625,0.8323974609375,7.324218273162842,1.3427733182907104,1.3427733182907104
271018,0.0216064453125,-0.8135986328125,0.8140869140625,7.446288585662842,0.9765624403953552,0.7324218153953552
271035,0.02001953125,-0.7969970703125,0.7984619140625,7.812499523162842,0.6103515625,-0.0610351525247097
271052,0.0198974609375,-0.7750244140625,0.788818359375,7.934569835662842,0.6103515625,-0.30517578125
271085,0.0198974609375,-0.808349609375,0.803466796875,8.11767578125,0.30517578125,-1.0986328125
271102,0.015625,-0.8302001953125,0.8355712890625,8.85009765625,-0.1831054538488388,-2.01416015625
271118,0.008544921875,-0.8221435546875,0.831298828125,9.521484375,-0.7324218153953552,-2.929687261581421
271150,-0.00244140625,-0.8082275390625,0.807373046875,9.21630859375,-0.7324218153953552,-2.990722417831421
271218,-0.00732421875,-0.7489013671875,0.7249755859375,4.82177734375,0.30517578125,-2.13623046875
271240,-0.0047607421875,-0.7506103515625,0.7264404296875,3.723144292831421,0.30517578125,-1.8920897245407104
271256,-0.0035400390625,-0.7452392578125,0.710693359375,1.4648436307907104,0.54931640625,-1.4648436307907104
271273,-0.00537109375,-0.7420654296875,0.7078857421875,-0.3662109076976776,1.0986328125,-0.9155272841453552
271290,-0.0010986328125,-0.763916015625,0.7412109375,-1.03759765625,1.2817381620407104,-0.6713866591453552
271323,0.009765625,-0.754150390625,0.7314453125,-3.601073980331421,0.9765624403953552,-0.54931640625
271340,0.0126953125,-0.73828125,0.7041015625,-5.310058116912842,1.3427733182907104,-0.0610351525247097
271356,0.011962890625,-0.7386474609375,0.6966552734375,-6.164550304412842,1.5869139432907104,0.2441406100988388
271420,0.0189208984375,-0.720458984375,0.7083740234375,-11.291502952575684,2.0751953125,0.7324218153953552
271462,0.01513671875,-0.72705078125,0.7044677734375,-12.207030296325684,2.746581792831421,1.4038084745407104
271479,0.016357421875,-0.72705078125,0.7083740234375,-12.268065452575684,2.746581792831421,1.2817381620407104
271516,0.017578125,-0.6934814453125,0.693115234375,-11.535643577575684,3.356933355331421,1.7700194120407104
271549,0.0191650390625,-0.72705078125,0.7498779296875,-9.6435546875,3.051757574081421,1.220703125
271581,0.021728515625,-0.700927734375,0.758056640625,-8.23974609375,2.807616949081421,0.9155272841453552
271598,0.022216796875,-0.7021484375,0.7633056640625,-6.469726085662842,2.624511480331421,0.9765624403953552
271635,0.0487060546875,-0.897705078125,0.99853515625,-4.82177734375,1.220703125,0.0610351525247097
271652,0.0848388671875,-1.035888671875,1.1630859375,-8.97216796875,-3.234863042831421,-3.845214605331421
271668,0.0172119140625,-0.6136474609375,0.6802978515625,-8.1787109375,-3.906249761581421,-4.39453125
271685,0.007568359375,-0.6297607421875,0.67919921875,-6.530761241912842,-3.417968511581421,-3.479003667831421
271702,0.0115966796875,-0.6641845703125,0.74560546875,-5.615233898162842,-3.906249761581421,-3.967284917831421
271727,0.0029296875,-0.63720703125,0.7166748046875,-3.234863042831421,-3.906249761581421,-3.845214605331421
271747,-0.0203857421875,-0.532958984375,0.6385498046875,0.54931640625,-1.7089842557907104,-1.220703125
271768,-0.007080078125,-0.5523681640625,0.624755859375,4.150390625,1.5869139432907104,2.25830078125
271788,0.0135498046875,-0.6241455078125,0.689208984375,4.21142578125,1.3427733182907104,2.13623046875
271808,0.009765625,-0.60888671875,0.6732177734375,6.042479991912842,0.7324218153953552,1.4648436307907104
271824,0.0111083984375,-0.6072998046875,0.6588134765625,7.141112804412842,1.0986328125,1.7700194120407104
271841,0.031494140625,-1.0023193359375,1.0909423828125,6.042479991912842,-0.1831054538488388,0.6103515625
271878,0.0008544921875,-0.517578125,0.5543212890625,3.723144292831421,-2.01416015625,-1.5869139432907104
271894,-0.0118408203125,-0.532470703125,0.5772705078125,6.164550304412842,0.8544921278953552,1.220703125
271911,0.0294189453125,-0.9027099609375,0.9500732421875,6.408690929412842,-1.0986328125,-0.54931640625
