tMillis,ax,ay,az,gx,gy,gz
8731,0.03125,0.0206298828125,1.02099609375,0.7934569716453552,-0.1831054538488388,0.3662109076976776
8752,0.0308837890625,0.019287109375,1.01611328125,0.7934569716453552,-0.1220703050494194,0.30517578125
8767,0.032470703125,0.0205078125,1.048583984375,0.7934569716453552,-0.1220703050494194,0.30517578125
8784,0.033447265625,0.0201416015625,1.0501708984375,0.7934569716453552,-0.1831054538488388,0.30517578125
8805,0.0302734375,0.0186767578125,1.0035400390625,0.7934569716453552,-0.1220703050494194,0.2441406100988388
8825,0.02880859375,0.02099609375,1.024169921875,0.7934569716453552,-0.1220703050494194,0.3662109076976776
8842,0.0347900390625,0.0196533203125,1.02783203125,0.8544921278953552,-0.2441406100988388,0.30517578125
8861,0.0323486328125,0.0189208984375,1.025634765625,0.9155272841453552,-0.1831054538488388,0.3662109076976776
8885,0.03076171875,0.01904296875,1.02587890625,0.8544921278953552,-0.1220703050494194,0.3662109076976776
8902,0.03271484375,0.0206298828125,1.02392578125,0.8544921278953552,-0.1220703050494194,0.3662109076976776
8919,0.03271484375,0.02001953125,1.030029296875,0.8544921278953552,-0.1220703050494194,0.30517578125
8935,0.03271484375,0.01904296875,1.0260009765625,0.9155272841453552,-0.1220703050494194,0.30517578125
8953,0.03125,0.0191650390625,1.025634765625,0.9155272841453552,-0.2441406100988388,0.30517578125
8971,0.03076171875,0.0181884765625,1.02294921875,0.8544921278953552,-0.1831054538488388,0.2441406100988388
8989,0.032470703125,0.019775390625,1.025390625,0.9155272841453552,-0.1220703050494194,0.30517578125
9013,0.031982421875,0.0198974609375,1.030517578125,1.03759765625,-0.1831054538488388,0.3662109076976776
9030,0.0313720703125,0.019775390625,1.026123046875,0.9765624403953552,-0.1831054538488388,0.30517578125
9047,0.031494140625,0.0194091796875,1.0255126953125,0.9765624403953552,-0.2441406100988388,0.30517578125
9066,0.0318603515625,0.0184326171875,1.0211181640625,0.9155272841453552,-0.1220703050494194,0.2441406100988388
9086,0.031005859375,0.0191650390625,1.0269775390625,0.9765624403953552,-0.1831054538488388,0.2441406100988388
9106,0.0321044921875,0.018310546875,1.0281982421875,1.03759765625,-0.2441406100988388,0.3662109076976776
9125,0.0330810546875,0.0181884765625,1.02294921875,0.9765624403953552,-0.2441406100988388,0.30517578125
9148,0.0321044921875,0.019287109375,1.023681640625,1.03759765625,-0.1831054538488388,0.30517578125
9164,0.03271484375,0.01953125,1.025634765625,1.03759765625,-0.1831054538488388,0.2441406100988388
9179,0.0330810546875,0.0185546875,1.0267333984375,0.9765624403953552,-0.1831054538488388,0.30517578125
9196,0.033203125,0.0179443359375,1.0274658203125,0.9765624403953552,-0.1831054538488388,0.3662109076976776
9215,0.0325927734375,0.0169677734375,1.0294189453125,0.9765624403953552,-0.1831054538488388,0.30517578125
9234,0.031494140625,0.017822265625,1.024169921875,0.9765624403953552,-0.2441406100988388,0.3662109076976776
9255,0.03173828125,0.018310546875,1.0262451171875,0.9765624403953552,-0.2441406100988388,0.3662109076976776
9276,0.0328369140625,0.0172119140625,1.0269775390625,0.9765624403953552,-0.2441406100988388,0.2441406100988388
9293,0.0325927734375,0.016845703125,1.0230712890625,0.9765624403953552,-0.2441406100988388,0.2441406100988388
9310,0.031494140625,0.01806640625,1.0267333984375,0.9765624403953552,-0.2441406100988388,0.30517578125
9330,0.0325927734375,0.0166015625,1.0255126953125,0.9155272841453552,-0.1831054538488388,0.30517578125
9348,0.0321044921875,0.0167236328125,1.0242919921875,0.9155272841453552,-0.1831054538488388,0.3662109076976776
9368,0.0316162109375,0.0174560546875,1.02392578125,0.9155272841453552,-0.1831054538488388,0.30517578125
9387,0.0316162109375,0.017333984375,1.026611328125,0.9155272841453552,-0.1831054538488388,0.2441406100988388
9403,0.031494140625,0.01611328125,1.0244140625,0.8544921278953552,-0.2441406100988388,0.2441406100988388
9423,0.0313720703125,0.0166015625,1.027587890625,0.8544921278953552,-0.2441406100988388,0.2441406100988388
9440,0.031982421875,0.0177001953125,1.027099609375,0.7934569716453552,-0.2441406100988388,0.2441406100988388
9458,0.031982421875,0.017822265625,1.025146484375,0.7934569716453552,-0.30517578125,0.30517578125
9478,0.03125,0.0172119140625,1.023681640625,0.7324218153953552,-0.2441406100988388,0.3662109076976776
9498,0.0321044921875,0.016357421875,1.0267333984375,0.7934569716453552,-0.1831054538488388,0.30517578125
9521,0.0316162109375,0.0167236328125,1.025390625,0.7324218153953552,-0.2441406100988388,0.30517578125
9537,0.033447265625,0.017578125,1.0252685546875,0.7324218153953552,-0.2441406100988388,0.3662109076976776
9554,0.0322265625,0.0166015625,1.0255126953125,0.6713866591453552,-0.2441406100988388,0.4272460639476776
9571,0.031005859375,0.0174560546875,1.025634765625,0.6713866591453552,-0.2441406100988388,0.3662109076976776
9590,0.03125,0.0166015625,1.02587890625,0.6713866591453552,-0.1831054538488388,0.30517578125
9608,0.0316162109375,0.0169677734375,1.0263671875,0.6713866591453552,-0.1831054538488388,0.30517578125
9625,0.0318603515625,0.0181884765625,1.02783203125,0.6713866591453552,-0.1220703050494194,0.2441406100988388
9645,0.03173828125,0.017822265625,1.0225830078125,0.4882812201976776,0.1220703050494194,0.4882812201976776
9668,0.03125,0.0177001953125,1.02490234375,0.2441406100988388,0.2441406100988388,0.4272460639476776
9684,0.033447265625,0.0164794921875,1.0267333984375,0.2441406100988388,0.1220703050494194,0.2441406100988388
9701,0.0325927734375,0.0177001953125,1.024169921875,0.4272460639476776,-0.1220703050494194,0.0
9721,0.032470703125,0.017822265625,1.025146484375,0.6103515625,-0.2441406100988388,0.0
9749,0.0318603515625,0.0196533203125,1.0272216796875,1.03759765625,-0.4882812201976776,0.4882812201976776
9761,0.032470703125,0.016845703125,1.0235595703125,1.15966796875,-0.6103515625,0.6713866591453552
9778,0.03271484375,0.01708984375,1.0252685546875,1.15966796875,-0.6103515625,0.7324218153953552
9797,0.0308837890625,0.0169677734375,1.0267333984375,1.0986328125,-0.54931640625,0.6713866591453552
9815,0.030029296875,0.0203857421875,1.0235595703125,1.15966796875,-0.54931640625,0.9155272841453552
9838,0.0303955078125,0.0208740234375,1.02587890625,1.3427733182907104,-0.3662109076976776,1.7089842557907104
9855,0.0311279296875,0.0184326171875,1.0264892578125,1.4038084745407104,-0.30517578125,1.6479490995407104
9872,0.029541015625,0.018798828125,1.0235595703125,1.4648436307907104,-0.2441406100988388,1.7089842557907104
9889,0.02783203125,0.0216064453125,1.0220947265625,2.0751953125,0.0610351525247097,4.150390625
9905,-0.0361328125,0.053466796875,1.0220947265625,7.141112804412842,1.2817381620407104,13.549803733825684
9926,0.08740234375,-0.0277099609375,1.0291748046875,5.126952648162842,0.30517578125,4.69970703125
9943,-0.0247802734375,0.015869140625,1.02783203125,4.45556640625,-0.30517578125,-0.6103515625
9964,-0.0347900390625,0.0191650390625,1.0272216796875,5.432128429412842,-0.30517578125,-1.220703125
9984,0.110107421875,-0.0006103515625,1.02197265625,4.08935546875,-0.1220703050494194,-2.0751953125
10000,0.073486328125,0.00830078125,1.02490234375,0.8544921278953552,0.1831054538488388,-1.4648436307907104
10017,0.02490234375,0.01171875,1.028564453125,0.4882812201976776,0.4882812201976776,0.1220703050494194
10034,0.0299072265625,0.0081787109375,1.024658203125,0.4882812201976776,0.54931640625,0.4272460639476776
10050,0.031982421875,0.0074462890625,1.024658203125,0.54931640625,0.4272460639476776,0.4882812201976776
10067,0.0345458984375,0.0087890625,1.0250244140625,0.2441406100988388,0.6103515625,0.30517578125
10097,0.0328369140625,0.011474609375,1.0247802734375,0.30517578125,0.6713866591453552,1.03759765625
10118,0.031494140625,0.01025390625,1.025390625,0.6103515625,0.3662109076976776,0.9155272841453552
10135,0.034912109375,0.0084228515625,1.0252685546875,0.6103515625,0.1220703050494194,0.6713866591453552
10152,0.0364990234375,0.0074462890625,1.0242919921875,0.3662109076976776,0.0,0.1831054538488388
10171,0.0357666015625,0.0093994140625,1.025146484375,-0.1831054538488388,0.1220703050494194,-0.4882812201976776
10187,0.033203125,0.01025390625,1.02490234375,-0.2441406100988388,0.1831054538488388,-0.54931640625
10217,0.033935546875,0.0103759765625,1.025146484375,-0.0610351525247097,0.2441406100988388,0.54931640625
10238,0.0357666015625,0.01025390625,1.026123046875,0.2441406100988388,0.0,0.6713866591453552
10255,0.0343017578125,0.010009765625,1.025634765625,0.6103515625,-0.4272460639476776,0.4882812201976776
10272,0.03369140625,0.0106201171875,1.0257568359375,1.4648436307907104,-1.03759765625,-0.0610351525247097
10288,0.0325927734375,0.0106201171875,1.024169921875,1.7089842557907104,-1.15966796875,0.0
10338,0.032958984375,0.0118408203125,1.024169921875,0.6713866591453552,-0.54931640625,0.30517578125
10360,0.03271484375,0.010986328125,1.02490234375,0.3662109076976776,-0.1831054538488388,0.3662109076976776
10376,0.0328369140625,0.0103759765625,1.0252685546875,0.4272460639476776,-0.1831054538488388,0.30517578125
10393,0.0343017578125,0.010986328125,1.0277099609375,0.54931640625,-0.3662109076976776,0.1220703050494194
10410,0.0341796875,0.011474609375,1.02587890625,0.54931640625,-0.3662109076976776,0.1220703050494194
10426,0.0333251953125,0.0113525390625,1.0238037109375,0.54931640625,-0.30517578125,0.1831054538488388
10460,0.033447265625,0.0125732421875,1.027099609375,0.4272460639476776,0.1220703050494194,0.7324218153953552
10476,0.034423828125,0.0120849609375,1.0262451171875,0.6713866591453552,-0.1831054538488388,0.7934569716453552
10493,0.034423828125,0.0125732421875,1.025634765625,0.8544921278953552,-0.4272460639476776,0.6103515625
10514,0.0347900390625,0.012451171875,1.0252685546875,1.220703125,-0.8544921278953552,0.2441406100988388
10584,0.03466796875,0.0113525390625,1.0264892578125,0.9765624403953552,-0.4882812201976776,-0.30517578125
10601,0.033447265625,0.0120849609375,1.025634765625,0.8544921278953552,-0.4272460639476776,-0.4272460639476776
10618,0.029052734375,0.0133056640625,1.026611328125,1.0986328125,-0.6713866591453552,-0.0610351525247097
10637,0.0299072265625,0.011962890625,1.0255126953125,1.220703125,-0.6713866591453552,0.4882812201976776
10658,0.0345458984375,0.01318359375,1.025390625,1.15966796875,-0.54931640625,0.6103515625
10674,0.034912109375,0.0120849609375,1.028076171875,1.0986328125,-0.3662109076976776,0.7324218153953552
10691,0.0335693359375,0.011962890625,1.0281982421875,1.03759765625,-0.1220703050494194,1.0986328125
10708,0.02978515625,0.0118408203125,1.0252685546875,1.03759765625,-0.1831054538488388,1.220703125
10758,0.034912109375,0.0115966796875,1.027099609375,1.220703125,-0.4272460639476776,0.4272460639476776
10774,0.0308837890625,0.0125732421875,1.0240478515625,1.03759765625,-0.30517578125,0.30517578125
10796,0.029296875,0.0128173828125,1.0238037109375,1.0986328125,-0.30517578125,0.2441406100988388
10812,0.03173828125,0.01123046875,1.02880859375,1.15966796875,-0.1831054538488388,0.4272460639476776
10829,0.0345458984375,0.010986328125,1.02490234375,1.0986328125,0.0610351525247097,0.7324218153953552
10846,0.0323486328125,0.010498046875,1.026611328125,0.9155272841453552,0.1831054538488388,0.7324218153953552
10879,0.0303955078125,0.0101318359375,1.0264892578125,0.9765624403953552,-0.0610351525247097,0.1831054538488388
10896,0.03076171875,0.0098876953125,1.0264892578125,1.15966796875,-0.3662109076976776,0.1831054538488388
10912,0.031494140625,0.0101318359375,1.0260009765625,1.15966796875,-0.3662109076976776,0.1831054538488388
10934,0.03271484375,0.0130615234375,1.0242919921875,0.7934569716453552,-0.2441406100988388,0.30517578125
10950,0.0313720703125,0.009521484375,1.0250244140625,0.2441406100988388,0.0610351525247097,0.2441406100988388
10967,0.033447265625,0.0111083984375,1.0262451171875,-0.1220703050494194,0.1220703050494194,0.1831054538488388
11004,0.03173828125,0.01171875,1.0277099609375,2.50244140625,-0.4272460639476776,0.0610351525247097
11021,0.0330810546875,0.0113525390625,1.028564453125,2.563476324081421,-0.3662109076976776,-0.0610351525247097
11038,0.0340576171875,0.0087890625,1.02685546875,1.5869139432907104,-0.30517578125,0.0610351525247097
11054,0.0296630859375,0.0103759765625,1.0240478515625,1.0986328125,-0.1831054538488388,0.0610351525247097
11078,0.0274658203125,0.011474609375,1.02587890625,1.4038084745407104,-0.0610351525247097,0.2441406100988388
11094,0.028564453125,0.0125732421875,1.0255126953125,3.356933355331421,-0.2441406100988388,0.4272460639476776
11108,0.0330810546875,0.00830078125,1.0269775390625,2.746581792831421,-0.30517578125,0.54931640625
11128,0.033203125,0.010498046875,1.025634765625,2.624511480331421,-0.30517578125,0.54931640625
11145,0.029296875,0.0020751953125,1.0257568359375,4.0283203125,-0.6103515625,0.30517578125
11206,0.029052734375,0.0089111328125,1.0267333984375,1.15966796875,-0.1220703050494194,-0.4272460639476776
11248,0.0328369140625,0.0015869140625,1.0286865234375,0.4272460639476776,0.2441406100988388,0.1220703050494194
11265,0.0340576171875,0.0006103515625,1.029296875,-0.7934569716453552,0.1831054538488388,0.30517578125
11295,0.030029296875,0.0068359375,1.0260009765625,-0.30517578125,0.1220703050494194,0.1220703050494194
11311,0.02734375,-0.0042724609375,1.0281982421875,1.3427733182907104,-0.6713866591453552,-2.563476324081421
11328,0.0264892578125,0.0006103515625,1.0235595703125,1.4038084745407104,-1.220703125,-6.530761241912842
11360,0.0115966796875,0.0013427734375,1.028564453125,-5.0048828125,-0.9765624403953552,-12.207030296325684
11397,0.07666015625,0.0357666015625,1.0257568359375,-0.1220703050494194,-0.1220703050494194,-0.6713866591453552
11433,-0.07470703125,0.0289306640625,1.0294189453125,-3.234863042831421,0.30517578125,-0.30517578125
11450,0.06201171875,0.0072021484375,1.0308837890625,-0.4272460639476776,-0.1831054538488388,0.2441406100988388
11467,0.029541015625,0.0150146484375,1.0242919921875,1.0986328125,-0.3662109076976776,-0.6713866591453552
11484,0.0177001953125,0.0211181640625,1.0262451171875,0.1831054538488388,-0.2441406100988388,-0.1220703050494194
11500,0.0255126953125,0.0167236328125,1.0255126953125,1.4648436307907104,-0.2441406100988388,0.4882812201976776
11531,0.0303955078125,0.0087890625,1.0252685546875,0.1831054538488388,-0.0610351525247097,0.3662109076976776
11555,0.036865234375,0.013916015625,1.025634765625,2.197265625,-0.1831054538488388,0.30517578125
11571,0.030029296875,0.0123291015625,1.0228271484375,3.234863042831421,-0.2441406100988388,0.30517578125
11588,0.0301513671875,0.0128173828125,1.0252685546875,1.220703125,0.0,0.4272460639476776
11607,0.0340576171875,0.0157470703125,1.027587890625,-0.0610351525247097,-0.0610351525247097,0.4272460639476776
11624,0.033447265625,0.0087890625,1.0242919921875,0.7324218153953552,-0.1831054538488388,0.30517578125
11657,0.0302734375,0.014404296875,1.02587890625,0.6103515625,-0.1831054538488388,0.30517578125
11678,0.0323486328125,0.0147705078125,1.0260009765625,0.6103515625,-0.1220703050494194,0.3662109076976776
11694,0.032470703125,0.0118408203125,1.0269775390625,0.6713866591453552,-0.1831054538488388,0.4272460639476776
11711,0.0301513671875,0.00732421875,1.02685546875,0.6103515625,-0.1220703050494194,0.4272460639476776
11728,0.029541015625,0.0108642578125,1.02783203125,0.4882812201976776,-0.1220703050494194,0.30517578125
11744,0.0306396484375,0.0126953125,1.0279541015625,0.54931640625,-0.1220703050494194,0.30517578125
11777,0.0306396484375,0.011962890625,1.0242919921875,0.6713866591453552,-0.2441406100988388,0.4272460639476776
11798,0.0303955078125,0.010498046875,1.02685546875,0.6103515625,-0.1220703050494194,0.3662109076976776
11814,0.031982421875,0.0106201171875,1.0269775390625,0.6713866591453552,-0.1831054538488388,0.3662109076976776
11826,0.03271484375,0.01318359375,1.02685546875,0.7324218153953552,-0.2441406100988388,0.3662109076976776
11845,0.0321044921875,0.0145263671875,1.0260009765625,0.7324218153953552,-0.1831054538488388,0.3662109076976776
11862,0.03125,0.01318359375,1.026123046875,0.7324218153953552,-0.2441406100988388,0.4272460639476776
11878,0.0306396484375,0.0115966796875,1.0252685546875,0.7934569716453552,-0.1831054538488388,0.30517578125
11895,0.030517578125,0.0107421875,1.0244140625,0.7934569716453552,-0.1220703050494194,0.30517578125
11912,0.0316162109375,0.011962890625,1.026611328125,0.7324218153953552,-0.1831054538488388,0.4272460639476776
11933,0.0311279296875,0.0137939453125,1.0269775390625,0.7934569716453552,-0.1831054538488388,0.3662109076976776
11949,0.03125,0.0120849609375,1.0260009765625,0.7934569716453552,-0.1831054538488388,0.3662109076976776
12016,0.0321044921875,0.013916015625,1.0296630859375,0.9155272841453552,-0.1831054538488388,0.3662109076976776
12032,0.031982421875,0.0120849609375,1.0245361328125,0.8544921278953552,-0.1831054538488388,0.4272460639476776
12049,0.0301513671875,0.01123046875,1.0218505859375,0.9155272841453552,-0.1831054538488388,0.4272460639476776
12067,0.0299072265625,0.0115966796875,1.0216064453125,0.8544921278953552,-0.1831054538488388,0.3662109076976776
12087,0.0318603515625,0.0126953125,1.0279541015625,0.7934569716453552,-0.1831054538488388,0.3662109076976776
12103,0.032470703125,0.0126953125,1.025390625,0.8544921278953552,-0.1831054538488388,0.4272460639476776
12136,0.0316162109375,0.0108642578125,1.024658203125,0.8544921278953552,-0.1220703050494194,0.3662109076976776
12153,0.033203125,0.01220703125,1.0267333984375,0.7934569716453552,-0.1220703050494194,0.30517578125
12170,0.0311279296875,0.0111083984375,1.023193359375,0.8544921278953552,-0.1220703050494194,0.3662109076976776
12212,0.0306396484375,0.01123046875,1.026123046875,0.8544921278953552,-0.2441406100988388,0.3662109076976776
12228,0.0323486328125,0.0107421875,1.025146484375,0.9155272841453552,-0.2441406100988388,0.4272460639476776
12245,0.0321044921875,0.010498046875,1.0283203125,0.7934569716453552,-0.1831054538488388,0.3662109076976776
12264,0.0303955078125,0.011474609375,1.02587890625,0.7934569716453552,-0.1831054538488388,0.4272460639476776
12280,0.0311279296875,0.01171875,1.0203857421875,0.7934569716453552,-0.1831054538488388,0.4272460639476776
12313,0.0318603515625,0.0111083984375,1.028564453125,0.7324218153953552,-0.1831054538488388,0.30517578125
12333,0.03125,0.0128173828125,1.0220947265625,0.7324218153953552,-0.1831054538488388,0.4272460639476776
12354,0.0313720703125,0.011474609375,1.0252685546875,0.7324218153953552,-0.1831054538488388,0.4272460639476776
12370,0.0323486328125,0.0103759765625,1.0301513671875,0.7324218153953552,-0.2441406100988388,0.3662109076976776
12388,0.0325927734375,0.01025390625,1.026123046875,0.7324218153953552,-0.1831054538488388,0.4272460639476776
12405,0.031494140625,0.011962890625,1.02392578125,0.6713866591453552,-0.2441406100988388,0.3662109076976776
12438,0.0301513671875,0.0123291015625,1.033447265625,0.6713866591453552,-0.2441406100988388,0.4272460639476776
12455,0.030517578125,0.011474609375,1.017578125,0.6713866591453552,-0.2441406100988388,0.3662109076976776
12471,0.0325927734375,0.0118408203125,1.0234375,0.6103515625,-0.2441406100988388,0.3662109076976776
12488,0.03271484375,0.01171875,1.027587890625,0.6103515625,-0.2441406100988388,0.3662109076976776
12512,0.0303955078125,0.011962890625,1.0301513671875,0.6713866591453552,-0.2441406100988388,0.3662109076976776
12529,0.0313720703125,0.0115966796875,1.0255126953125,0.7324218153953552,-0.2441406100988388,0.3662109076976776
12546,0.033447265625,0.0113525390625,1.028076171875,0.6713866591453552,-0.30517578125,0.30517578125
12566,0.0318603515625,0.012451171875,1.0283203125,0.6103515625,-0.3662109076976776,0.4272460639476776
12583,0.0299072265625,0.0130615234375,1.0240478515625,0.6103515625,-0.30517578125,0.4272460639476776
12599,0.030517578125,0.0123291015625,1.0224609375,0.6103515625,-0.30517578125,0.3662109076976776
12616,0.0311279296875,0.011474609375,1.02294921875,0.4882812201976776,-0.2441406100988388,0.3662109076976776
12632,0.03076171875,0.0120849609375,1.0230712890625,0.4882812201976776,-0.1220703050494194,0.4272460639476776
12648,0.0299072265625,0.0135498046875,1.023193359375,0.4882812201976776,-0.1831054538488388,0.4272460639476776
12683,0.03125,0.0120849609375,1.026611328125,0.4272460639476776,-0.2441406100988388,0.30517578125
12699,0.0303955078125,0.0128173828125,1.0247802734375,0.4272460639476776,-0.1220703050494194,0.30517578125
12716,0.0302734375,0.013916015625,1.027587890625,0.3662109076976776,-0.1831054538488388,0.4272460639476776
12732,0.03076171875,0.0133056640625,1.0262451171875,0.3662109076976776,-0.1831054538488388,0.4272460639476776
12751,0.030517578125,0.0123291015625,1.02392578125,0.3662109076976776,-0.1831054538488388,0.3662109076976776
12768,0.0302734375,0.0130615234375,1.02392578125,0.30517578125,-0.1220703050494194,0.3662109076976776
12806,0.030517578125,0.0146484375,1.02587890625,0.3662109076976776,-0.1831054538488388,0.3662109076976776
12822,0.0308837890625,0.015869140625,1.0240478515625,0.3662109076976776,-0.1831054538488388,0.3662109076976776
12834,0.0318603515625,0.015625,1.026123046875,0.30517578125,-0.1831054538488388,0.3662109076976776
12851,0.0322265625,0.015380859375,1.0272216796875,0.3662109076976776,-0.1831054538488388,0.4272460639476776
12870,0.0318603515625,0.014404296875,1.0279541015625,0.4272460639476776,-0.1831054538488388,0.4272460639476776
12886,0.0311279296875,0.01513671875,1.0233154296875,0.4272460639476776,-0.1831054538488388,0.4272460639476776
12920,0.0313720703125,0.015625,1.0250244140625,0.4882812201976776,-0.1220703050494194,0.3662109076976776
12939,0.0311279296875,0.0145263671875,1.0260009765625,0.4882812201976776,-0.1220703050494194,0.3662109076976776
12955,0.03076171875,0.0152587890625,1.02685546875,0.4882812201976776,-0.1831054538488388,0.4272460639476776
12972,0.0308837890625,0.01513671875,1.02490234375,0.54931640625,-0.1831054538488388,0.3662109076976776
12988,0.031005859375,0.0157470703125,1.0245361328125,0.6713866591453552,-0.1831054538488388,0.3662109076976776
13005,0.0322265625,0.015869140625,1.0244140625,0.6103515625,-0.1831054538488388,0.4272460639476776
13037,0.030517578125,0.0150146484375,1.023193359375,0.6103515625,-0.1831054538488388,0.3662109076976776
13059,0.0318603515625,0.015869140625,1.039794921875,0.6713866591453552,-0.1220703050494194,0.3662109076976776
13075,0.0302734375,0.016357421875,1.00830078125,0.6713866591453552,-0.1220703050494194,0.3662109076976776
13092,0.030029296875,0.0167236328125,1.013427734375,0.6713866591453552,-0.1220703050494194,0.4272460639476776
13109,0.0322265625,0.0159912109375,1.02880859375,0.6713866591453552,-0.2441406100988388,0.3662109076976776
13125,0.0328369140625,0.015380859375,1.029052734375,0.7324218153953552,-0.1831054538488388,0.3662109076976776
13158,0.0291748046875,0.013671875,1.023681640625,0.7934569716453552,-0.1220703050494194,0.3662109076976776
13174,0.031982421875,0.0159912109375,1.0311279296875,0.8544921278953552,-0.1831054538488388,0.4272460639476776
13191,0.0318603515625,0.0166015625,1.0296630859375,0.8544921278953552,-0.1831054538488388,0.3662109076976776
13207,0.0311279296875,0.016357421875,1.021240234375,0.9155272841453552,-0.1831054538488388,0.3662109076976776
13225,0.03125,0.0159912109375,1.02880859375,0.9765624403953552,-0.1220703050494194,0.3662109076976776
13242,0.03173828125,0.015625,1.03076171875,1.03759765625,-0.1831054538488388,0.4272460639476776
13275,0.0308837890625,0.0164794921875,1.0286865234375,0.9765624403953552,-0.1831054538488388,0.3662109076976776
13292,0.031982421875,0.0145263671875,1.029296875,0.9765624403953552,-0.2441406100988388,0.3662109076976776
13308,0.0313720703125,0.0145263671875,1.026123046875,0.9765624403953552,-0.2441406100988388,0.3662109076976776
13344,0.0316162109375,0.0155029296875,1.025146484375,0.9155272841453552,-0.1831054538488388,0.30517578125
13356,0.0308837890625,0.015380859375,1.0272216796875,0.9765624403953552,-0.1831054538488388,0.3662109076976776
13372,0.030517578125,0.01513671875,1.0245361328125,0.9765624403953552,-0.1831054538488388,0.4272460639476776
13389,0.0316162109375,0.01416015625,1.024169921875,0.9765624403953552,-0.1831054538488388,0.4272460639476776
13408,0.0325927734375,0.0146484375,1.0230712890625,0.9155272841453552,-0.2441406100988388,0.3662109076976776
13456,0.0302734375,0.01416015625,1.0267333984375,0.8544921278953552,-0.1831054538488388,0.3662109076976776
13478,0.031005859375,0.0142822265625,1.024169921875,0.7934569716453552,-0.1831054538488388,0.3662109076976776
13494,0.0318603515625,0.0150146484375,1.0264892578125,0.8544921278953552,-0.2441406100988388,0.3662109076976776
13506,0.0316162109375,0.014892578125,1.025634765625,0.7934569716453552,-0.2441406100988388,0.3662109076976776
13525,0.0311279296875,0.0145263671875,1.0244140625,0.7934569716453552,-0.2441406100988388,0.3662109076976776
13542,0.0313720703125,0.013916015625,1.0252685546875,0.7324218153953552,-0.1831054538488388,0.3662109076976776
13558,0.0316162109375,0.0140380859375,1.03076171875,0.7324218153953552,-0.1831054538488388,0.4272460639476776
13575,0.0306396484375,0.0147705078125,1.0191650390625,0.7324218153953552,-0.2441406100988388,0.3662109076976776
13592,0.0311279296875,0.015625,1.0228271484375,0.7324218153953552,-0.30517578125,0.3662109076976776
13611,0.0321044921875,0.014892578125,1.02783203125,0.6713866591453552,-0.2441406100988388,0.3662109076976776
13627,0.030029296875,0.014892578125,1.021728515625,0.6713866591453552,-0.2441406100988388,0.3662109076976776
13696,0.031982421875,0.0155029296875,1.025390625,0.6713866591453552,-0.30517578125,0.3662109076976776
13713,0.0318603515625,0.0159912109375,1.0267333984375,0.6713866591453552,-0.30517578125,0.3662109076976776
13734,0.0313720703125,0.01611328125,1.027099609375,0.6713866591453552,-0.2441406100988388,0.3662109076976776
13750,0.0311279296875,0.0159912109375,1.024658203125,0.6713866591453552,-0.1831054538488388,0.3662109076976776
13768,0.030517578125,0.0159912109375,1.0257568359375,0.7324218153953552,-0.2441406100988388,0.3662109076976776
13785,0.0302734375,0.016357421875,1.024169921875,0.7324218153953552,-0.1831054538488388,0.4272460639476776
13816,0.0296630859375,0.0157470703125,1.0260009765625,0.7324218153953552,-0.1831054538488388,0.3662109076976776
13833,0.0301513671875,0.0155029296875,1.025634765625,0.7324218153953552,-0.1831054538488388,0.3662109076976776
13850,0.031005859375,0.014404296875,1.0257568359375,0.7324218153953552,-0.1831054538488388,0.4272460639476776
13871,0.0303955078125,0.0155029296875,1.026611328125,0.7934569716453552,-0.1831054538488388,0.4272460639476776
13887,0.0302734375,0.015380859375,1.0257568359375,0.7934569716453552,-0.1831054538488388,0.4272460639476776
13904,0.0302734375,0.01513671875,1.02392578125,0.7934569716453552,-0.1831054538488388,0.3662109076976776
13937,0.0308837890625,0.014892578125,1.025390625,0.8544921278953552,-0.1831054538488388,0.3662109076976776
13954,0.0322265625,0.01611328125,1.0257568359375,0.8544921278953552,-0.2441406100988388,0.3662109076976776
13971,0.0323486328125,0.0157470703125,1.0250244140625,0.9155272841453552,-0.1831054538488388,0.4272460639476776
13988,0.0311279296875,0.015625,1.0250244140625,0.7934569716453552,-0.1831054538488388,0.3662109076976776
14012,0.031494140625,0.01513671875,1.023193359375,0.8544921278953552,-0.1831054538488388,0.4272460639476776
14029,0.0302734375,0.0162353515625,1.027587890625,0.9155272841453552,-0.2441406100988388,0.4272460639476776
14045,0.0313720703125,0.0157470703125,1.025390625,0.8544921278953552,-0.1831054538488388,0.30517578125
14065,0.0311279296875,0.0146484375,1.025146484375,0.9155272841453552,-0.1831054538488388,0.3662109076976776
14082,0.031005859375,0.015380859375,1.0252685546875,0.9155272841453552,-0.2441406100988388,0.3662109076976776
14098,0.0302734375,0.015380859375,1.0274658203125,0.8544921278953552,-0.1831054538488388,0.3662109076976776
14114,0.0301513671875,0.01513671875,1.027587890625,0.8544921278953552,-0.1831054538488388,0.3662109076976776
14132,0.0322265625,0.0146484375,1.02490234375,0.8544921278953552,-0.1220703050494194,0.3662109076976776
14153,0.03271484375,0.0152587890625,1.02490234375,0.9155272841453552,-0.1831054538488388,0.30517578125
14169,0.0311279296875,0.0150146484375,1.025146484375,0.9155272841453552,-0.1831054538488388,0.30517578125
14183,0.0296630859375,0.0140380859375,1.02783203125,0.9155272841453552,-0.1831054538488388,0.30517578125
14200,0.0302734375,0.0147705078125,1.0274658203125,0.9155272841453552,-0.1831054538488388,0.3662109076976776
14233,0.0313720703125,0.0159912109375,1.0234375,0.8544921278953552,-0.1831054538488388,0.4272460639476776
14251,0.0318603515625,0.0150146484375,1.0260009765625,0.7934569716453552,-0.1831054538488388,0.4272460639476776
14267,0.030029296875,0.0152587890625,1.024658203125,0.7934569716453552,-0.2441406100988388,0.3662109076976776
14288,0.0303955078125,0.014892578125,1.0245361328125,0.7934569716453552,-0.2441406100988388,0.3662109076976776
14307,0.0313720703125,0.013427734375,1.0218505859375,0.7934569716453552,-0.2441406100988388,0.3662109076976776
14323,0.03076171875,0.015625,1.0313720703125,0.7934569716453552,-0.1220703050494194,0.30517578125
14356,0.0302734375,0.01416015625,1.0201416015625,0.7934569716453552,-0.1220703050494194,0.3662109076976776
14373,0.031005859375,0.015625,1.025390625,0.7324218153953552,-0.1220703050494194,0.3662109076976776
14390,0.031494140625,0.0150146484375,1.026123046875,0.7324218153953552,-0.1831054538488388,0.4272460639476776
14432,0.0302734375,0.015625,1.0262451171875,0.7934569716453552,-0.1220703050494194,0.3662109076976776
14448,0.0316162109375,0.0152587890625,1.0267333984375,0.8544921278953552,-0.1220703050494194,0.3662109076976776
14465,0.0322265625,0.0155029296875,1.02783203125,0.7934569716453552,-0.1220703050494194,0.4272460639476776
14486,0.0303955078125,0.0166015625,1.0267333984375,0.8544921278953552,-0.1831054538488388,0.3662109076976776
14502,0.0303955078125,0.0146484375,1.0274658203125,0.8544921278953552,-0.1220703050494194,0.30517578125
14519,0.03125,0.01513671875,1.02392578125,0.8544921278953552,-0.1831054538488388,0.30517578125
14536,0.0313720703125,0.0157470703125,1.02490234375,0.8544921278953552,-0.2441406100988388,0.3662109076976776
14553,0.032470703125,0.0152587890625,1.0277099609375,0.8544921278953552,-0.1831054538488388,0.3662109076976776
14573,0.03125,0.0152587890625,1.0257568359375,0.8544921278953552,-0.1831054538488388,0.3662109076976776
14589,0.03173828125,0.0146484375,1.026123046875,0.8544921278953552,-0.1831054538488388,0.4272460639476776
14608,0.0318603515625,0.0147705078125,1.0267333984375,0.7934569716453552,-0.2441406100988388,0.30517578125
14625,0.0306396484375,0.0147705078125,1.025146484375,0.8544921278953552,-0.1831054538488388,0.3662109076976776
14656,0.03125,0.015625,1.0267333984375,0.8544921278953552,-0.1831054538488388,0.3662109076976776
14672,0.031005859375,0.0157470703125,1.0247802734375,0.9155272841453552,-0.1831054538488388,0.4272460639476776
14693,0.03173828125,0.0147705078125,1.0238037109375,0.8544921278953552,-0.2441406100988388,0.4272460639476776
14709,0.031494140625,0.0147705078125,1.02685546875,0.8544921278953552,-0.30517578125,0.4272460639476776
14723,0.0301513671875,0.015625,1.0323486328125,0.8544921278953552,-0.30517578125,0.3662109076976776
14740,0.029541015625,0.015625,1.028564453125,0.8544921278953552,-0.2441406100988388,0.30517578125
14773,0.033203125,0.0147705078125,1.0242919921875,0.7934569716453552,-0.2441406100988388,0.3662109076976776
14792,0.0318603515625,0.0147705078125,1.0240478515625,0.8544921278953552,-0.2441406100988388,0.30517578125
14808,0.02880859375,0.0147705078125,1.0250244140625,0.8544921278953552,-0.1831054538488388,0.30517578125
14844,0.0318603515625,0.0159912109375,1.0303955078125,0.7324218153953552,-0.2441406100988388,0.3662109076976776
14860,0.0316162109375,0.01513671875,1.0257568359375,0.7934569716453552,-0.2441406100988388,0.3662109076976776
14877,0.0306396484375,0.0147705078125,1.0218505859375,0.7934569716453552,-0.2441406100988388,0.3662109076976776
14894,0.0308837890625,0.015625,1.02099609375,0.7934569716453552,-0.1831054538488388,0.3662109076976776
14910,0.031982421875,0.0152587890625,1.0264892578125,0.7934569716453552,-0.2441406100988388,0.4272460639476776
14926,0.0316162109375,0.0150146484375,1.027099609375,0.7324218153953552,-0.2441406100988388,0.3662109076976776
14958,0.030517578125,0.01513671875,1.0257568359375,0.7324218153953552,-0.1831054538488388,0.4272460639476776
14979,0.031494140625,0.0155029296875,1.0263671875,0.7934569716453552,-0.1831054538488388,0.4272460639476776
14991,0.03076171875,0.0150146484375,1.0242919921875,0.7934569716453552,-0.1831054538488388,0.4272460639476776
15008,0.0303955078125,0.014404296875,1.021728515625,0.7934569716453552,-0.1831054538488388,0.4272460639476776
15026,0.0277099609375,0.0155029296875,0.9844970703125,0.7934569716453552,0.0,0.3662109076976776
15042,0.0357666015625,0.018310546875,1.1177978515625,0.7934569716453552,-0.3662109076976776,0.4272460639476776
15075,0.0267333984375,0.0137939453125,0.9588623046875,0.7934569716453552,-0.0610351525247097,0.3662109076976776
15095,0.0328369140625,0.0162353515625,1.056640625,0.7934569716453552,-0.2441406100988388,0.3662109076976776
15111,0.0335693359375,0.0172119140625,1.0284423828125,0.7934569716453552,-0.1831054538488388,0.3662109076976776
15128,0.029541015625,0.0166015625,1.0316162109375,0.9155272841453552,-0.1220703050494194,0.3662109076976776
15147,0.0283203125,0.013671875,1.01904296875,0.7934569716453552,-0.1831054538488388,0.4272460639476776
15164,0.0341796875,0.0140380859375,1.0284423828125,0.7934569716453552,-0.2441406100988388,0.30517578125
15197,0.0302734375,0.0172119140625,1.0208740234375,0.7934569716453552,-0.2441406100988388,0.3662109076976776
15213,0.030029296875,0.0152587890625,1.0242919921875,0.8544921278953552,-0.1831054538488388,0.4272460639476776
15230,0.0322265625,0.0145263671875,1.028076171875,0.8544921278953552,-0.1831054538488388,0.3662109076976776
15251,0.0321044921875,0.015380859375,1.018798828125,0.8544921278953552,-0.1831054538488388,0.3662109076976776
15267,0.03076171875,0.0164794921875,1.0279541015625,0.8544921278953552,-0.1831054538488388,0.3662109076976776
15284,0.03076171875,0.016845703125,1.0281982421875,0.8544921278953552,-0.1831054538488388,0.3662109076976776
15317,0.0316162109375,0.013671875,1.0164794921875,0.8544921278953552,-0.1220703050494194,0.3662109076976776
15366,0.03125,0.014892578125,1.0274658203125,0.8544921278953552,-0.1220703050494194,0.4272460639476776
15387,0.0311279296875,0.0145263671875,1.0283203125,0.8544921278953552,-0.2441406100988388,0.3662109076976776
15404,0.0321044921875,0.0152587890625,1.0234375,0.8544921278953552,-0.1831054538488388,0.3662109076976776
15436,0.03076171875,0.016357421875,1.023681640625,0.9155272841453552,-0.1831054538488388,0.3662109076976776
15452,0.0306396484375,0.0155029296875,1.0234375,0.8544921278953552,-0.1831054538488388,0.4272460639476776
15469,0.0322265625,0.015380859375,1.0225830078125,0.7934569716453552,-0.2441406100988388,0.4272460639476776
15507,0.0294189453125,0.015380859375,1.0208740234375,0.7934569716453552,-0.1220703050494194,0.30517578125
15527,0.0308837890625,0.015869140625,1.025390625,0.8544921278953552,-0.1831054538488388,0.4272460639476776
15542,0.031982421875,0.0142822265625,1.0238037109375,0.9155272841453552,-0.2441406100988388,0.3662109076976776
15563,0.0308837890625,0.013916015625,1.02783203125,0.7934569716453552,-0.2441406100988388,0.3662109076976776
15580,0.029541015625,0.0146484375,1.0242919921875,0.7324218153953552,-0.2441406100988388,0.3662109076976776
15596,0.0301513671875,0.014892578125,1.029541015625,0.7934569716453552,-0.1831054538488388,0.4272460639476776
15613,0.032470703125,0.014892578125,1.0233154296875,0.8544921278953552,-0.1831054538488388,0.30517578125
15632,0.0325927734375,0.0152587890625,1.0234375,0.7324218153953552,-0.2441406100988388,0.30517578125
15648,0.031494140625,0.0147705078125,1.024658203125,0.7934569716453552,-0.1831054538488388,0.30517578125
15686,0.0316162109375,0.0155029296875,1.02685546875,0.7324218153953552,-0.1831054538488388,0.4272460639476776
15702,0.0311279296875,0.0152587890625,1.02587890625,0.7324218153953552,-0.2441406100988388,0.4272460639476776
15718,0.0303955078125,0.015380859375,1.024169921875,0.7934569716453552,-0.2441406100988388,0.3662109076976776
15735,0.030517578125,0.0152587890625,1.024169921875,0.7934569716453552,-0.2441406100988388,0.3662109076976776
15751,0.0321044921875,0.015380859375,1.0277099609375,0.7934569716453552,-0.1831054538488388,0.3662109076976776
15768,0.0321044921875,0.0150146484375,1.024169921875,0.7934569716453552,-0.2441406100988388,0.3662109076976776
15798,0.03076171875,0.0145263671875,1.0286865234375,0.7934569716453552,-0.2441406100988388,0.3662109076976776
15819,0.0306396484375,0.014892578125,1.0244140625,0.7324218153953552,-0.2441406100988388,0.4272460639476776
15836,0.0299072265625,0.0150146484375,1.02099609375,0.7934569716453552,-0.2441406100988388,0.4272460639476776
15853,0.0322265625,0.0152587890625,1.022216796875,0.7934569716453552,-0.1831054538488388,0.3662109076976776
15869,0.03173828125,0.0162353515625,1.0247802734375,0.8544921278953552,-0.1831054538488388,0.4272460639476776
15886,0.0301513671875,0.0155029296875,1.0245361328125,0.8544921278953552,-0.1831054538488388,0.4272460639476776
15922,0.0323486328125,0.0142822265625,1.0301513671875,0.8544921278953552,-0.1831054538488388,0.3662109076976776
15938,0.03076171875,0.0150146484375,1.020263671875,0.7934569716453552,-0.1220703050494194,0.3662109076976776
15955,0.0303955078125,0.0150146484375,1.0242919921875,0.7934569716453552,-0.1220703050494194,0.3662109076976776
15972,0.0302734375,0.0152587890625,1.02587890625,0.8544921278953552,-0.2441406100988388,0.4272460639476776
15989,0.03076171875,0.0159912109375,1.0260009765625,0.8544921278953552,-0.1831054538488388,0.3662109076976776
16005,0.0303955078125,0.015869140625,1.0262451171875,0.8544921278953552,-0.2441406100988388,0.3662109076976776
16042,0.030029296875,0.015380859375,1.0267333984375,0.8544921278953552,-0.1220703050494194,0.3662109076976776
16058,0.031005859375,0.0146484375,1.0208740234375,0.8544921278953552,-0.1831054538488388,0.3662109076976776
16075,0.031005859375,0.01513671875,1.025390625,0.8544921278953552,-0.1831054538488388,0.3662109076976776
16092,0.031005859375,0.015869140625,1.0260009765625,0.8544921278953552,-0.1831054538488388,0.3662109076976776
16108,0.0325927734375,0.0152587890625,1.0262451171875,0.8544921278953552,-0.1831054538488388,0.3662109076976776
16157,0.0302734375,0.0152587890625,1.025146484375,0.8544921278953552,-0.1831054538488388,0.3662109076976776
16178,0.03125,0.0155029296875,1.0250244140625,0.8544921278953552,-0.0610351525247097,0.30517578125
16194,0.02978515625,0.015380859375,1.028564453125,0.8544921278953552,-0.0610351525247097,0.3662109076976776
16211,0.0311279296875,0.014892578125,1.025146484375,0.8544921278953552,-0.1831054538488388,0.3662109076976776
16230,0.0325927734375,0.01513671875,1.0277099609375,0.8544921278953552,-0.1831054538488388,0.3662109076976776
16247,0.0313720703125,0.015625,1.021728515625,0.7934569716453552,-0.1831054538488388,0.4272460639476776
16280,0.0311279296875,0.0157470703125,1.0264892578125,0.8544921278953552,-0.2441406100988388,0.3662109076976776
16296,0.0321044921875,0.0164794921875,1.026611328125,0.8544921278953552,-0.1831054538488388,0.3662109076976776
16312,0.030029296875,0.0150146484375,1.0262451171875,0.8544921278953552,-0.1831054538488388,0.3662109076976776
16367,0.0321044921875,0.015380859375,1.0260009765625,0.8544921278953552,-0.2441406100988388,0.3662109076976776
16412,0.0289306640625,0.0140380859375,1.02783203125,1.7089842557907104,-0.30517578125,0.30517578125
16429,0.0308837890625,0.0211181640625,1.0250244140625,2.01416015625,-0.30517578125,0.30517578125
16446,0.033447265625,0.02587890625,1.02587890625,2.197265625,-0.2441406100988388,0.2441406100988388
16466,0.031982421875,0.02490234375,1.0233154296875,2.807616949081421,-0.2441406100988388,0.30517578125
16483,0.031982421875,0.0216064453125,1.025634765625,3.662109136581421,-0.2441406100988388,0.30517578125
16500,0.0294189453125,0.0125732421875,1.0267333984375,4.33349609375,-0.3662109076976776,0.2441406100988388
16516,0.029052734375,0.021484375,1.0269775390625,4.82177734375,-0.2441406100988388,0.0610351525247097
16538,0.0313720703125,0.0308837890625,1.0263671875,5.187987804412842,-0.2441406100988388,0.1220703050494194
16554,0.0335693359375,0.0216064453125,1.025634765625,6.225585460662842,-0.30517578125,0.2441406100988388
16571,0.032470703125,0.0054931640625,1.025390625,6.896972179412842,-0.3662109076976776,0.30517578125
16590,0.0302734375,0.0023193359375,1.0260009765625,7.019042491912842,-0.3662109076976776,0.0610351525247097
16607,0.0306396484375,0.0126953125,1.0250244140625,7.385253429412842,-0.4272460639476776,0.0
16640,0.0303955078125,0.0068359375,1.0250244140625,8.11767578125,-0.4272460639476776,0.1831054538488388
16657,0.0291748046875,-0.005859375,1.021240234375,8.23974609375,-0.2441406100988388,0.0610351525247097
16677,0.0284423828125,-0.007080078125,1.0242919921875,8.1787109375,0.0610351525247097,-0.0610351525247097
16694,0.0302734375,0.00390625,1.0250244140625,8.4228515625,0.7324218153953552,-0.1220703050494194
16711,0.034423828125,0.0223388671875,1.0313720703125,9.70458984375,1.8920897245407104,0.0
16727,0.0323486328125,0.0369873046875,1.056640625,10.742186546325684,2.563476324081421,-0.30517578125
16761,0.0482177734375,0.1160888671875,1.2061767578125,16.41845703125,5.0048828125,-0.54931640625
16778,0.065185546875,0.1279296875,1.453125,16.9677734375,0.8544921278953552,-0.9765624403953552
16794,0.070068359375,0.1253662109375,1.51806640625,17.2119140625,0.7324218153953552,-0.7934569716453552
16806,0.07275390625,0.0877685546875,1.5120849609375,18.9208984375,1.8920897245407104,-0.8544921278953552
16826,0.0859375,0.09716796875,1.5819091796875,18.6767578125,2.25830078125,-0.9765624403953552
16876,0.07666015625,0.0841064453125,1.508056640625,15.136717796325684,1.5869139432907104,-0.6103515625
16896,0.093994140625,0.0572509765625,1.534912109375,11.962889671325684,1.7089842557907104,0.2441406100988388
16912,0.0968017578125,0.02197265625,1.5400390625,10.375975608825684,1.4038084745407104,0.2441406100988388
16929,0.095703125,-0.00830078125,1.5478515625,6.652831554412842,0.30517578125,0.2441406100988388
16953,0.0804443359375,-0.021728515625,1.530517578125,2.929687261581421,0.2441406100988388,0.30517578125
16965,0.080322265625,-0.0145263671875,1.6016845703125,-0.1220703050494194,-1.5869139432907104,0.7324218153953552
16982,0.076171875,-0.0205078125,1.5794677734375,-1.6479490995407104,-2.746581792831421,1.03759765625
16998,0.0654296875,-0.062255859375,1.4825439453125,-2.990722417831421,-3.295898199081421,1.2817381620407104
17048,0.0335693359375,-0.1060791015625,1.451171875,-12.939452171325684,-3.906249761581421,1.5869139432907104
17073,0.0242919921875,-0.1199951171875,1.3763427734375,-15.869139671325684,-3.906249761581421,1.8310545682907104
17089,0.03125,-0.1224365234375,1.3079833984375,-17.39501953125,-3.662109136581421,1.9531248807907104
17106,0.0399169921875,-0.1280517578125,1.241455078125,-20.568845748901367,-3.356933355331421,2.197265625
17125,0.039794921875,-0.12060546875,1.1865234375,-23.864744186401367,-3.479003667831421,2.3193359375
17142,0.02783203125,-0.112060546875,1.0423583984375,-27.099607467651367,-2.929687261581421,2.38037109375
17175,0.0133056640625,-0.09619140625,0.894775390625,-30.761716842651367,-1.6479490995407104,2.50244140625
17192,0.0076904296875,-0.0877685546875,0.806396484375,-33.38623046875,-1.220703125,2.746581792831421
17213,0.0029296875,-0.084228515625,0.6978759765625,-35.5224609375,-0.7934569716453552,2.563476324081421
17229,0.0028076171875,-0.066650390625,0.605712890625,-36.43798828125,-0.4272460639476776,2.563476324081421
17243,0.0020751953125,-0.0577392578125,0.56005859375,-37.59765625,0.30517578125,2.563476324081421
17293,0.0015869140625,-0.029052734375,0.4305419921875,-39.00146484375,1.2817381620407104,2.624511480331421
17312,-0.003173828125,-0.031005859375,0.375244140625,-39.306640625,1.6479490995407104,2.624511480331421
17329,0.000244140625,-0.0244140625,0.36376953125,-39.24560546875,2.197265625,2.50244140625
17350,0.0032958984375,-0.0206298828125,0.3695068359375,-39.1845703125,2.3193359375,2.44140625
17366,0.009765625,-0.0029296875,0.385986328125,-38.51318359375,2.44140625,2.3193359375
17416,-0.0008544921875,0.0106201171875,0.4796142578125,-34.423828125,2.13623046875,2.25830078125
17433,-0.001220703125,0.020751953125,0.4913330078125,-32.16552734375,2.50244140625,2.13623046875
17449,0.005615234375,0.0184326171875,0.5618896484375,-29.541013717651367,3.051757574081421,2.25830078125
17485,0.012451171875,0.010986328125,0.7052001953125,-24.230955123901367,2.868652105331421,2.50244140625
17497,0.01318359375,0.013671875,0.7862548828125,-19.8974609375,2.50244140625,2.197265625
17514,0.014404296875,0.0181884765625,0.8197021484375,-17.51708984375,2.3193359375,2.01416015625
17530,0.022216796875,0.0623779296875,0.8612060546875,-15.136717796325684,2.0751953125,1.7089842557907104
17549,0.0313720703125,0.1151123046875,0.9161376953125,-7.568358898162842,2.38037109375,1.6479490995407104
17566,0.03662109375,0.1190185546875,0.9659423828125,-5.310058116912842,2.3193359375,1.5258787870407104
17603,0.0418701171875,0.1993408203125,1.044189453125,5.065917491912842,1.0986328125,1.2817381620407104
17614,0.0455322265625,0.2271728515625,1.0767822265625,8.1787109375,1.03759765625,1.2817381620407104
17631,0.0455322265625,0.2237548828125,1.07763671875,11.169432640075684,0.7324218153953552,1.3427733182907104
17648,0.0472412109375,0.2308349609375,1.0513916015625,18.310546875,0.1831054538488388,1.220703125
17666,0.0535888671875,0.211669921875,1.0570068359375,20.324705123901367,0.1831054538488388,1.15966796875
17683,0.054931640625,0.211181640625,1.061279296875,23.376462936401367,-0.3662109076976776,1.15966796875
17700,0.050048828125,0.1951904296875,1.0537109375,27.160642623901367,-1.0986328125,0.9155272841453552
17721,0.04931640625,0.19580078125,1.0438232421875,28.381345748901367,-1.4038084745407104,0.8544921278953552
17736,0.044189453125,0.185302734375,1.0198974609375,31.311033248901367,-1.7700194120407104,0.7934569716453552
17753,0.0450439453125,0.174072265625,1.0235595703125,33.14208984375,-2.197265625,0.8544921278953552
17769,0.0413818359375,0.1611328125,1.0054931640625,34.0576171875,-2.50244140625,0.7934569716453552
17789,0.036376953125,0.1427001953125,0.990234375,35.400390625,-2.807616949081421,0.6713866591453552
17805,0.0345458984375,0.1400146484375,0.9898681640625,36.376953125,-2.807616949081421,0.4882812201976776
17838,0.027099609375,0.113037109375,0.987548828125,37.4755859375,-2.929687261581421,0.2441406100988388
17855,0.026123046875,0.103759765625,0.9886474609375,37.53662109375,-2.807616949081421,0.1831054538488388
17876,0.0262451171875,0.09619140625,1.0052490234375,36.865234375,-2.746581792831421,0.0610351525247097
17892,0.0274658203125,0.08203125,1.01806640625,36.865234375,-2.746581792831421,0.1220703050494194
17909,0.0291748046875,0.075439453125,1.028076171875,36.19384765625,-2.624511480331421,-0.1220703050494194
17926,0.0289306640625,0.0670166015625,1.02294921875,35.58349609375,-2.746581792831421,-0.1220703050494194
17959,0.0294189453125,0.037109375,1.0006103515625,32.89794921875,-2.25830078125,0.0
18012,0.030029296875,0.003173828125,1.008056640625,28.747556686401367,-1.7089842557907104,0.0
18029,0.0301513671875,-0.0074462890625,1.0107421875,26.245115280151367,-1.5258787870407104,0.1220703050494194
18046,0.0301513671875,-0.0098876953125,1.004638671875,23.315427780151367,-1.3427733182907104,0.2441406100988388
18079,0.0311279296875,-0.032958984375,1.0162353515625,17.4560546875,-0.6713866591453552,0.4882812201976776
18095,0.0308837890625,-0.035888671875,1.0230712890625,15.686034202575684,-0.54931640625,0.54931640625
18111,0.029296875,-0.038818359375,1.02978515625,12.695311546325684,-0.30517578125,0.6103515625
18147,0.0302734375,-0.04248046875,1.036376953125,8.23974609375,-0.0610351525247097,0.7934569716453552
18168,0.0306396484375,-0.04638671875,1.037353515625,5.126952648162842,0.0610351525247097,0.9155272841453552
18185,0.029296875,-0.04736328125,1.0301513671875,1.8920897245407104,0.1831054538488388,1.0986328125
18206,0.029541015625,-0.0521240234375,1.02978515625,-0.9765624403953552,0.4272460639476776,1.15966796875
18222,0.030517578125,-0.048828125,1.0328369140625,-2.38037109375,0.4882812201976776,1.0986328125
18239,0.0316162109375,-0.0399169921875,1.0296630859375,-4.8828125,0.54931640625,1.15966796875
18256,0.0306396484375,-0.0369873046875,1.0262451171875,-7.080077648162842,0.54931640625,1.3427733182907104
18276,0.0281982421875,-0.03759765625,1.0242919921875,-8.9111328125,0.6713866591453552,1.4038084745407104
18292,0.026123046875,-0.0384521484375,1.021728515625,-10.559081077575684,0.6713866591453552,1.3427733182907104
18308,0.0257568359375,-0.036376953125,1.01806640625,-11.291502952575684,0.6713866591453552,1.3427733182907104
18328,0.0257568359375,-0.0321044921875,1.0162353515625,-12.573241233825684,0.8544921278953552,1.3427733182907104
18349,0.0263671875,-0.025146484375,1.01611328125,-13.488768577575684,0.9155272841453552,1.3427733182907104
18366,0.02490234375,-0.0185546875,1.0133056640625,-14.160155296325684,1.03759765625,1.4038084745407104
18385,0.02685546875,-0.015869140625,1.02392578125,-14.526366233825684,1.0986328125,1.3427733182907104
18402,0.025390625,-0.0123291015625,1.0260009765625,-14.587401390075684,0.9765624403953552,1.2817381620407104
18435,0.0289306640625,-0.0029296875,1.0238037109375,-13.977049827575684,0.9765624403953552,1.15966796875
18452,0.0286865234375,0.001220703125,1.0198974609375,-13.122557640075684,0.8544921278953552,1.0986328125
18473,0.0289306640625,0.0032958984375,1.0162353515625,-12.756346702575684,0.7934569716453552,1.03759765625
18489,0.0294189453125,0.0078125,1.007568359375,-11.718749046325684,0.7324218153953552,0.9765624403953552
18508,0.02978515625,0.01220703125,1.0037841796875,-10.620116233825684,0.6713866591453552,0.8544921278953552
18525,0.030517578125,0.015869140625,0.99951171875,-10.070799827575684,0.54931640625,0.7934569716453552
18557,0.03125,0.0169677734375,0.9735107421875,-7.995604991912842,0.3662109076976776,0.54931640625
18573,0.0301513671875,0.021728515625,0.9637451171875,-6.835937023162842,0.3662109076976776,0.4882812201976776
18589,0.0303955078125,0.02392578125,0.96240234375,-6.225585460662842,0.30517578125,0.4272460639476776
18622,0.0264892578125,0.027587890625,0.945068359375,-3.723144292831421,0.4272460639476776,0.0610351525247097
18641,0.0277099609375,0.0284423828125,0.9495849609375,-3.112792730331421,0.3662109076976776,0.0
18657,0.02978515625,0.030029296875,0.94873046875,-1.8310545682907104,0.2441406100988388,-0.1220703050494194
18674,0.03173828125,0.031494140625,0.95556640625,-1.15966796875,0.2441406100988388,-0.1831054538488388
18737,0.0306396484375,0.0123291015625,0.905517578125,2.0751953125,-0.6713866591453552,-0.54931640625
18759,0.030517578125,0.0087890625,0.896484375,2.13623046875,-0.3662109076976776,-0.6713866591453552
18775,0.0321044921875,0.0013427734375,0.9017333984375,1.9531248807907104,-0.30517578125,-0.6713866591453552
18792,0.03271484375,-0.0091552734375,0.9034423828125,1.4038084745407104,-0.3662109076976776,-0.7324218153953552
18809,0.03125,-0.011962890625,0.8916015625,0.3662109076976776,-0.7934569716453552,-0.8544921278953552
18825,0.0240478515625,-0.01318359375,0.833740234375,-0.30517578125,-0.9765624403953552,-0.9765624403953552
18859,0.03076171875,0.00048828125,0.8388671875,-3.356933355331421,0.4882812201976776,-1.15966796875
18876,0.0379638671875,0.008544921875,0.916748046875,-4.21142578125,0.3662109076976776,-1.03759765625
18896,0.0428466796875,0.0113525390625,0.987060546875,-4.33349609375,-0.4882812201976776,-1.03759765625
18912,0.041748046875,0.0133056640625,0.9669189453125,-4.21142578125,-1.3427733182907104,-1.03759765625
18929,0.0341796875,0.013671875,0.90283203125,-4.33349609375,-2.01416015625,-0.9765624403953552
18946,0.02197265625,0.0111083984375,0.83203125,-4.638671875,-1.5258787870407104,-0.9155272841453552
18975,0.0250244140625,0.015380859375,0.943115234375,-6.225585460662842,-0.2441406100988388,-0.7324218153953552
18992,0.024658203125,0.0316162109375,0.9677734375,-6.225585460662842,-1.0986328125,-0.6713866591453552
19008,0.0255126953125,0.0411376953125,0.95263671875,-6.042479991912842,-1.5258787870407104,-0.6103515625
19040,0.017822265625,0.0401611328125,0.8258056640625,-6.408690929412842,-0.9155272841453552,-0.0610351525247097
19057,0.0137939453125,0.0260009765625,0.857666015625,-6.896972179412842,0.54931640625,0.0
19078,0.0201416015625,0.0430908203125,0.9632568359375,-6.652831554412842,0.0610351525247097,-0.2441406100988388
19094,0.0181884765625,0.053466796875,0.948974609375,-6.042479991912842,-0.3662109076976776,-0.1831054538488388
19111,0.0166015625,0.0545654296875,0.9132080078125,-4.69970703125,-0.4882812201976776,-0.0610351525247097
19128,0.0198974609375,0.0517578125,0.8756103515625,-3.845214605331421,0.4272460639476776,-0.1220703050494194
19179,0.0283203125,0.0860595703125,0.957763671875,-1.5258787870407104,2.01416015625,-0.2441406100988388
19230,0.0260009765625,0.0914306640625,0.995361328125,3.417968511581421,1.5869139432907104,-0.0610351525247097
19247,0.0289306640625,0.094482421875,0.91943359375,4.21142578125,1.5869139432907104,0.0
19284,0.0408935546875,0.08349609375,0.9345703125,5.798339366912842,3.723144292831421,0.3662109076976776
19301,0.045654296875,0.07861328125,0.9873046875,6.469726085662842,4.0283203125,0.3662109076976776
19318,0.0560302734375,0.0848388671875,1.0672607421875,7.629394054412842,3.051757574081421,0.3662109076976776
19334,0.0594482421875,0.088623046875,1.0638427734375,9.09423828125,1.8310545682907104,0.3662109076976776
19358,0.059326171875,0.0947265625,1.021484375,9.765625,1.5258787870407104,0.4272460639476776
19374,0.0625,0.086669921875,1.0162353515625,10.803221702575684,1.5258787870407104,0.4882812201976776
19391,0.0623779296875,0.076416015625,1.02099609375,11.291502952575684,1.4038084745407104,0.7324218153953552
19410,0.066162109375,0.0673828125,1.067138671875,11.596678733825684,1.220703125,0.7934569716453552
19427,0.066162109375,0.0689697265625,1.132080078125,12.451170921325684,0.4272460639476776,0.6713866591453552
19459,0.0560302734375,0.0869140625,1.14892578125,14.221190452575684,-1.3427733182907104,0.7934569716453552
19476,0.0543212890625,0.083740234375,1.12939453125,15.075682640075684,-1.9531248807907104,0.9765624403953552
19491,0.0562744140625,0.0782470703125,1.1285400390625,15.258788108825684,-2.0751953125,1.0986328125
19508,0.0633544921875,0.0665283203125,1.162109375,15.380858421325684,-2.197265625,1.0986328125
19527,0.0577392578125,0.062744140625,1.174560546875,15.686034202575684,-3.051757574081421,1.0986328125
19544,0.0467529296875,0.064208984375,1.1783447265625,17.02880859375,-3.662109136581421,1.0986328125
19575,0.0438232421875,0.0511474609375,1.1884765625,18.12744140625,-4.0283203125,1.2817381620407104
19597,0.0445556640625,0.040283203125,1.17333984375,18.12744140625,-4.2724609375,1.3427733182907104
19630,0.04345703125,0.0159912109375,1.1265869140625,16.9677734375,-4.0283203125,1.220703125
19648,0.0361328125,0.0078125,1.1005859375,16.41845703125,-3.723144292831421,1.2817381620407104
19665,0.035888671875,-0.001220703125,1.1495361328125,14.587401390075684,-2.38037109375,1.220703125
19696,0.044677734375,-0.0106201171875,1.213623046875,12.878417015075684,-2.868652105331421,1.03759765625
19718,0.044189453125,-0.0126953125,1.187255859375,12.268065452575684,-3.173827886581421,1.03759765625
19734,0.0386962890625,-0.021240234375,1.1165771484375,10.742186546325684,-2.38037109375,1.15966796875
19751,0.0367431640625,-0.033203125,1.116455078125,8.72802734375,-1.4648436307907104,1.220703125
19770,0.03662109375,-0.0419921875,1.1263427734375,6.652831554412842,-1.0986328125,1.0986328125
19787,0.038330078125,-0.0369873046875,1.1202392578125,4.82177734375,-0.8544921278953552,1.15966796875
19816,0.041748046875,-0.0377197265625,1.1124267578125,2.13623046875,-0.2441406100988388,1.2817381620407104
19833,0.041748046875,-0.042236328125,1.1051025390625,1.2817381620407104,-0.0610351525247097,1.3427733182907104
19854,0.0447998046875,-0.041748046875,1.120361328125,-0.3662109076976776,0.4882812201976776,1.3427733182907104
19870,0.0435791015625,-0.036376953125,1.124755859375,-1.8310545682907104,0.2441406100988388,1.3427733182907104
19937,0.0357666015625,-0.0313720703125,1.1097412109375,-6.103515148162842,1.15966796875,1.3427733182907104
19954,0.0372314453125,-0.029541015625,1.110595703125,-6.530761241912842,0.9765624403953552,1.3427733182907104
19971,0.037109375,-0.02490234375,1.0921630859375,-7.202147960662842,0.8544921278953552,1.2817381620407104
19992,0.0335693359375,-0.022216796875,1.0616455078125,-7.812499523162842,1.15966796875,1.3427733182907104
20008,0.0306396484375,-0.0224609375,1.0599365234375,-8.056640625,1.4648436307907104,1.4038084745407104
20025,0.0301513671875,-0.021484375,1.071044921875,-8.544921875,1.7700194120407104,1.2817381620407104
20058,0.0328369140625,0.0035400390625,1.0675048828125,-8.30078125,1.2817381620407104,1.03759765625
20075,0.0341796875,0.0057373046875,1.039794921875,-7.873534679412842,1.3427733182907104,1.15966796875
20092,0.03515625,0.0020751953125,1.0408935546875,-7.507323741912842,1.8310545682907104,1.2817381620407104
20109,0.0367431640625,-0.00341796875,1.0623779296875,-6.958007335662842,2.0751953125,1.0986328125
20133,0.0390625,0.0025634765625,1.10205078125,-6.042479991912842,1.9531248807907104,0.8544921278953552
20150,0.0374755859375,0.0162353515625,1.089599609375,-5.432128429412842,1.5258787870407104,0.8544921278953552
20167,0.03271484375,0.0166015625,1.03662109375,-4.08935546875,1.220703125,0.8544921278953552
20184,0.0328369140625,0.0145263671875,1.0316162109375,-3.234863042831421,1.8920897245407104,0.7934569716453552
20200,0.036376953125,0.0079345703125,1.0478515625,-2.563476324081421,1.8310545682907104,0.7324218153953552
20233,0.0380859375,0.006591796875,1.03564453125,-1.5869139432907104,1.5258787870407104,0.4882812201976776
20256,0.0364990234375,0.008544921875,1.0108642578125,-1.15966796875,1.4648436307907104,0.4272460639476776
20272,0.03759765625,0.009033203125,1.0098876953125,-0.54931640625,1.5869139432907104,0.4882812201976776
20289,0.038330078125,0.005615234375,1.0279541015625,-0.30517578125,1.6479490995407104,0.3662109076976776
20356,0.089599609375,0.0198974609375,1.5159912109375,1.3427733182907104,0.9155272841453552,0.2441406100988388
20372,0.1119384765625,0.0238037109375,1.6728515625,-0.3662109076976776,-4.7607421875,0.4272460639476776
20389,0.037109375,0.0155029296875,0.9573974609375,-1.6479490995407104,-5.859374523162842,0.54931640625
20410,0.01806640625,0.01171875,0.857666015625,-2.13623046875,-4.7607421875,0.6713866591453552
20429,0.024169921875,0.01513671875,1.0186767578125,-1.4648436307907104,-5.065917491912842,0.54931640625
20445,0.0174560546875,0.00634765625,1.0225830078125,-0.7934569716453552,-5.432128429412842,0.4882812201976776
20478,-0.0118408203125,0.0098876953125,0.891357421875,0.6713866591453552,-4.8828125,0.4272460639476776
20547,0.0799560546875,0.004638671875,1.396240234375,0.3662109076976776,2.868652105331421,0.1831054538488388
20568,0.1314697265625,0.0142822265625,1.6373291015625,-0.4272460639476776,-2.13623046875,0.1831054538488388
20584,0.0440673828125,0.0218505859375,0.8912353515625,-0.8544921278953552,-4.33349609375,0.2441406100988388
20599,-0.0081787109375,0.0118408203125,0.6934814453125,0.30517578125,1.6479490995407104,0.54931640625
20615,0.0262451171875,0.0054931640625,0.918701171875,0.2441406100988388,2.746581792831421,0.4272460639476776
20632,0.079833984375,0.011962890625,1.3331298828125,-0.9765624403953552,-0.30517578125,0.4272460639476776
20649,0.037353515625,0.012939453125,0.9044189453125,-1.4038084745407104,-0.1831054538488388,0.4272460639476776
20673,0.022705078125,0.0198974609375,0.972412109375,-0.4882812201976776,3.540038824081421,0.30517578125
20689,0.0391845703125,0.0469970703125,1.2861328125,0.0610351525247097,4.39453125,0.1831054538488388
20706,0.0498046875,0.052001953125,1.40380859375,2.25830078125,3.662109136581421,0.1831054538488388
20725,0.0606689453125,0.066650390625,1.5654296875,5.493163585662842,1.8920897245407104,-0.0610351525247097
20742,0.0574951171875,0.0738525390625,1.6124267578125,9.27734375,0.6103515625,-0.0610351525247097
20775,0.05615234375,0.02978515625,1.5389404296875,13.610838890075684,-1.03759765625,0.1831054538488388
20792,0.0545654296875,-0.0120849609375,1.441162109375,14.648436546325684,-1.0986328125,-0.1220703050494194
20813,0.0565185546875,-0.0262451171875,1.35986328125,14.709471702575684,-1.15966796875,-0.54931640625
20829,0.0615234375,-0.01025390625,1.314697265625,14.587401390075684,-0.9765624403953552,-0.7324218153953552
20847,0.0670166015625,0.0037841796875,1.3297119140625,14.282225608825684,-0.6103515625,-0.7934569716453552
20863,0.0777587890625,0.013427734375,1.391845703125,14.221190452575684,-0.8544921278953552,-0.3662109076976776
20896,0.08154296875,-0.0399169921875,1.4754638671875,14.221190452575684,-1.7089842557907104,-0.1831054538488388
20913,0.08544921875,-0.0565185546875,1.5401611328125,15.075682640075684,-2.807616949081421,-0.7324218153953552
20929,0.0758056640625,-0.044677734375,1.55419921875,16.845703125,-4.08935546875,-1.3427733182907104
20966,0.064697265625,-0.0286865234375,1.5230712890625,19.59228515625,-5.249022960662842,-1.7089842557907104
20982,0.0614013671875,-0.0272216796875,1.4931640625,20.141599655151367,-5.676269054412842,-1.8310545682907104
20998,0.0540771484375,-0.035888671875,1.4300537109375,20.507810592651367,-6.530761241912842,-1.8920897245407104
21015,0.048583984375,-0.039306640625,1.401123046875,20.324705123901367,-6.958007335662842,-1.8310545682907104
21031,0.03662109375,-0.0589599609375,1.3399658203125,19.95849609375,-7.080077648162842,-1.8310545682907104
21048,0.02294921875,-0.0731201171875,1.2431640625,18.6767578125,-7.385253429412842,-1.8310545682907104
21081,0.0074462890625,-0.0860595703125,1.0994873046875,14.404295921325684,-6.774901866912842,-2.01416015625
21097,0.0023193359375,-0.0858154296875,1.047119140625,13.244627952575684,-6.530761241912842,-2.01416015625
21133,-0.005859375,-0.068359375,0.858154296875,8.4228515625,-5.493163585662842,-1.8920897245407104
21150,-0.00732421875,-0.0606689453125,0.7381591796875,6.958007335662842,-5.371093273162842,-1.7700194120407104
21167,-0.0093994140625,-0.0577392578125,0.6824951171875,3.845214605331421,-4.45556640625,-1.5869139432907104
21196,-0.0103759765625,-0.0418701171875,0.586181640625,-0.4882812201976776,-2.868652105331421,-1.0986328125
21213,-0.009033203125,-0.04150390625,0.5699462890625,-2.563476324081421,-2.44140625,-0.9155272841453552
21230,-0.004638671875,-0.0421142578125,0.517822265625,-3.601073980331421,-2.38037109375,-0.9155272841453552
21246,-0.0054931640625,-0.0374755859375,0.4754638671875,-5.615233898162842,-2.25830078125,-0.8544921278953552
21260,-0.0081787109375,-0.0338134765625,0.4210205078125,-7.629394054412842,-1.4648436307907104,-0.6103515625
21310,-0.0030517578125,-0.028076171875,0.400390625,-11.657713890075684,-0.0610351525247097,-0.30517578125
21329,-0.00146484375,-0.0272216796875,0.4097900390625,-12.207030296325684,0.1831054538488388,-0.1831054538488388
21345,0.0008544921875,-0.0316162109375,0.4342041015625,-13.183592796325684,0.4272460639476776,-0.1220703050494194
21366,-0.0008544921875,-0.0352783203125,0.449951171875,-13.793944358825684,0.7324218153953552,-0.0610351525247097
21386,-0.0018310546875,-0.0404052734375,0.4820556640625,-14.343260765075684,1.5258787870407104,0.0610351525247097
21402,0.002197265625,-0.04296875,0.5758056640625,-14.465331077575684,1.8920897245407104,0.1220703050494194
21419,0.0015869140625,-0.041015625,0.6243896484375,-14.343260765075684,2.197265625,0.1220703050494194
21434,0.00146484375,-0.031005859375,0.7215576171875,-13.671874046325684,2.3193359375,0.1220703050494194
21451,0.0048828125,-0.028076171875,0.7943115234375,-12.451170921325684,2.3193359375,0.1220703050494194
21467,0.0086669921875,-0.0220947265625,0.8238525390625,-11.657713890075684,2.38037109375,0.1220703050494194
21497,0.01416015625,-0.0230712890625,0.9259033203125,-8.85009765625,2.624511480331421,0.0
21518,0.0142822265625,-0.025146484375,0.9510498046875,-6.652831554412842,2.868652105331421,-0.1220703050494194
21530,0.0191650390625,-0.016357421875,1.0064697265625,-5.432128429412842,2.868652105331421,-0.2441406100988388
21547,0.0201416015625,-0.01220703125,1.0169677734375,-2.868652105331421,2.44140625,-0.4882812201976776
21565,0.0224609375,-0.00537109375,1.023193359375,0.0,2.38037109375,-0.4882812201976776
21582,0.0228271484375,-0.015869140625,1.039794921875,2.746581792831421,2.25830078125,-0.4272460639476776
21599,0.023193359375,-0.0218505859375,1.045166015625,3.906249761581421,2.0751953125,-0.4272460639476776
21615,0.0250244140625,-0.035400390625,1.0390625,5.981444835662842,1.7089842557907104,-0.54931640625
21666,0.0177001953125,-0.034423828125,1.002685546875,10.742186546325684,1.5258787870407104,-0.6103515625
21686,0.0133056640625,-0.047607421875,0.9903564453125,11.413573265075684,1.6479490995407104,-0.6103515625
21735,0.01806640625,-0.0589599609375,1.002197265625,13.000487327575684,1.9531248807907104,-0.7324218153953552
21752,0.0201416015625,-0.0631103515625,1.0015869140625,13.732909202575684,1.8920897245407104,-0.6103515625
21769,0.0211181640625,-0.066162109375,1.0078125,13.793944358825684,1.9531248807907104,-0.6103515625
21804,0.0247802734375,-0.0816650390625,1.0313720703125,13.732909202575684,1.7700194120407104,-0.54931640625
21820,0.02490234375,-0.084228515625,1.0294189453125,13.610838890075684,1.5258787870407104,-0.54931640625
21837,0.02734375,-0.08349609375,1.0372314453125,13.366698265075684,1.3427733182907104,-0.4882812201976776
21853,0.029052734375,-0.092529296875,1.0367431640625,13.122557640075684,1.0986328125,-0.4272460639476776
21870,0.030517578125,-0.0936279296875,1.0294189453125,12.451170921325684,0.6103515625,-0.3662109076976776
21887,0.02880859375,-0.099853515625,1.0028076171875,11.535643577575684,0.30517578125,-0.30517578125
21922,0.026123046875,-0.0994873046875,0.975341796875,9.70458984375,-0.1831054538488388,-0.1831054538488388
21939,0.0264892578125,-0.1011962890625,0.9674072265625,8.30078125,-0.6713866591453552,0.0
21956,0.0216064453125,-0.108642578125,0.9254150390625,7.446288585662842,-0.9155272841453552,0.0
21972,0.015380859375,-0.114013671875,0.8826904296875,5.737304210662842,-1.03759765625,0.1831054538488388
21991,0.014404296875,-0.1168212890625,0.88671875,3.967284917831421,-0.4882812201976776,0.30517578125
22008,0.015380859375,-0.119140625,0.91650390625,2.44140625,-0.3662109076976776,0.3662109076976776
22037,0.014404296875,-0.1165771484375,0.9515380859375,0.7324218153953552,-0.6713866591453552,0.30517578125
22058,0.011962890625,-0.1083984375,0.943603515625,-0.0610351525247097,-0.7934569716453552,0.3662109076976776
22074,0.0068359375,-0.1094970703125,0.9339599609375,-0.4882812201976776,-0.6713866591453552,0.4882812201976776
22086,0.004150390625,-0.112060546875,0.935546875,-1.4038084745407104,-0.3662109076976776,0.54931640625
22107,0.0030517578125,-0.118896484375,0.955322265625,-1.8920897245407104,-0.1831054538488388,0.6103515625
22157,0.0025634765625,-0.0997314453125,0.9505615234375,-3.417968511581421,-0.1220703050494194,0.4882812201976776
22174,-0.0013427734375,-0.1004638671875,0.9075927734375,-3.662109136581421,0.4882812201976776,0.54931640625
22193,-0.0003662109375,-0.0997314453125,0.9046630859375,-4.0283203125,0.9155272841453552,0.54931640625
22209,0.00732421875,-0.1029052734375,0.9383544921875,-4.57763671875,1.4038084745407104,0.4272460639476776
22276,0.02001953125,-0.0670166015625,0.8988037109375,-5.371093273162842,1.3427733182907104,0.4272460639476776
22292,0.029296875,-0.062255859375,0.934326171875,-5.615233898162842,1.6479490995407104,0.4882812201976776
22308,0.034423828125,-0.0633544921875,0.96728515625,-5.798339366912842,1.8920897245407104,0.54931640625
22344,0.04150390625,-0.0528564453125,1.05126953125,-4.57763671875,0.8544921278953552,0.4882812201976776
22360,0.0394287109375,-0.035888671875,1.037353515625,-3.051757574081421,0.1831054538488388,0.4272460639476776
22377,0.036376953125,-0.0367431640625,0.9737548828125,-2.44140625,0.0,0.4272460639476776
22393,0.0433349609375,-0.046142578125,0.993408203125,-1.7700194120407104,0.7934569716453552,0.54931640625
22410,0.04638671875,-0.054931640625,1.0159912109375,-1.4648436307907104,0.6713866591453552,0.4882812201976776
22427,0.0462646484375,-0.058349609375,1.0325927734375,-0.9155272841453552,0.1220703050494194,0.3662109076976776
22457,0.0443115234375,-0.04736328125,0.99755859375,0.30517578125,-0.9765624403953552,0.30517578125
22477,0.0386962890625,-0.0504150390625,0.9444580078125,0.6103515625,-0.8544921278953552,0.2441406100988388
22489,0.0345458984375,-0.051513671875,0.935546875,0.9155272841453552,-0.30517578125,0.1831054538488388
22506,0.0330810546875,-0.053466796875,0.94580078125,1.03759765625,-0.0610351525247097,0.1831054538488388
22524,0.0352783203125,-0.05322265625,0.982421875,1.4648436307907104,0.1220703050494194,0.0610351525247097
22541,0.0355224609375,-0.0538330078125,0.9927978515625,2.01416015625,-0.1220703050494194,0.0610351525247097
22558,0.0313720703125,-0.049072265625,0.9761962890625,2.624511480331421,-0.4272460639476776,0.1220703050494194
22575,0.027099609375,-0.051513671875,0.9522705078125,2.868652105331421,-0.2441406100988388,0.1220703050494194
22598,0.0283203125,-0.0555419921875,0.9605712890625,2.990722417831421,-0.0610351525247097,0.1220703050494194
22614,0.0369873046875,-0.061767578125,1.005126953125,3.234863042831421,0.1220703050494194,0.1220703050494194
22631,0.0399169921875,-0.0618896484375,1.02001953125,3.784179449081421,-0.3662109076976776,0.0
22650,0.041748046875,-0.05615234375,1.0233154296875,4.39453125,-0.7324218153953552,-0.0610351525247097
22667,0.04345703125,-0.0574951171875,1.0380859375,5.187987804412842,-0.7324218153953552,0.0
22696,0.0457763671875,-0.0621337890625,1.09033203125,6.774901866912842,-1.15966796875,-0.3662109076976776
22713,0.0440673828125,-0.061279296875,1.0987548828125,7.385253429412842,-1.4648436307907104,-0.54931640625
22734,0.0377197265625,-0.0567626953125,1.085205078125,8.7890625,-1.6479490995407104,-0.7934569716453552
22750,0.033447265625,-0.0601806640625,1.0869140625,10.253905296325684,-1.7089842557907104,-0.9155272841453552
22768,0.0244140625,-0.07080078125,1.04736328125,10.803221702575684,-1.9531248807907104,-0.8544921278953552
22785,0.0198974609375,-0.07666015625,1.0150146484375,11.291502952575684,-1.7700194120407104,-0.8544921278953552
22818,0.0245361328125,-0.0975341796875,1.0037841796875,10.681151390075684,-0.6713866591453552,-0.9155272841453552
22835,0.030029296875,-0.1026611328125,1.038818359375,10.437010765075684,-0.4882812201976776,-0.9765624403953552
22887,0.0283203125,-0.11328125,1.041015625,8.60595703125,-1.0986328125,-1.03759765625
22909,0.0260009765625,-0.1175537109375,1.0191650390625,7.995604991912842,-1.0986328125,-1.03759765625
22925,0.0238037109375,-0.1217041015625,0.977783203125,6.591796398162842,-0.9765624403953552,-0.9765624403953552
22944,0.0242919921875,-0.1234130859375,0.9835205078125,4.82177734375,-0.6713866591453552,-0.9155272841453552
22961,0.030029296875,-0.1258544921875,1.0216064453125,3.112792730331421,-0.7934569716453552,-0.9155272841453552
22994,0.0302734375,-0.1212158203125,1.031982421875,0.8544921278953552,-1.3427733182907104,-0.9765624403953552
23011,0.02734375,-0.1173095703125,1.0396728515625,-0.3662109076976776,-1.4648436307907104,-0.8544921278953552
23049,0.0238037109375,-0.116943359375,1.0274658203125,-2.01416015625,-2.0751953125,-0.8544921278953552
23068,0.02294921875,-0.1109619140625,1.008544921875,-3.234863042831421,-2.13623046875,-0.7324218153953552
23084,0.02294921875,-0.1009521484375,1.0050048828125,-4.2724609375,-2.13623046875,-0.6713866591453552
23116,0.014404296875,-0.09765625,1.030029296875,-5.126952648162842,-1.7700194120407104,-0.3662109076976776
23132,0.0113525390625,-0.101806640625,1.0357666015625,-5.432128429412842,-1.7089842557907104,-0.2441406100988388
23149,0.009765625,-0.099365234375,1.054443359375,-5.554198741912842,-1.4648436307907104,-0.30517578125
23182,0.0086669921875,-0.0919189453125,1.0643310546875,-5.065917491912842,-1.220703125,-0.1831054538488388
23198,0.0006103515625,-0.0899658203125,1.055908203125,-4.8828125,-1.0986328125,-0.0610351525247097
23210,-0.0029296875,-0.0887451171875,1.0537109375,-4.57763671875,-0.4272460639476776,0.1831054538488388
23227,-0.005126953125,-0.0921630859375,1.0701904296875,-4.33349609375,-0.1831054538488388,0.30517578125
23245,-0.0068359375,-0.093017578125,1.060302734375,-3.906249761581421,-0.0610351525247097,0.30517578125
23294,0.0048828125,-0.0830078125,1.0211181640625,-3.295898199081421,2.44140625,0.7324218153953552
23318,0.0145263671875,-0.0814208984375,1.053466796875,-3.051757574081421,2.50244140625,0.7934569716453552
23334,0.0169677734375,-0.0810546875,1.0391845703125,-2.624511480331421,2.929687261581421,0.9155272841453552
23351,0.0213623046875,-0.079833984375,1.0394287109375,-2.3193359375,3.234863042831421,0.9155272841453552
23370,0.024169921875,-0.08154296875,1.0360107421875,-1.9531248807907104,3.479003667831421,1.0986328125
23387,0.0291748046875,-0.08642578125,1.0604248046875,-1.5869139432907104,3.906249761581421,1.15966796875
23420,0.0435791015625,-0.07861328125,1.104248046875,-0.30517578125,3.295898199081421,1.0986328125
23437,0.044677734375,-0.068115234375,1.08154296875,0.1220703050494194,3.112792730331421,1.15966796875
23458,0.043701171875,-0.0682373046875,1.080810546875,0.8544921278953552,3.051757574081421,1.220703125
23474,0.0443115234375,-0.0667724609375,1.109619140625,1.5258787870407104,2.990722417831421,1.2817381620407104
23491,0.0478515625,-0.0704345703125,1.1636962890625,1.8920897245407104,2.746581792831421,1.4038084745407104
23507,0.0523681640625,-0.074951171875,1.1705322265625,3.051757574081421,1.6479490995407104,1.4038084745407104
23541,0.0460205078125,-0.080322265625,1.0689697265625,5.249022960662842,0.7324218153953552,1.4648436307907104
23558,0.0511474609375,-0.0845947265625,1.0755615234375,5.432128429412842,0.8544921278953552,1.4648436307907104
23579,0.0518798828125,-0.08447265625,1.079345703125,5.371093273162842,0.6713866591453552,1.4648436307907104
23594,0.052978515625,-0.0806884765625,1.078857421875,5.554198741912842,0.2441406100988388,1.5258787870407104
23606,0.050048828125,-0.0828857421875,1.0723876953125,5.615233898162842,0.1220703050494194,1.5869139432907104
23622,0.047119140625,-0.0889892578125,1.072265625,5.615233898162842,0.0610351525247097,1.7089842557907104
23656,0.0386962890625,-0.1043701171875,1.0677490234375,5.187987804412842,-0.1831054538488388,1.7089842557907104
23672,0.0380859375,-0.10205078125,1.0634765625,4.94384765625,-0.3662109076976776,1.5258787870407104
23693,0.0411376953125,-0.0928955078125,1.044921875,4.57763671875,-0.6103515625,1.5869139432907104
23709,0.0384521484375,-0.0960693359375,1.0084228515625,4.33349609375,-0.4882812201976776,1.7089842557907104
23728,0.0380859375,-0.1007080078125,1.0123291015625,3.601073980331421,-0.0610351525247097,1.7700194120407104
23745,0.03955078125,-0.1099853515625,1.045166015625,3.051757574081421,-0.1831054538488388,1.6479490995407104
23776,0.0443115234375,-0.098876953125,1.1214599609375,2.807616949081421,-0.4272460639476776,1.5258787870407104
23792,0.0438232421875,-0.097412109375,1.1180419921875,3.234863042831421,-1.220703125,1.5869139432907104
23808,0.0389404296875,-0.0999755859375,1.077392578125,3.356933355331421,-1.5258787870407104,1.5258787870407104
23843,0.0400390625,-0.1190185546875,1.0789794921875,2.868652105331421,-1.2817381620407104,1.5869139432907104
23855,0.0391845703125,-0.114990234375,1.0638427734375,2.13623046875,-1.9531248807907104,1.4038084745407104
23871,0.037841796875,-0.1063232421875,1.0479736328125,1.7089842557907104,-2.13623046875,1.2817381620407104
23888,0.0350341796875,-0.0966796875,1.0377197265625,1.0986328125,-2.197265625,1.220703125
23909,0.03173828125,-0.095458984375,1.0428466796875,0.4882812201976776,-2.3193359375,1.3427733182907104
23946,-0.0147705078125,-0.1092529296875,1.085693359375,-0.2441406100988388,-1.7089842557907104,1.2817381620407104
23965,-0.0472412109375,-0.237548828125,1.5670166015625,-5.371093273162842,0.0,0.54931640625
23982,0.0357666015625,-0.0980224609375,0.928466796875,-6.958007335662842,0.4272460639476776,0.1220703050494194
23998,0.035400390625,-0.0748291015625,0.8431396484375,-4.45556640625,0.9155272841453552,0.4272460639476776
24015,0.0330810546875,-0.0787353515625,0.96435546875,-6.103515148162842,0.2441406100988388,0.30517578125
24032,0.045654296875,-0.0855712890625,1.1595458984375,-5.310058116912842,0.3662109076976776,0.4272460639476776
24048,0.0333251953125,-0.058837890625,1.0299072265625,-4.69970703125,0.6713866591453552,0.54931640625
24069,0.0238037109375,-0.062744140625,0.989013671875,-4.2724609375,1.7700194120407104,0.8544921278953552
24086,0.0244140625,-0.0638427734375,1.099365234375,-3.784179449081421,3.234863042831421,0.9155272841453552
24102,0.03759765625,-0.0723876953125,1.3421630859375,-2.3193359375,4.08935546875,0.7934569716453552
24135,0.06982421875,-0.0540771484375,1.663818359375,7.324218273162842,2.13623046875,0.2441406100988388
24152,0.0711669921875,-0.0909423828125,1.6275634765625,12.023924827575684,0.6713866591453552,0.1220703050494194
24169,0.0650634765625,-0.126708984375,1.561767578125,13.793944358825684,0.7324218153953552,-0.1220703050494194
24207,0.0758056640625,-0.128173828125,1.5982666015625,17.88330078125,0.7324218153953552,-0.9765624403953552
24223,0.08203125,-0.1180419921875,1.6165771484375,19.04296875,0.54931640625,-1.03759765625
24240,0.0765380859375,-0.124755859375,1.6319580078125,21.240232467651367,-0.1220703050494194,-0.9155272841453552
24254,0.068115234375,-0.148681640625,1.6197509765625,23.498533248901367,-1.2817381620407104,-0.7324218153953552
24270,0.057861328125,-0.1915283203125,1.5408935546875,23.864744186401367,-2.13623046875,-0.8544921278953552
24287,0.052734375,-0.216552734375,1.4920654296875,23.498533248901367,-2.13623046875,-1.15966796875
24317,0.0462646484375,-0.23681640625,1.47509765625,20.812986373901367,-0.9155272841453552,-1.5869139432907104
24338,0.047607421875,-0.217041015625,1.5028076171875,19.53125,-1.4038084745407104,-1.8310545682907104
24354,0.0394287109375,-0.220703125,1.4603271484375,19.22607421875,-2.0751953125,-1.7700194120407104
24366,0.029296875,-0.2425537109375,1.36767578125,17.76123046875,-2.38037109375,-1.7700194120407104
24386,0.0284423828125,-0.2296142578125,1.3326416015625,15.686034202575684,-2.0751953125,-1.7700194120407104
24403,0.0391845703125,-0.1788330078125,1.2943115234375,16.54052734375,-2.50244140625,-1.5258787870407104
24420,0.039794921875,-0.2286376953125,1.2314453125,14.953612327575684,-2.746581792831421,-1.5869139432907104
24437,0.0321044921875,-0.2510986328125,1.1669921875,14.465331077575684,-3.540038824081421,-1.5869139432907104
24458,0.0277099609375,-0.2073974609375,1.08544921875,9.765625,-3.479003667831421,-1.7089842557907104
24474,0.0184326171875,-0.1993408203125,0.9830322265625,9.09423828125,-3.845214605331421,-1.5258787870407104
24486,0.0086669921875,-0.18310546875,0.8511962890625,5.798339366912842,-4.39453125,-1.5869139432907104
24503,0.0032958984375,-0.169921875,0.7783203125,3.356933355331421,-4.45556640625,-1.5258787870407104
24520,0.00146484375,-0.1624755859375,0.722900390625,0.9765624403953552,-3.784179449081421,-1.4648436307907104
24553,0.0081787109375,-0.12353515625,0.6553955078125,-5.065917491912842,-3.601073980331421,-1.0986328125
24572,0.0087890625,-0.1114501953125,0.6038818359375,-8.11767578125,-3.906249761581421,-1.03759765625
24593,0.0084228515625,-0.0985107421875,0.570068359375,-8.6669921875,-4.150390625,-0.9765624403953552
24609,0.0067138671875,-0.09130859375,0.4893798828125,-11.352538108825684,-4.2724609375,-0.6713866591453552
24623,0.003662109375,-0.06787109375,0.42822265625,-12.878417015075684,-3.906249761581421,-0.4272460639476776
24639,0.001953125,-0.07275390625,0.40966796875,-13.793944358825684,-3.540038824081421,-0.2441406100988388
24672,0.00439453125,-0.075439453125,0.4710693359375,-15.686034202575684,-2.624511480331421,-0.1220703050494194
24690,0.004638671875,-0.070068359375,0.4959716796875,-15.869139671325684,-2.807616949081421,-0.1831054538488388
24706,0.0010986328125,-0.0679931640625,0.495361328125,-14.831542015075684,-3.295898199081421,-0.30517578125
24738,0.0001220703125,-0.0621337890625,0.4718017578125,-14.160155296325684,-2.685546636581421,-0.1220703050494194
24755,-0.00146484375,-0.0792236328125,0.4949951171875,-14.038084983825684,-2.0751953125,-0.1831054538488388
24771,-0.0009765625,-0.0889892578125,0.559814453125,-13.977049827575684,-1.8310545682907104,-0.1831054538488388
24788,0.000244140625,-0.086669921875,0.5985107421875,-13.183592796325684,-1.5869139432907104,-0.30517578125
24807,0.0086669921875,-0.077880859375,0.6949462890625,-12.390135765075684,-1.6479490995407104,-0.3662109076976776
24824,0.017822265625,-0.07080078125,0.779541015625,-10.620116233825684,-1.8310545682907104,-0.1220703050494194
24857,0.014892578125,-0.0787353515625,0.8756103515625,-7.263183116912842,-2.01416015625,-0.2441406100988388
24873,0.01318359375,-0.0863037109375,0.933349609375,-5.126952648162842,-2.25830078125,-0.30517578125
24890,0.013427734375,-0.08056640625,0.949951171875,-3.784179449081421,-2.38037109375,-0.30517578125
24911,0.012451171875,-0.077392578125,0.973876953125,-1.3427733182907104,-2.685546636581421,-0.1220703050494194
24977,-0.005126953125,-0.0941162109375,0.97265625,7.141112804412842,-1.6479490995407104,-0.1220703050494194
24994,-0.0006103515625,-0.0938720703125,1.011962890625,9.033203125,-1.3427733182907104,-0.1220703050494194
25011,0.0,-0.097412109375,1.0142822265625,10.070799827575684,-1.5869139432907104,-0.0610351525247097
25028,-0.0037841796875,-0.105712890625,0.96826171875,11.230467796325684,-1.4038084745407104,0.0610351525247097
25051,-0.005859375,-0.1187744140625,0.9661865234375,12.451170921325684,-0.54931640625,0.1220703050494194
25068,-0.00537109375,-0.123779296875,0.9866943359375,13.366698265075684,-0.1831054538488388,0.1220703050494194
25085,-0.0029296875,-0.1259765625,1.005615234375,13.916014671325684,-0.1831054538488388,0.1831054538488388
25105,0.00048828125,-0.1287841796875,1.0054931640625,14.770506858825684,0.0,0.4272460639476776
25121,0.0028076171875,-0.132080078125,1.0087890625,15.014647483825684,0.0610351525247097,0.4882812201976776
25138,0.0010986328125,-0.1436767578125,1.0023193359375,15.014647483825684,0.2441406100988388,0.6103515625
25154,-0.00048828125,-0.1505126953125,1.013916015625,14.770506858825684,0.4882812201976776,0.6713866591453552
25173,-0.0009765625,-0.1617431640625,1.019775390625,14.465331077575684,0.4882812201976776,0.7934569716453552
25193,-0.0013427734375,-0.162109375,1.0150146484375,13.610838890075684,0.4272460639476776,0.8544921278953552
25210,0.000244140625,-0.161865234375,1.0093994140625,12.634276390075684,0.6103515625,0.9765624403953552
25229,0.0040283203125,-0.1658935546875,1.0244140625,11.474608421325684,0.6103515625,1.220703125
25246,0.0035400390625,-0.1756591796875,1.0181884765625,10.070799827575684,0.4272460639476776,1.4038084745407104
25279,0.005615234375,-0.1810302734375,1.02197265625,8.1787109375,0.4882812201976776,1.6479490995407104
25295,0.0069580078125,-0.1763916015625,1.0384521484375,6.896972179412842,0.3662109076976776,1.8310545682907104
25312,0.0064697265625,-0.1744384765625,1.0360107421875,6.408690929412842,0.1220703050494194,1.8920897245407104
25332,0.002685546875,-0.176025390625,1.0203857421875,5.0048828125,0.1220703050494194,2.01416015625
25349,0.00146484375,-0.1796875,1.0106201171875,3.784179449081421,0.1220703050494194,2.13623046875
25366,0.0013427734375,-0.18017578125,0.9993896484375,3.051757574081421,0.1831054538488388,2.197265625
25399,0.0030517578125,-0.176513671875,0.992431640625,0.2441406100988388,0.3662109076976776,2.38037109375
25416,0.0040283203125,-0.1737060546875,0.999267578125,-0.7934569716453552,0.4272460639476776,2.50244140625
25449,0.007080078125,-0.171142578125,1.00927734375,-2.44140625,0.1220703050494194,2.624511480331421
25467,0.0086669921875,-0.1746826171875,1.021728515625,-2.746581792831421,0.1220703050494194,2.624511480331421
25484,0.0107421875,-0.1771240234375,1.0274658203125,-3.601073980331421,-0.1220703050494194,2.746581792831421
25516,0.0057373046875,-0.1712646484375,1.006591796875,-4.638671875,-0.30517578125,2.563476324081421
25532,0.0029296875,-0.169189453125,1.006103515625,-4.7607421875,-0.2441406100988388,2.563476324081421
25549,0.001220703125,-0.167236328125,1.018310546875,-4.94384765625,-0.0610351525247097,2.563476324081421
25565,0.0037841796875,-0.165283203125,1.021728515625,-5.0048828125,-0.1220703050494194,2.44140625
25586,0.0045166015625,-0.16552734375,1.0159912109375,-4.8828125,-0.1831054538488388,2.38037109375
25603,0.005859375,-0.1639404296875,1.0069580078125,-5.065917491912842,-0.1220703050494194,2.38037109375
25618,0.0050048828125,-0.1632080078125,1.0052490234375,-4.94384765625,0.0,2.38037109375
25634,0.0042724609375,-0.1595458984375,1.0084228515625,-4.8828125,0.1220703050494194,2.38037109375
25653,0.00537109375,-0.15869140625,1.0113525390625,-4.7607421875,0.1220703050494194,2.3193359375
25670,0.0072021484375,-0.1602783203125,1.0146484375,-4.7607421875,0.0610351525247097,2.25830078125
25686,0.0089111328125,-0.15966796875,1.0126953125,-4.57763671875,0.0610351525247097,2.197265625
25706,0.008544921875,-0.1593017578125,1.0157470703125,-4.2724609375,0.1831054538488388,2.197265625
25723,0.0067138671875,-0.15771484375,1.012939453125,-3.845214605331421,0.0610351525247097,2.0751953125
25755,0.00830078125,-0.1558837890625,1.0184326171875,-2.868652105331421,0.0610351525247097,1.8920897245407104
25771,0.009033203125,-0.155029296875,1.0218505859375,-2.563476324081421,-0.0610351525247097,1.8310545682907104
25787,0.0078125,-0.1519775390625,1.0179443359375,-1.9531248807907104,-0.1831054538488388,1.7700194120407104
25821,0.00634765625,-0.152099609375,1.0166015625,-0.8544921278953552,-0.1220703050494194,1.7089842557907104
25837,0.007080078125,-0.1494140625,1.0166015625,-0.4272460639476776,-0.1220703050494194,1.6479490995407104
25854,0.007568359375,-0.149658203125,1.0198974609375,0.2441406100988388,0.0610351525247097,1.5258787870407104
25871,0.010986328125,-0.146728515625,1.0308837890625,0.9155272841453552,0.0,1.4648436307907104
25890,0.01513671875,-0.1507568359375,1.0364990234375,1.2817381620407104,-0.1220703050494194,1.5258787870407104
25906,0.0123291015625,-0.151611328125,1.020263671875,1.9531248807907104,-0.30517578125,1.4038084745407104
25937,0.0069580078125,-0.152587890625,0.9952392578125,2.01416015625,-0.1831054538488388,1.3427733182907104
25958,0.0068359375,-0.1534423828125,0.9892578125,1.9531248807907104,-0.0610351525247097,1.3427733182907104
25974,0.00830078125,-0.1539306640625,0.9881591796875,1.7089842557907104,0.0610351525247097,1.220703125
25991,0.007568359375,-0.15380859375,0.9840087890625,1.8310545682907104,0.1831054538488388,1.15966796875
26010,0.0059814453125,-0.1539306640625,0.990478515625,1.8920897245407104,0.30517578125,1.15966796875
26027,0.006103515625,-0.15234375,0.9923095703125,2.0751953125,0.4882812201976776,0.9765624403953552
26056,0.007080078125,-0.1478271484375,1.005126953125,2.746581792831421,0.7324218153953552,0.8544921278953552
26072,0.0076904296875,-0.14990234375,1.01513671875,3.051757574081421,0.6713866591453552,0.8544921278953552
26088,0.009033203125,-0.150146484375,1.02734375,3.601073980331421,0.54931640625,0.8544921278953552
26123,0.010498046875,-0.155029296875,1.029541015625,4.39453125,0.4882812201976776,0.6713866591453552
26138,0.0106201171875,-0.1585693359375,1.0225830078125,4.638671875,0.4882812201976776,0.6103515625
26155,0.0115966796875,-0.157958984375,1.0223388671875,4.8828125,0.4882812201976776,0.4882812201976776
26171,0.0128173828125,-0.158447265625,1.0235595703125,5.126952648162842,0.3662109076976776,0.54931640625
26190,0.0128173828125,-0.161865234375,1.0162353515625,5.065917491912842,0.30517578125,0.4272460639476776
26239,0.0120849609375,-0.1654052734375,1.0096435546875,4.57763671875,0.4272460639476776,0.3662109076976776
26293,0.0162353515625,-0.1712646484375,0.99951171875,3.845214605331421,0.1831054538488388,0.2441406100988388
26310,0.0167236328125,-0.172607421875,1.0074462890625,3.479003667831421,0.1831054538488388,0.2441406100988388
26327,0.0172119140625,-0.17041015625,1.0098876953125,2.990722417831421,-0.0610351525247097,0.30517578125
26358,0.0177001953125,-0.1728515625,1.0047607421875,2.0751953125,-0.4272460639476776,0.1831054538488388
26375,0.017822265625,-0.1739501953125,1.0048828125,1.8920897245407104,-0.54931640625,0.1831054538488388
26391,0.0179443359375,-0.170654296875,1.0037841796875,1.6479490995407104,-0.7324218153953552,0.1831054538488388
26407,0.0198974609375,-0.169189453125,1.0086669921875,1.5258787870407104,-0.7324218153953552,0.1831054538488388
26427,0.019775390625,-0.169677734375,1.0042724609375,1.15966796875,-1.03759765625,0.1831054538488388
26449,0.017578125,-0.16943359375,0.9954833984375,0.7934569716453552,-1.2817381620407104,0.1831054538488388
26465,0.0152587890625,-0.1702880859375,0.9898681640625,0.4882812201976776,-1.0986328125,0.1831054538488388
26482,0.013916015625,-0.173095703125,0.992919921875,0.4272460639476776,-1.03759765625,0.1831054538488388
26499,0.00830078125,-0.1722412109375,0.9893798828125,0.4272460639476776,-1.03759765625,0.1220703050494194
26531,0.0042724609375,-0.169677734375,0.9898681640625,0.7934569716453552,-0.6713866591453552,0.0
26549,0.0032958984375,-0.171630859375,0.9937744140625,0.7934569716453552,-0.6103515625,0.0
26569,0.0040283203125,-0.1751708984375,0.991455078125,0.6103515625,-0.54931640625,0.0
26585,0.0054931640625,-0.177001953125,0.9852294921875,0.1831054538488388,-0.30517578125,0.0610351525247097
26603,0.00537109375,-0.1790771484375,0.9815673828125,-0.3662109076976776,-0.1220703050494194,0.0
26652,0.0064697265625,-0.178955078125,0.976318359375,-1.5258787870407104,0.1831054538488388,0.0
26671,0.00634765625,-0.178466796875,0.98095703125,-1.8310545682907104,0.2441406100988388,-0.0610351525247097
26687,0.0076904296875,-0.17822265625,0.98828125,-1.8920897245407104,0.30517578125,-0.0610351525247097
26724,0.0069580078125,-0.1734619140625,0.9779052734375,-1.8920897245407104,0.0,-0.1220703050494194
26740,0.00732421875,-0.170166015625,0.962890625,-1.9531248807907104,0.0610351525247097,-0.1831054538488388
26757,0.005615234375,-0.170166015625,0.95751953125,-2.0751953125,0.30517578125,-0.1831054538488388
26773,0.0040283203125,-0.1697998046875,0.9639892578125,-2.3193359375,0.4882812201976776,-0.1831054538488388
26790,0.0025634765625,-0.1715087890625,0.96826171875,-2.624511480331421,0.6713866591453552,-0.1831054538488388
26807,0.00439453125,-0.1693115234375,0.97607421875,-2.685546636581421,0.6713866591453552,-0.1831054538488388
26844,0.0167236328125,-0.1629638671875,1.009521484375,-2.3193359375,0.30517578125,-0.1831054538488388
26860,0.0167236328125,-0.164306640625,0.9920654296875,-2.197265625,0.0610351525247097,-0.1831054538488388
26894,0.01416015625,-0.1680908203125,0.9854736328125,-1.7089842557907104,0.1831054538488388,-0.1831054538488388
26910,0.0135498046875,-0.1654052734375,0.9957275390625,-1.5869139432907104,0.1831054538488388,-0.2441406100988388
26927,0.0125732421875,-0.1624755859375,0.9906005859375,-1.0986328125,-0.1831054538488388,-0.30517578125
26957,0.0108642578125,-0.156982421875,0.94482421875,-0.9765624403953552,0.0,-0.30517578125
26978,0.01123046875,-0.15966796875,0.9473876953125,-1.15966796875,0.30517578125,-0.2441406100988388
26995,0.013427734375,-0.160888671875,0.963134765625,-1.220703125,0.30517578125,-0.2441406100988388
27012,0.0152587890625,-0.1568603515625,0.9759521484375,-1.220703125,0.1831054538488388,-0.2441406100988388
27030,0.0135498046875,-0.151611328125,0.964599609375,-1.2817381620407104,-0.1220703050494194,-0.30517578125
27046,0.011962890625,-0.1485595703125,0.9471435546875,-1.3427733182907104,-0.1831054538488388,-0.1831054538488388
27079,0.014892578125,-0.153076171875,0.9847412109375,-1.3427733182907104,0.1831054538488388,-0.1220703050494194
27095,0.015625,-0.1519775390625,1.00537109375,-1.0986328125,0.0,-0.1831054538488388
27116,0.014404296875,-0.1475830078125,1.0281982421875,-0.1831054538488388,-0.4882812201976776,-0.1831054538488388
27132,0.0068359375,-0.14501953125,1.0069580078125,0.30517578125,-0.7324218153953552,-0.1831054538488388
27149,0.0032958984375,-0.14111328125,0.978271484375,1.0986328125,-0.9155272841453552,-0.30517578125
27166,0.0054931640625,-0.136962890625,0.951171875,1.5258787870407104,-0.3662109076976776,-0.2441406100988388
27195,0.016845703125,-0.13427734375,1.0054931640625,2.197265625,-0.30517578125,-0.1831054538488388
27212,0.0150146484375,-0.1319580078125,1.0030517578125,2.929687261581421,-0.7934569716453552,-0.1831054538488388
27229,0.0133056640625,-0.130615234375,0.999267578125,3.356933355331421,-0.9765624403953552,-0.1831054538488388
27245,0.0062255859375,-0.1239013671875,0.9495849609375,3.784179449081421,-1.3427733182907104,-0.0610351525247097
27259,0.0006103515625,-0.1202392578125,0.9017333984375,3.784179449081421,-1.03759765625,0.0610351525247097
27309,0.006591796875,-0.1370849609375,0.99658203125,3.784179449081421,0.0610351525247097,0.30517578125
27329,0.00537109375,-0.1400146484375,1.0101318359375,4.5166015625,-0.30517578125,0.2441406100988388
27345,0.0013427734375,-0.1331787109375,0.978515625,5.187987804412842,-0.6713866591453552,0.30517578125
27366,-0.00146484375,-0.133544921875,0.92724609375,5.065917491912842,-0.0610351525247097,0.4272460639476776
27385,0.002685546875,-0.141357421875,0.9378662109375,4.8828125,0.4882812201976776,0.54931640625
27401,0.0089111328125,-0.1578369140625,1.0167236328125,4.33349609375,1.2817381620407104,0.7324218153953552
27434,0.0135498046875,-0.173095703125,1.0921630859375,4.94384765625,0.6713866591453552,0.6103515625
27451,0.0118408203125,-0.1522216796875,1.024169921875,6.225585460662842,-0.4272460639476776,0.2441406100988388
27468,0.0123291015625,-0.1466064453125,0.9859619140625,6.408690929412842,-0.1220703050494194,0.3662109076976776
27506,0.0169677734375,-0.1602783203125,0.9595947265625,5.737304210662842,0.54931640625,0.6103515625
27556,0.01611328125,-0.1571044921875,0.9892578125,5.0048828125,0.2441406100988388,0.4882812201976776
27572,0.0137939453125,-0.1529541015625,0.9573974609375,4.7607421875,0.0610351525247097,0.54931640625
27589,0.0130615234375,-0.1552734375,0.9544677734375,4.21142578125,0.6713866591453552,0.7934569716453552
27626,0.0186767578125,-0.1671142578125,1.0098876953125,3.173827886581421,0.4882812201976776,0.6713866591453552
27647,0.0230712890625,-0.157958984375,1.0184326171875,2.868652105331421,0.4272460639476776,0.7324218153953552
27659,0.0277099609375,-0.159423828125,1.0341796875,2.685546636581421,0.30517578125,0.7324218153953552
27676,0.0272216796875,-0.158935546875,1.0303955078125,2.50244140625,0.0,0.7324218153953552
27692,0.0223388671875,-0.1580810546875,0.9964599609375,2.13623046875,-0.4882812201976776,0.8544921278953552
27737,0.0206298828125,-0.1611328125,0.971923828125,0.7324218153953552,-0.1220703050494194,1.0986328125
27758,0.0203857421875,-0.1612548828125,0.974853515625,-0.0610351525247097,-0.30517578125,1.15966796875
27774,0.0234375,-0.1573486328125,1.001708984375,-0.3662109076976776,-0.3662109076976776,1.15966796875
27786,0.025634765625,-0.1563720703125,1.0198974609375,-0.54931640625,-0.6713866591453552,1.15966796875
27807,0.0269775390625,-0.1551513671875,1.037841796875,-0.4272460639476776,-0.9765624403953552,1.15966796875
27822,0.02392578125,-0.1534423828125,1.027587890625,0.1220703050494194,-1.4648436307907104,1.03759765625
27839,0.0216064453125,-0.15576171875,1.017822265625,0.6713866591453552,-1.7089842557907104,1.03759765625
27856,0.0194091796875,-0.16162109375,1.00830078125,0.7934569716453552,-1.6479490995407104,0.9765624403953552
27872,0.018310546875,-0.16259765625,1.016845703125,0.8544921278953552,-1.7700194120407104,0.9155272841453552
27889,0.01708984375,-0.1611328125,1.01220703125,0.7934569716453552,-2.13623046875,0.7934569716453552
27910,0.0166015625,-0.1571044921875,0.998046875,0.7324218153953552,-2.44140625,0.8544921278953552
27929,0.0126953125,-0.155517578125,0.9849853515625,0.3662109076976776,-2.13623046875,0.8544921278953552
27945,0.0126953125,-0.15771484375,1.0166015625,0.2441406100988388,-2.13623046875,0.8544921278953552
27977,0.0040283203125,-0.1474609375,0.995361328125,-0.1220703050494194,-2.563476324081421,0.8544921278953552
27993,-0.0001220703125,-0.1453857421875,0.9759521484375,-0.2441406100988388,-2.38037109375,1.03759765625
28010,-0.001708984375,-0.1455078125,0.9720458984375,-0.1831054538488388,-2.25830078125,1.0986328125
28052,-0.0081787109375,-0.1629638671875,0.997314453125,-0.3662109076976776,-1.6479490995407104,1.03759765625
28064,-0.0062255859375,-0.162109375,1.0302734375,0.1220703050494194,-1.6479490995407104,1.03759765625
28081,-0.0068359375,-0.157470703125,1.0321044921875,0.4882812201976776,-1.8310545682907104,0.9765624403953552
28095,-0.0107421875,-0.1427001953125,0.9930419921875,0.9765624403953552,-1.8310545682907104,0.9155272841453552
28111,-0.0113525390625,-0.142578125,0.9818115234375,1.5869139432907104,-1.15966796875,1.15966796875
28128,-0.012451171875,-0.1507568359375,0.992919921875,2.01416015625,-0.4272460639476776,1.2817381620407104
28159,-0.015625,-0.1551513671875,0.9974365234375,2.38037109375,0.0,1.2817381620407104
28179,-0.0123291015625,-0.150146484375,1.010009765625,2.868652105331421,0.4272460639476776,1.2817381620407104
28195,-0.009765625,-0.1455078125,0.993408203125,3.112792730331421,0.54931640625,1.3427733182907104
28212,-0.0074462890625,-0.146728515625,0.992431640625,3.601073980331421,1.3427733182907104,1.5869139432907104
28230,-0.0023193359375,-0.15966796875,1.010986328125,3.601073980331421,1.8310545682907104,1.6479490995407104
28247,0.0023193359375,-0.1693115234375,1.0335693359375,3.540038824081421,2.0751953125,1.6479490995407104
28281,0.0052490234375,-0.162353515625,1.0452880859375,3.601073980331421,2.13623046875,1.6479490995407104
28302,0.0120849609375,-0.1693115234375,1.0926513671875,3.906249761581421,2.44140625,1.8310545682907104
28318,0.019287109375,-0.1798095703125,1.146728515625,4.21142578125,2.13623046875,1.8310545682907104
28363,0.01953125,-0.1873779296875,1.0994873046875,5.493163585662842,0.30517578125,1.6479490995407104
28410,0.019775390625,-0.200439453125,1.1275634765625,4.638671875,-0.2441406100988388,1.7700194120407104
28422,0.01953125,-0.2034912109375,1.122802734375,4.45556640625,-0.6713866591453552,1.7700194120407104
28455,0.0145263671875,-0.2081298828125,1.1014404296875,3.356933355331421,-1.5258787870407104,1.8310545682907104
28472,0.0135498046875,-0.2142333984375,1.103759765625,2.990722417831421,-1.5869139432907104,1.8310545682907104
28489,0.012939453125,-0.22265625,1.1160888671875,2.25830078125,-2.25830078125,1.8310545682907104
28510,0.00732421875,-0.2171630859375,1.0771484375,1.5258787870407104,-2.746581792831421,1.7089842557907104
28529,0.003173828125,-0.214599609375,1.03125,1.03759765625,-2.868652105331421,1.7089842557907104
28544,0.0010986328125,-0.210205078125,1.02392578125,0.0,-2.38037109375,1.7700194120407104
28575,0.0001220703125,-0.2158203125,1.072021484375,-1.4648436307907104,-2.197265625,1.7700194120407104
28591,-0.0008544921875,-0.21240234375,1.072265625,-1.8310545682907104,-2.3193359375,1.6479490995407104
28608,-0.0001220703125,-0.2032470703125,1.0689697265625,-1.8310545682907104,-2.50244140625,1.7700194120407104
28641,-0.002685546875,-0.201904296875,1.046875,-1.8310545682907104,-2.0751953125,1.8310545682907104
28662,-0.0040283203125,-0.20751953125,1.032470703125,-2.01416015625,-1.8920897245407104,1.7700194120407104
28695,-0.0029296875,-0.19873046875,1.0345458984375,-2.01416015625,-1.0986328125,1.7089842557907104
28712,-0.00390625,-0.1907958984375,1.0501708984375,-1.4038084745407104,-0.8544921278953552,1.7700194120407104
28728,-0.0047607421875,-0.181396484375,1.02392578125,-1.0986328125,-0.8544921278953552,1.7700194120407104
28766,0.00048828125,-0.1861572265625,1.024658203125,0.4882812201976776,0.6713866591453552,2.01416015625
28782,0.0020751953125,-0.189697265625,1.0325927734375,0.7934569716453552,0.8544921278953552,2.01416015625
28814,0.0054931640625,-0.1817626953125,1.0126953125,1.5869139432907104,0.7324218153953552,1.7089842557907104
28831,0.0093994140625,-0.171875,0.995361328125,2.13623046875,1.4038084745407104,1.8310545682907104
28847,0.013671875,-0.1773681640625,1.0084228515625,2.25830078125,1.6479490995407104,1.8920897245407104
28881,0.0216064453125,-0.19384765625,1.0567626953125,3.112792730331421,1.4648436307907104,1.8310545682907104
28898,-0.00048828125,-0.190673828125,1.0189208984375,2.990722417831421,1.8310545682907104,1.7700194120407104
28917,-0.0224609375,-0.1927490234375,0.9771728515625,1.2817381620407104,3.417968511581421,1.9531248807907104
28933,-0.0006103515625,-0.1749267578125,0.9376220703125,-4.21142578125,7.690429210662842,2.38037109375
28995,0.0435791015625,-0.1881103515625,1.0294189453125,-2.563476324081421,6.103515148162842,1.8920897245407104
29014,0.05078125,-0.1820068359375,1.052490234375,-2.929687261581421,5.493163585662842,1.7089842557907104
29031,0.052001953125,-0.1846923828125,1.0487060546875,-1.6479490995407104,4.638671875,1.5869139432907104
29100,-0.023681640625,-0.1685791015625,0.9241943359375,1.3427733182907104,-5.371093273162842,-0.8544921278953552
29134,0.01416015625,-0.1478271484375,0.8724365234375,1.0986328125,1.7089842557907104,0.7324218153953552
29168,0.006103515625,-0.1728515625,0.9725341796875,0.6103515625,0.4272460639476776,0.4272460639476776
29190,0.0294189453125,-0.2064208984375,1.2496337890625,-0.30517578125,0.1831054538488388,0.30517578125
29202,0.0384521484375,-0.207275390625,1.1749267578125,-1.220703125,-1.15966796875,0.2441406100988388
29234,0.0245361328125,-0.1702880859375,0.898681640625,-1.3427733182907104,0.3662109076976776,0.7324218153953552
29266,0.01904296875,-0.1842041015625,1.012939453125,-3.112792730331421,-0.4882812201976776,0.30517578125
29308,0.026611328125,-0.1751708984375,1.0384521484375,-4.0283203125,0.2441406100988388,0.6713866591453552
29320,0.0286865234375,-0.1727294921875,1.028076171875,-4.33349609375,-0.1831054538488388,0.54931640625
29353,0.02392578125,-0.1644287109375,1.004638671875,-4.57763671875,-0.2441406100988388,0.6103515625
29371,0.022705078125,-0.1673583984375,1.0224609375,-4.82177734375,-0.0610351525247097,0.54931640625
29388,0.022705078125,-0.1666259765625,1.010498046875,-5.126952648162842,0.1220703050494194,0.7324218153953552
29423,0.0272216796875,-0.1607666015625,1.0189208984375,-5.432128429412842,0.3662109076976776,0.6103515625
29439,0.0274658203125,-0.1505126953125,1.0172119140625,-5.371093273162842,0.2441406100988388,0.54931640625
29456,0.0260009765625,-0.1480712890625,1.013671875,-5.126952648162842,0.2441406100988388,0.54931640625
29473,0.0225830078125,-0.14697265625,1.0113525390625,-4.69970703125,0.4882812201976776,0.6713866591453552
29489,0.0213623046875,-0.1510009765625,1.0194091796875,-4.45556640625,0.7324218153953552,0.7324218153953552
29505,0.0228271484375,-0.1478271484375,1.0302734375,-4.0283203125,1.03759765625,0.6103515625
29537,0.0244140625,-0.1312255859375,1.0263671875,-2.929687261581421,0.9155272841453552,0.54931640625
29559,0.02490234375,-0.13818359375,1.0562744140625,-1.7700194120407104,1.2817381620407104,0.7324218153953552
29575,0.0318603515625,-0.1571044921875,1.15234375,-0.6713866591453552,0.9765624403953552,0.6103515625
29592,0.03955078125,-0.169189453125,1.21923828125,-0.1831054538488388,0.9155272841453552,0.4882812201976776
29609,0.0462646484375,-0.1695556640625,1.2646484375,1.3427733182907104,0.4272460639476776,0.30517578125
29675,0.0279541015625,-0.1702880859375,1.2001953125,5.859374523162842,-0.4882812201976776,0.0610351525247097
29730,0.0499267578125,-0.196044921875,1.2999267578125,9.21630859375,-1.15966796875,-0.4882812201976776
29741,0.0404052734375,-0.1964111328125,1.2669677734375,11.291502952575684,-1.3427733182907104,-0.6103515625
29775,0.032958984375,-0.2073974609375,1.2623291015625,13.427733421325684,-1.3427733182907104,-1.0986328125
29791,0.0289306640625,-0.2056884765625,1.2266845703125,14.160155296325684,-1.5869139432907104,-1.3427733182907104
29808,0.0291748046875,-0.203857421875,1.2049560546875,14.221190452575684,-1.4038084745407104,-1.3427733182907104
29843,0.0408935546875,-0.2294921875,1.2584228515625,14.160155296325684,-0.8544921278953552,-1.4038084745407104
29859,0.0404052734375,-0.2274169921875,1.2840576171875,14.343260765075684,-1.03759765625,-1.6479490995407104
29876,0.039306640625,-0.2261962890625,1.302001953125,14.953612327575684,-1.03759765625,-1.7700194120407104
29896,0.0361328125,-0.228271484375,1.32177734375,15.624999046325684,-1.5869139432907104,-1.8920897245407104
29913,0.030517578125,-0.2371826171875,1.298828125,15.747069358825684,-1.7089842557907104,-1.8310545682907104
29930,0.028564453125,-0.2479248046875,1.2713623046875,15.136717796325684,-1.6479490995407104,-1.9531248807907104
29966,0.028076171875,-0.257568359375,1.2398681640625,13.366698265075684,-1.220703125,-2.197265625
29986,0.0286865234375,-0.2445068359375,1.203857421875,11.840819358825684,-0.9765624403953552,-2.197265625
30002,0.02685546875,-0.22998046875,1.177490234375,11.108397483825684,-0.7934569716453552,-2.0751953125
30023,0.0247802734375,-0.2283935546875,1.168212890625,9.21630859375,-0.54931640625,-1.7089842557907104
30035,0.019287109375,-0.2320556640625,1.13330078125,7.263183116912842,-0.4882812201976776,-1.6479490995407104
30051,0.015625,-0.234375,1.1029052734375,6.164550304412842,-0.2441406100988388,-1.6479490995407104
30068,0.0164794921875,-0.23681640625,1.112060546875,4.150390625,0.2441406100988388,-1.5869139432907104
30135,0.017578125,-0.222412109375,1.0570068359375,-1.5869139432907104,-0.30517578125,-1.5258787870407104
30159,0.0120849609375,-0.2144775390625,1.046630859375,-2.685546636581421,-0.6103515625,-1.6479490995407104
30175,0.009033203125,-0.1988525390625,0.998291015625,-3.601073980331421,-1.0986328125,-1.7700194120407104
30192,0.0072021484375,-0.1827392578125,0.9324951171875,-3.906249761581421,-1.220703125,-1.7089842557907104
30209,0.0067138671875,-0.1773681640625,0.906005859375,-5.0048828125,-1.0986328125,-1.6479490995407104
30225,0.005859375,-0.16650390625,0.845458984375,-6.408690929412842,-1.2817381620407104,-1.5869139432907104
30259,0.0029296875,-0.1539306640625,0.755859375,-9.033203125,-0.8544921278953552,-1.4038084745407104
30275,0.0029296875,-0.1517333984375,0.7403564453125,-10.620116233825684,-0.54931640625,-1.220703125
30291,0.000244140625,-0.1419677734375,0.716064453125,-11.779784202575684,-0.7324218153953552,-1.220703125
30308,-0.0023193359375,-0.1334228515625,0.6925048828125,-12.145995140075684,-0.6713866591453552,-1.220703125
30333,-0.002685546875,-0.1195068359375,0.646728515625,-12.634276390075684,-0.30517578125,-1.0986328125
30349,0.001708984375,-0.1077880859375,0.6217041015625,-12.878417015075684,-0.0610351525247097,-1.03759765625
30366,0.00244140625,-0.1055908203125,0.603271484375,-13.061522483825684,0.3662109076976776,-0.7934569716453552
30387,0.0068359375,-0.1077880859375,0.61767578125,-13.183592796325684,0.6713866591453552,-0.6713866591453552
30403,0.0091552734375,-0.1087646484375,0.635009765625,-13.183592796325684,0.6713866591453552,-0.7324218153953552
30437,0.015869140625,-0.104248046875,0.639404296875,-12.451170921325684,0.2441406100988388,-0.7324218153953552
30454,0.01904296875,-0.107421875,0.6583251953125,-11.718749046325684,0.3662109076976776,-0.6103515625
30475,0.02392578125,-0.115966796875,0.7034912109375,-11.413573265075684,0.30517578125,-0.6103515625
30491,0.02197265625,-0.1221923828125,0.7054443359375,-10.681151390075684,-0.30517578125,-0.7934569716453552
30508,0.0203857421875,-0.1185302734375,0.706787109375,-9.94873046875,-0.30517578125,-0.9155272841453552
30525,0.0186767578125,-0.1195068359375,0.730224609375,-9.58251953125,-0.2441406100988388,-0.9155272841453552
30556,0.02294921875,-0.1243896484375,0.8040771484375,-8.11767578125,-0.3662109076976776,-0.8544921278953552
30572,0.0179443359375,-0.13037109375,0.8472900390625,-6.896972179412842,-0.4272460639476776,-0.7324218153953552
30589,0.0150146484375,-0.1361083984375,0.8741455078125,-5.981444835662842,-0.3662109076976776,-0.7934569716453552
30610,0.01171875,-0.131591796875,0.93798828125,-3.540038824081421,-0.4272460639476776,-0.9155272841453552
30627,0.0106201171875,-0.1270751953125,0.985595703125,-0.54931640625,-0.7324218153953552,-0.7934569716453552
30643,0.0093994140625,-0.1358642578125,0.9847412109375,1.03759765625,-0.9155272841453552,-0.6713866591453552
30674,0.010498046875,-0.1524658203125,0.9940185546875,5.249022960662842,-0.7324218153953552,-0.54931640625
30690,0.0108642578125,-0.156005859375,1.00732421875,7.690429210662842,-0.3662109076976776,-0.6103515625
30737,0.0128173828125,-0.1666259765625,0.997802734375,12.145995140075684,-0.3662109076976776,-0.30517578125
30758,0.0181884765625,-0.1839599609375,1.0113525390625,12.817381858825684,-0.30517578125,-0.2441406100988388
30774,0.0213623046875,-0.1905517578125,1.02001953125,13.000487327575684,-0.4882812201976776,-0.30517578125
30791,0.0216064453125,-0.1876220703125,1.011474609375,13.122557640075684,-0.7934569716453552,-0.3662109076976776
30857,0.0169677734375,-0.199462890625,1.0128173828125,11.108397483825684,-1.3427733182907104,0.0610351525247097
30879,0.0164794921875,-0.1990966796875,1.0120849609375,10.314940452575684,-1.6479490995407104,0.1220703050494194
30895,0.0162353515625,-0.1982421875,1.01806640625,9.94873046875,-1.7089842557907104,0.2441406100988388
30912,0.016845703125,-0.2008056640625,1.0262451171875,9.46044921875,-2.01416015625,0.4272460639476776
30929,0.0137939453125,-0.2012939453125,1.0364990234375,8.97216796875,-2.624511480331421,0.3662109076976776
30945,0.0069580078125,-0.20068359375,1.022705078125,8.72802734375,-2.807616949081421,0.4272460639476776
30979,0.0035400390625,-0.2027587890625,1.02734375,7.934569835662842,-2.868652105331421,0.4272460639476776
31027,0.000244140625,-0.202880859375,0.998291015625,6.713866710662842,-2.929687261581421,0.6713866591453552
31049,-0.0015869140625,-0.204345703125,0.9871826171875,6.164550304412842,-2.807616949081421,0.6713866591453552
31097,-0.00390625,-0.2022705078125,0.9794921875,4.69970703125,-1.8920897245407104,0.6103515625
31113,-0.00244140625,-0.20361328125,0.9788818359375,4.39453125,-1.7700194120407104,0.6713866591453552
31130,-0.0025634765625,-0.2052001953125,0.9771728515625,3.967284917831421,-1.5869139432907104,0.7324218153953552
31166,-0.0029296875,-0.20654296875,0.9814453125,2.685546636581421,-0.8544921278953552,0.7324218153953552
31188,-0.0025634765625,-0.2086181640625,0.9774169921875,2.44140625,-0.6713866591453552,0.7324218153953552
31204,-0.0035400390625,-0.2099609375,0.9710693359375,1.7700194120407104,-0.4272460639476776,0.7934569716453552
31225,-0.00244140625,-0.20947265625,0.97119140625,1.220703125,-0.0610351525247097,0.8544921278953552
31242,-0.0006103515625,-0.2113037109375,0.98193359375,0.6713866591453552,0.3662109076976776,0.8544921278953552
31258,0.0010986328125,-0.2127685546875,0.9940185546875,0.4272460639476776,0.4882812201976776,0.8544921278953552
31275,0.0030517578125,-0.2125244140625,0.99658203125,0.0,0.6103515625,0.9155272841453552
31292,0.0030517578125,-0.212158203125,0.9954833984375,-0.1220703050494194,0.7324218153953552,0.8544921278953552
31308,0.0020751953125,-0.210693359375,0.9991455078125,-0.30517578125,0.9765624403953552,0.8544921278953552
31344,0.006591796875,-0.2158203125,1.01611328125,-0.7324218153953552,0.9155272841453552,0.9155272841453552
31360,0.0093994140625,-0.2139892578125,1.0118408203125,-1.2817381620407104,0.7934569716453552,0.8544921278953552
31377,0.0108642578125,-0.210693359375,1.0040283203125,-1.4648436307907104,0.7324218153953552,0.8544921278953552
31427,0.008056640625,-0.2113037109375,1.0098876953125,-2.44140625,0.3662109076976776,0.7934569716453552
31469,0.008544921875,-0.203857421875,1.00537109375,-2.50244140625,0.1831054538488388,0.7934569716453552
31481,0.0087890625,-0.2025146484375,1.006103515625,-2.44140625,0.1220703050494194,0.7934569716453552
31514,0.0062255859375,-0.2012939453125,0.991943359375,-2.01416015625,-0.1831054538488388,0.6713866591453552
31531,0.0037841796875,-0.2000732421875,0.98388671875,-1.6479490995407104,-0.2441406100988388,0.6103515625
31547,0.0010986328125,-0.1978759765625,0.977783203125,-1.220703125,-0.0610351525247097,0.4882812201976776
31579,0.001220703125,-0.192626953125,0.97607421875,-0.2441406100988388,0.0,0.4272460639476776
31595,0.001953125,-0.191650390625,0.9736328125,0.1220703050494194,0.0,0.3662109076976776
31612,0.0010986328125,-0.1893310546875,0.966796875,0.8544921278953552,0.0,0.3662109076976776
31629,-0.0040283203125,-0.18505859375,0.9385986328125,1.15966796875,0.0,0.3662109076976776
31648,-0.00439453125,-0.185546875,0.9168701171875,1.6479490995407104,0.1831054538488388,0.3662109076976776
31664,-0.0009765625,-0.1905517578125,0.91064453125,1.6479490995407104,0.4882812201976776,0.3662109076976776
31697,0.0050048828125,-0.199951171875,0.9246826171875,1.03759765625,0.7934569716453552,0.2441406100988388
31714,0.0059814453125,-0.199951171875,0.931884765625,1.0986328125,0.7934569716453552,0.2441406100988388
31730,0.0045166015625,-0.2021484375,0.937255859375,1.220703125,0.7324218153953552,0.1831054538488388
31747,0.0042724609375,-0.2000732421875,0.932861328125,1.2817381620407104,0.6713866591453552,0.1220703050494194
31765,0.0037841796875,-0.2022705078125,0.905517578125,1.4038084745407104,0.6713866591453552,0.1220703050494194
31781,0.0045166015625,-0.2037353515625,0.9013671875,1.0986328125,1.0986328125,0.1831054538488388
31797,0.0081787109375,-0.2117919921875,0.9342041015625,0.4882812201976776,1.15966796875,0.1831054538488388
31813,0.00927734375,-0.2130126953125,0.9456787109375,0.1831054538488388,0.9765624403953552,0.1831054538488388
31867,0.001220703125,-0.2052001953125,0.921630859375,-1.4038084745407104,0.9765624403953552,0.0
31887,0.0010986328125,-0.2039794921875,0.9224853515625,-2.3193359375,1.15966796875,0.1220703050494194
31904,0.005859375,-0.2110595703125,0.95654296875,-3.051757574081421,1.220703125,0.1220703050494194
31921,0.0098876953125,-0.2144775390625,0.9666748046875,-3.723144292831421,0.6103515625,-0.0610351525247097
31938,0.0128173828125,-0.2080078125,0.9476318359375,-4.39453125,0.30517578125,-0.0610351525247097
31959,0.012451171875,-0.2052001953125,0.9371337890625,-4.82177734375,0.30517578125,0.0
31975,0.0101318359375,-0.2015380859375,0.92919921875,-5.676269054412842,0.3662109076976776,0.0
31992,0.01318359375,-0.2008056640625,0.9315185546875,-6.469726085662842,0.0,0.0
32009,0.0137939453125,-0.1884765625,0.9044189453125,-7.019042491912842,-0.2441406100988388,0.0
32025,0.01611328125,-0.17919921875,0.8853759765625,-7.934569835662842,-0.30517578125,0.0
32055,0.0223388671875,-0.177978515625,0.9263916015625,-9.033203125,0.0610351525247097,0.30517578125
32071,0.026611328125,-0.1793212890625,0.97412109375,-9.033203125,0.1831054538488388,0.1220703050494194
32109,0.03369140625,-0.16015625,1.050048828125,-7.019042491912842,-2.0751953125,-0.3662109076976776
32128,0.01806640625,-0.146240234375,0.951904296875,-5.676269054412842,-2.685546636581421,-0.30517578125
32143,0.0145263671875,-0.1455078125,0.9278564453125,-4.69970703125,-1.7700194120407104,-0.2441406100988388
32175,0.0164794921875,-0.1502685546875,1.0264892578125,-2.746581792831421,-1.7089842557907104,-0.4272460639476776
32191,0.0115966796875,-0.1485595703125,1.018310546875,-0.6713866591453552,-2.44140625,-0.6713866591453552
32208,0.00732421875,-0.1436767578125,0.9814453125,1.4038084745407104,-2.38037109375,-0.8544921278953552
32245,0.013916015625,-0.1378173828125,0.9676513671875,3.112792730331421,-2.01416015625,-0.9155272841453552
32261,0.01611328125,-0.1312255859375,0.9539794921875,3.540038824081421,-2.0751953125,-0.7934569716453552
32278,0.0157470703125,-0.14501953125,0.985107421875,4.39453125,-1.6479490995407104,-0.6103515625
32294,0.0150146484375,-0.154541015625,1.0023193359375,5.187987804412842,-1.9531248807907104,-0.6103515625
32311,0.009765625,-0.15625,0.9822998046875,5.737304210662842,-2.197265625,-0.8544921278953552
32328,0.0086669921875,-0.1475830078125,0.94580078125,6.042479991912842,-2.0751953125,-0.7934569716453552
32360,0.003662109375,-0.144287109375,0.91943359375,6.225585460662842,-1.0986328125,-0.6103515625
32414,0.010009765625,-0.160888671875,1.022216796875,6.835937023162842,-0.54931640625,-0.54931640625
32431,0.013916015625,-0.1634521484375,1.02783203125,7.202147960662842,-0.4882812201976776,-0.54931640625
32480,0.0029296875,-0.1549072265625,0.954345703125,7.568358898162842,0.0610351525247097,-0.4272460639476776
32496,0.001953125,-0.151611328125,0.9405517578125,7.202147960662842,0.4272460639476776,-0.30517578125
32517,0.005859375,-0.149169921875,0.9525146484375,6.225585460662842,0.8544921278953552,-0.1220703050494194
32533,0.0087890625,-0.154296875,0.9715576171875,5.065917491912842,1.15966796875,0.0610351525247097
32550,0.00927734375,-0.1622314453125,1.0115966796875,4.7607421875,1.2817381620407104,0.1831054538488388
32567,0.009033203125,-0.166015625,1.0341796875,4.39453125,1.15966796875,0.30517578125
32600,-0.0035400390625,-0.1578369140625,1.0296630859375,4.21142578125,1.03759765625,0.7324218153953552
32649,0.0009765625,-0.1910400390625,1.0804443359375,3.723144292831421,1.220703125,1.15966796875
32669,0.004638671875,-0.19140625,1.067626953125,3.601073980331421,0.9765624403953552,1.0986328125
32686,0.007080078125,-0.179931640625,1.0458984375,3.112792730331421,0.54931640625,1.220703125
32716,0.01025390625,-0.17822265625,1.0302734375,2.197265625,1.0986328125,1.6479490995407104
32733,0.009521484375,-0.186767578125,1.0428466796875,1.4648436307907104,0.9155272841453552,1.8920897245407104
32749,0.01025390625,-0.1976318359375,1.0640869140625,0.7324218153953552,0.4272460639476776,1.8310545682907104
32781,0.01220703125,-0.1942138671875,1.04736328125,-0.54931640625,-0.2441406100988388,1.7089842557907104
32798,0.0118408203125,-0.18994140625,1.0279541015625,-0.9765624403953552,-0.1831054538488388,1.8920897245407104
32818,0.0179443359375,-0.197021484375,1.0501708984375,-1.6479490995407104,0.1831054538488388,2.0751953125
32834,0.0216064453125,-0.2093505859375,1.0799560546875,-1.9531248807907104,-0.2441406100988388,2.0751953125
32851,0.0201416015625,-0.2144775390625,1.0941162109375,-2.01416015625,-0.4272460639476776,2.01416015625
32868,0.018798828125,-0.217529296875,1.09423828125,-2.197265625,-0.9155272841453552,2.01416015625
32888,0.0096435546875,-0.208740234375,1.05615234375,-2.38037109375,-1.0986328125,1.7700194120407104
32906,0.0081787109375,-0.2017822265625,1.0587158203125,-2.25830078125,-0.8544921278953552,1.7700194120407104
