tMillis,ax,ay,az,gx,gy,gz
130516,0.0084228515625,-0.331787109375,0.9698486328125,0.9765624403953552,-0.1220703050494194,0.3662109076976776
130533,0.0084228515625,-0.3309326171875,0.9671630859375,0.9765624403953552,-0.2441406100988388,0.3662109076976776
130553,0.0084228515625,-0.3319091796875,0.9696044921875,0.9155272841453552,-0.2441406100988388,0.3662109076976776
130577,0.0084228515625,-0.33154296875,0.969970703125,0.9765624403953552,-0.2441406100988388,0.4272460639476776
130593,0.00830078125,-0.3311767578125,0.968017578125,0.9765624403953552,-0.1831054538488388,0.4272460639476776
130605,0.0091552734375,-0.3309326171875,0.9674072265625,0.9155272841453552,-0.1220703050494194,0.3662109076976776
130624,0.0096435546875,-0.331787109375,0.9678955078125,0.9155272841453552,-0.1220703050494194,0.30517578125
130644,0.0086669921875,-0.332275390625,0.9686279296875,0.9765624403953552,-0.2441406100988388,0.30517578125
130663,0.0084228515625,-0.3316650390625,0.9703369140625,0.9765624403953552,-0.30517578125,0.30517578125
130680,0.0091552734375,-0.33349609375,0.9722900390625,0.9765624403953552,-0.2441406100988388,0.3662109076976776
130697,0.0087890625,-0.3331298828125,0.9715576171875,1.03759765625,-0.2441406100988388,0.3662109076976776
130718,0.0084228515625,-0.332763671875,0.971435546875,1.03759765625,-0.1831054538488388,0.3662109076976776
130736,0.0078125,-0.3302001953125,0.9622802734375,1.03759765625,-0.1831054538488388,0.4272460639476776
130756,0.009521484375,-0.330322265625,0.9639892578125,0.9765624403953552,-0.1831054538488388,0.30517578125
130774,0.009033203125,-0.3323974609375,0.970703125,1.0986328125,-0.30517578125,0.3662109076976776
130790,0.0078125,-0.3319091796875,0.970703125,0.9765624403953552,-0.30517578125,0.3662109076976776
130807,0.0074462890625,-0.332275390625,0.9700927734375,0.9765624403953552,-0.2441406100988388,0.30517578125
130822,0.0086669921875,-0.330322265625,0.9681396484375,1.03759765625,-0.2441406100988388,0.30517578125
130838,0.0087890625,-0.33154296875,0.9681396484375,1.03759765625,-0.2441406100988388,0.3662109076976776
130857,0.0079345703125,-0.333740234375,0.9688720703125,0.9765624403953552,-0.2441406100988388,0.3662109076976776
130876,0.007080078125,-0.3321533203125,0.9686279296875,1.03759765625,-0.1831054538488388,0.4272460639476776
130888,0.0074462890625,-0.3330078125,0.970703125,0.9765624403953552,-0.1831054538488388,0.3662109076976776
130908,0.0084228515625,-0.33251953125,0.9686279296875,0.9765624403953552,-0.1831054538488388,0.3662109076976776
130927,0.0091552734375,-0.3314208984375,0.968017578125,0.9765624403953552,-0.2441406100988388,0.3662109076976776
130946,0.009033203125,-0.333251953125,0.9703369140625,0.9765624403953552,-0.2441406100988388,0.4272460639476776
130970,0.0079345703125,-0.3321533203125,0.967041015625,0.9765624403953552,-0.2441406100988388,0.4272460639476776
130987,0.0086669921875,-0.332763671875,0.9678955078125,1.03759765625,-0.1831054538488388,0.4272460639476776
131004,0.0089111328125,-0.3333740234375,0.969482421875,0.9765624403953552,-0.1831054538488388,0.4272460639476776
131021,0.0076904296875,-0.33349609375,0.968994140625,1.03759765625,-0.2441406100988388,0.3662109076976776
131041,0.0067138671875,-0.3326416015625,0.9691162109375,1.03759765625,-0.2441406100988388,0.30517578125
131059,0.0078125,-0.3331298828125,0.96728515625,1.03759765625,-0.1831054538488388,0.30517578125
131083,0.0086669921875,-0.3341064453125,0.96826171875,1.03759765625,-0.1831054538488388,0.30517578125
131100,0.008544921875,-0.333251953125,0.9698486328125,1.03759765625,-0.2441406100988388,0.3662109076976776
131112,0.007568359375,-0.333251953125,0.96875,1.03759765625,-0.2441406100988388,0.3662109076976776
131132,0.0081787109375,-0.3336181640625,0.966796875,1.03759765625,-0.1220703050494194,0.3662109076976776
131151,0.00830078125,-0.333984375,0.9669189453125,0.9765624403953552,-0.2441406100988388,0.3662109076976776
131170,0.007080078125,-0.3341064453125,0.9696044921875,1.03759765625,-0.2441406100988388,0.3662109076976776
131192,0.008056640625,-0.3338623046875,0.9708251953125,1.03759765625,-0.1831054538488388,0.3662109076976776
131209,0.008056640625,-0.333984375,0.968505859375,1.03759765625,-0.2441406100988388,0.3662109076976776
131221,0.008544921875,-0.3333740234375,0.9683837890625,1.03759765625,-0.2441406100988388,0.3662109076976776
131233,0.008544921875,-0.3341064453125,0.9676513671875,1.03759765625,-0.1831054538488388,0.3662109076976776
131250,0.0079345703125,-0.3343505859375,0.9669189453125,1.0986328125,-0.1220703050494194,0.3662109076976776
131268,0.0079345703125,-0.3333740234375,0.967529296875,0.9765624403953552,-0.1831054538488388,0.3662109076976776
131287,0.0084228515625,-0.3338623046875,0.9688720703125,1.03759765625,-0.2441406100988388,0.30517578125
131310,0.0089111328125,-0.3345947265625,0.9697265625,1.03759765625,-0.2441406100988388,0.4272460639476776
131326,0.0081787109375,-0.3345947265625,0.9676513671875,1.03759765625,-0.1831054538488388,0.4272460639476776
131343,0.0074462890625,-0.3336181640625,0.9661865234375,0.9765624403953552,-0.1220703050494194,0.3662109076976776
131362,0.0079345703125,-0.334228515625,0.9674072265625,0.9765624403953552,-0.2441406100988388,0.3662109076976776
131381,0.0079345703125,-0.3350830078125,0.96826171875,0.9155272841453552,-0.1831054538488388,0.30517578125
131400,0.008544921875,-0.33544921875,0.9683837890625,0.9765624403953552,-0.1220703050494194,0.30517578125
131418,0.0076904296875,-0.335205078125,0.9678955078125,1.03759765625,-0.1220703050494194,0.3662109076976776
131435,0.00830078125,-0.3349609375,0.9656982421875,0.9765624403953552,-0.1220703050494194,0.4272460639476776
131454,0.008544921875,-0.3348388671875,0.966796875,1.03759765625,-0.1220703050494194,0.4272460639476776
131473,0.0089111328125,-0.3341064453125,0.9674072265625,1.03759765625,-0.1220703050494194,0.3662109076976776
131492,0.0091552734375,-0.335205078125,0.970458984375,1.03759765625,-0.1220703050494194,0.3662109076976776
131511,0.0096435546875,-0.3350830078125,0.9693603515625,0.9765624403953552,-0.1220703050494194,0.3662109076976776
131536,0.0086669921875,-0.33544921875,0.9683837890625,1.03759765625,-0.1831054538488388,0.4272460639476776
131557,0.007080078125,-0.33544921875,0.9669189453125,0.9765624403953552,-0.1831054538488388,0.3662109076976776
131569,0.0081787109375,-0.33544921875,0.9676513671875,0.9765624403953552,-0.1831054538488388,0.3662109076976776
131585,0.0087890625,-0.3348388671875,0.9669189453125,0.9765624403953552,-0.1831054538488388,0.4272460639476776
131604,0.0086669921875,-0.335693359375,0.9693603515625,1.03759765625,-0.2441406100988388,0.3662109076976776
131623,0.0084228515625,-0.3360595703125,0.969482421875,0.9765624403953552,-0.1831054538488388,0.30517578125
131642,0.00830078125,-0.336181640625,0.968017578125,1.03759765625,-0.1831054538488388,0.30517578125
131662,0.0087890625,-0.3349609375,0.967041015625,0.9765624403953552,-0.1220703050494194,0.3662109076976776
131678,0.0087890625,-0.3353271484375,0.965576171875,1.03759765625,-0.1220703050494194,0.3662109076976776
131695,0.0081787109375,-0.335693359375,0.9669189453125,1.0986328125,-0.1831054538488388,0.4272460639476776
131711,0.0081787109375,-0.334228515625,0.966064453125,1.03759765625,-0.2441406100988388,0.4272460639476776
131724,0.0079345703125,-0.33642578125,0.9722900390625,1.03759765625,-0.2441406100988388,0.3662109076976776
131740,0.0078125,-0.33740234375,0.974365234375,1.0986328125,-0.2441406100988388,0.3662109076976776
131762,0.0086669921875,-0.335205078125,0.96728515625,1.0986328125,-0.2441406100988388,0.4272460639476776
131778,0.0096435546875,-0.3380126953125,0.9696044921875,1.0986328125,-0.2441406100988388,0.3662109076976776
131844,0.0091552734375,-0.336669921875,0.9683837890625,1.15966796875,-0.30517578125,0.4272460639476776
131861,0.008544921875,-0.336669921875,0.966064453125,1.15966796875,-0.1831054538488388,0.30517578125
131876,0.0078125,-0.3370361328125,0.9678955078125,1.0986328125,-0.1831054538488388,0.4272460639476776
131897,0.0078125,-0.3365478515625,0.96728515625,1.15966796875,-0.1831054538488388,0.4272460639476776
131916,0.0079345703125,-0.3365478515625,0.96826171875,1.15966796875,-0.2441406100988388,0.3662109076976776
131932,0.00830078125,-0.3375244140625,0.9678955078125,1.15966796875,-0.30517578125,0.30517578125
131965,0.008056640625,-0.3365478515625,0.96728515625,1.15966796875,-0.2441406100988388,0.3662109076976776
131982,0.00830078125,-0.3359375,0.9664306640625,1.15966796875,-0.30517578125,0.30517578125
131999,0.0091552734375,-0.3365478515625,0.96484375,1.15966796875,-0.30517578125,0.4272460639476776
132015,0.0079345703125,-0.337890625,0.9708251953125,1.15966796875,-0.2441406100988388,0.4272460639476776
132035,0.0081787109375,-0.33740234375,0.9654541015625,1.0986328125,-0.2441406100988388,0.2441406100988388
132057,0.0084228515625,-0.3369140625,0.964111328125,1.0986328125,-0.2441406100988388,0.30517578125
132073,0.0081787109375,-0.3370361328125,0.9658203125,1.15966796875,-0.2441406100988388,0.4272460639476776
132091,0.0079345703125,-0.3380126953125,0.966064453125,1.15966796875,-0.2441406100988388,0.3662109076976776
132108,0.007568359375,-0.337158203125,0.967529296875,1.15966796875,-0.1831054538488388,0.3662109076976776
132141,0.008544921875,-0.336669921875,0.9639892578125,1.15966796875,-0.1831054538488388,0.3662109076976776
132158,0.007568359375,-0.335693359375,0.960205078125,1.03759765625,-0.1220703050494194,0.4272460639476776
132174,0.0074462890625,-0.3360595703125,0.96240234375,1.0986328125,-0.1220703050494194,0.4272460639476776
132211,0.0081787109375,-0.343017578125,0.976806640625,1.03759765625,-0.1831054538488388,0.3662109076976776
132223,0.0078125,-0.3372802734375,0.958984375,1.03759765625,-0.1831054538488388,0.3662109076976776
132238,0.0079345703125,-0.3355712890625,0.957275390625,1.0986328125,-0.1220703050494194,0.3662109076976776
132255,0.0081787109375,-0.3363037109375,0.962158203125,1.03759765625,-0.1220703050494194,0.4272460639476776
132275,0.008056640625,-0.33984375,0.9730224609375,1.03759765625,-0.1220703050494194,0.3662109076976776
132323,0.0084228515625,-0.339599609375,0.9686279296875,1.03759765625,-0.1831054538488388,0.3662109076976776
132344,0.00830078125,-0.33837890625,0.9691162109375,1.03759765625,-0.1831054538488388,0.30517578125
132360,0.00830078125,-0.3388671875,0.9658203125,1.03759765625,-0.1831054538488388,0.30517578125
132377,0.0078125,-0.3389892578125,0.9671630859375,1.03759765625,-0.1831054538488388,0.30517578125
132396,0.007080078125,-0.33837890625,0.963623046875,1.03759765625,-0.1220703050494194,0.3662109076976776
132413,0.007080078125,-0.3375244140625,0.9609375,1.03759765625,-0.1831054538488388,0.4272460639476776
132443,0.0084228515625,-0.3394775390625,0.9669189453125,1.03759765625,-0.1831054538488388,0.30517578125
132465,0.0074462890625,-0.34033203125,0.97119140625,1.03759765625,-0.1831054538488388,0.3662109076976776
132498,0.0078125,-0.3353271484375,0.954833984375,1.03759765625,-0.1831054538488388,0.3662109076976776
132517,0.0078125,-0.3375244140625,0.96240234375,0.9765624403953552,-0.1831054538488388,0.3662109076976776
132534,0.007080078125,-0.3408203125,0.970703125,1.03759765625,-0.1831054538488388,0.3662109076976776
132567,0.0076904296875,-0.3424072265625,0.9683837890625,1.03759765625,-0.2441406100988388,0.3662109076976776
132584,0.00830078125,-0.3385009765625,0.9632568359375,1.0986328125,-0.2441406100988388,0.30517578125
132605,0.008056640625,-0.3385009765625,0.96533203125,1.15966796875,-0.1831054538488388,0.30517578125
132621,0.0068359375,-0.3385009765625,0.965576171875,1.0986328125,-0.1831054538488388,0.30517578125
132633,0.00732421875,-0.3408203125,0.9713134765625,1.0986328125,-0.1831054538488388,0.3662109076976776
132650,0.0087890625,-0.3427734375,0.972412109375,1.03759765625,-0.1220703050494194,0.3662109076976776
132682,0.0074462890625,-0.3375244140625,0.96142578125,1.0986328125,-0.2441406100988388,0.3662109076976776
132698,0.0079345703125,-0.339599609375,0.964111328125,1.0986328125,-0.1831054538488388,0.4272460639476776
132714,0.0089111328125,-0.3406982421875,0.966064453125,1.0986328125,-0.2441406100988388,0.3662109076976776
132751,0.0087890625,-0.3387451171875,0.9622802734375,1.15966796875,-0.1831054538488388,0.4272460639476776
132767,0.0057373046875,-0.3433837890625,0.9739990234375,1.03759765625,-0.1831054538488388,0.3662109076976776
132784,0.006103515625,-0.342041015625,0.9710693359375,1.0986328125,-0.1831054538488388,0.30517578125
132801,0.0076904296875,-0.3382568359375,0.9586181640625,1.0986328125,-0.1831054538488388,0.3662109076976776
132817,0.00830078125,-0.3394775390625,0.9620361328125,1.0986328125,-0.1831054538488388,0.4272460639476776
132833,0.0087890625,-0.3399658203125,0.96728515625,1.15966796875,-0.2441406100988388,0.4272460639476776
132865,0.008056640625,-0.3404541015625,0.9659423828125,1.0986328125,-0.2441406100988388,0.4272460639476776
132887,0.0084228515625,-0.3406982421875,0.96630859375,1.0986328125,-0.1831054538488388,0.3662109076976776
132903,0.0079345703125,-0.3411865234375,0.9649658203125,1.0986328125,-0.1831054538488388,0.3662109076976776
132920,0.0076904296875,-0.339599609375,0.966064453125,1.03759765625,-0.1831054538488388,0.3662109076976776
132937,0.00732421875,-0.339599609375,0.965087890625,0.9765624403953552,-0.1831054538488388,0.3662109076976776
132953,0.00732421875,-0.34228515625,0.9676513671875,0.9765624403953552,-0.1831054538488388,0.3662109076976776
132987,0.0076904296875,-0.341064453125,0.966552734375,0.9765624403953552,-0.1831054538488388,0.30517578125
133003,0.0069580078125,-0.3406982421875,0.96630859375,0.9765624403953552,-0.1831054538488388,0.3662109076976776
133019,0.00732421875,-0.339599609375,0.962158203125,0.9765624403953552,-0.1831054538488388,0.3662109076976776
133036,0.0079345703125,-0.3408203125,0.9666748046875,1.03759765625,-0.1831054538488388,0.3662109076976776
133061,0.0074462890625,-0.3427734375,0.9676513671875,0.9765624403953552,-0.1831054538488388,0.3662109076976776
133077,0.0072021484375,-0.3436279296875,0.9644775390625,0.9765624403953552,-0.1831054538488388,0.3662109076976776
133089,0.0076904296875,-0.34130859375,0.9661865234375,1.03759765625,-0.1831054538488388,0.3662109076976776
133106,0.008056640625,-0.341064453125,0.96630859375,0.9765624403953552,-0.2441406100988388,0.3662109076976776
133122,0.0086669921875,-0.342529296875,0.96484375,0.9765624403953552,-0.1831054538488388,0.3662109076976776
133156,0.007568359375,-0.343017578125,0.9659423828125,0.9765624403953552,-0.1831054538488388,0.3662109076976776
133174,0.008544921875,-0.341796875,0.9644775390625,0.9155272841453552,-0.1831054538488388,0.3662109076976776
133194,0.0084228515625,-0.3416748046875,0.9656982421875,0.9155272841453552,-0.1831054538488388,0.3662109076976776
133210,0.0067138671875,-0.3424072265625,0.9671630859375,0.9765624403953552,-0.1831054538488388,0.4272460639476776
133231,0.0072021484375,-0.342041015625,0.966064453125,0.9765624403953552,-0.1831054538488388,0.30517578125
133248,0.0091552734375,-0.340576171875,0.9639892578125,1.0986328125,-0.1831054538488388,0.3662109076976776
133264,0.009033203125,-0.3428955078125,0.96484375,1.0986328125,-0.2441406100988388,0.4272460639476776
133281,0.00830078125,-0.342041015625,0.967529296875,1.220703125,-0.1831054538488388,0.30517578125
133298,0.0079345703125,-0.3397216796875,0.9656982421875,1.3427733182907104,-0.2441406100988388,0.30517578125
133318,0.007568359375,-0.34033203125,0.9671630859375,1.5258787870407104,-0.1831054538488388,0.3662109076976776
133334,0.0078125,-0.3433837890625,0.9654541015625,1.6479490995407104,-0.1831054538488388,0.3662109076976776
133353,0.007568359375,-0.3443603515625,0.9639892578125,1.7089842557907104,-0.2441406100988388,0.3662109076976776
133369,0.0079345703125,-0.343994140625,0.9647216796875,1.6479490995407104,-0.1831054538488388,0.30517578125
133402,0.00732421875,-0.33984375,0.96630859375,2.01416015625,-0.1831054538488388,0.2441406100988388
133419,0.008056640625,-0.3387451171875,0.965576171875,2.197265625,-0.1831054538488388,0.2441406100988388
133436,0.0089111328125,-0.3367919921875,0.9658203125,2.624511480331421,-0.30517578125,0.3662109076976776
133457,0.007568359375,-0.3453369140625,0.963134765625,2.929687261581421,-0.3662109076976776,0.3662109076976776
133476,0.0068359375,-0.341796875,0.9666748046875,3.051757574081421,-0.30517578125,0.30517578125
133492,0.006591796875,-0.3397216796875,0.96533203125,3.417968511581421,-0.2441406100988388,0.30517578125
133525,0.0098876953125,-0.346435546875,0.964111328125,4.08935546875,-0.30517578125,0.3662109076976776
133541,0.0076904296875,-0.3460693359375,0.9599609375,4.39453125,-0.1831054538488388,0.3662109076976776
133558,0.0064697265625,-0.3492431640625,0.9599609375,4.45556640625,-0.0610351525247097,0.3662109076976776
133593,0.0057373046875,-0.34814453125,0.9613037109375,4.82177734375,0.6713866591453552,0.6103515625
133610,0.0067138671875,-0.3441162109375,0.9537353515625,5.126952648162842,1.6479490995407104,0.9155272841453552
133627,0.0126953125,-0.356689453125,0.9813232421875,5.432128429412842,2.624511480331421,1.3427733182907104
133643,0.0477294921875,-0.3533935546875,0.9876708984375,5.798339366912842,2.990722417831421,1.4038084745407104
133660,0.0670166015625,-0.320556640625,1.0107421875,6.652831554412842,5.371093273162842,1.7089842557907104
133677,0.0313720703125,-0.4210205078125,1.3607177734375,10.742186546325684,4.2724609375,1.5258787870407104
133715,-0.0255126953125,-0.5408935546875,1.6123046875,16.29638671875,-1.8310545682907104,-0.1220703050494194
133731,-0.007568359375,-0.5718994140625,1.5460205078125,18.06640625,-3.112792730331421,-1.6479490995407104
133748,-0.00390625,-0.525634765625,1.42431640625,17.15087890625,-3.356933355331421,-2.0751953125
133765,0.0035400390625,-0.468994140625,1.367919921875,16.357421875,-2.746581792831421,-1.8310545682907104
133781,-0.00830078125,-0.46533203125,1.3599853515625,14.526366233825684,-1.8310545682907104,-1.220703125
133798,-0.0128173828125,-0.4588623046875,1.3724365234375,12.145995140075684,-0.7934569716453552,-0.4882812201976776
133815,-0.0086669921875,-0.5052490234375,1.434814453125,10.192870140075684,-0.8544921278953552,0.0
133835,-0.0001220703125,-0.56298828125,1.412353515625,7.568358898162842,-1.6479490995407104,0.2441406100988388
133857,0.0030517578125,-0.59423828125,1.325439453125,5.676269054412842,-1.5869139432907104,0.1220703050494194
133873,0.0118408203125,-0.6064453125,1.3131103515625,0.8544921278953552,-0.3662109076976776,0.30517578125
133892,0.01611328125,-0.595947265625,1.3228759765625,0.1831054538488388,-0.1220703050494194,-0.3662109076976776
133909,0.0152587890625,-0.585205078125,1.3089599609375,-1.2817381620407104,-0.2441406100988388,-0.6713866591453552
133942,0.0179443359375,-0.563232421875,1.267333984375,-4.08935546875,-0.2441406100988388,-0.54931640625
133959,0.02392578125,-0.539794921875,1.275634765625,-5.615233898162842,-0.4882812201976776,-0.6103515625
133976,0.025390625,-0.5635986328125,1.2481689453125,-6.042479991912842,-0.9155272841453552,-0.9155272841453552
133996,0.033447265625,-0.5455322265625,1.2025146484375,-6.958007335662842,-1.220703125,-1.0986328125
134010,0.03076171875,-0.5086669921875,1.1436767578125,-7.812499523162842,-1.7089842557907104,-1.4648436307907104
134027,0.0283203125,-0.4857177734375,1.1190185546875,-8.544921875,-1.8310545682907104,-1.6479490995407104
134060,0.0140380859375,-0.4442138671875,1.016845703125,-10.375975608825684,-2.624511480331421,-2.13623046875
134078,0.0076904296875,-0.41015625,0.948974609375,-11.047362327575684,-3.051757574081421,-2.44140625
134094,0.00390625,-0.3707275390625,0.8587646484375,-12.329100608825684,-3.051757574081421,-2.44140625
134127,0.0059814453125,-0.319091796875,0.7607421875,-13.793944358825684,-2.868652105331421,-2.44140625
134147,0.004150390625,-0.2828369140625,0.697509765625,-14.526366233825684,-3.051757574081421,-2.563476324081421
134164,0.0018310546875,-0.24072265625,0.609375,-15.441893577575684,-3.356933355331421,-2.685546636581421
134181,0.0009765625,-0.2193603515625,0.5679931640625,-16.4794921875,-3.295898199081421,-2.685546636581421
134197,-0.003173828125,-0.1790771484375,0.4873046875,-17.02880859375,-3.173827886581421,-2.563476324081421
134214,-0.00634765625,-0.154052734375,0.4310302734375,-18.61572265625,-2.44140625,-1.9531248807907104
134244,-0.003662109375,-0.1475830078125,0.424072265625,-19.71435546875,-1.4648436307907104,-1.4648436307907104
134266,-0.003173828125,-0.14892578125,0.431884765625,-19.95849609375,-1.4648436307907104,-1.4648436307907104
134282,-0.004638671875,-0.1483154296875,0.4337158203125,-20.01953125,-1.5258787870407104,-1.4648436307907104
134299,-0.0096435546875,-0.1414794921875,0.405517578125,-20.080564498901367,-1.2817381620407104,-1.4648436307907104
134317,-0.0103759765625,-0.1346435546875,0.39404296875,-20.080564498901367,-0.9155272841453552,-1.4038084745407104
134334,-0.009765625,-0.14599609375,0.449462890625,-20.324705123901367,0.1220703050494194,-1.03759765625
134363,-0.0048828125,-0.1695556640625,0.564453125,-20.141599655151367,0.54931640625,-0.7934569716453552
134380,-0.003662109375,-0.1719970703125,0.5927734375,-19.59228515625,0.30517578125,-0.7324218153953552
134417,-0.002685546875,-0.18896484375,0.718505859375,-17.822265625,0.8544921278953552,-0.3662109076976776
134436,-0.0023193359375,-0.1893310546875,0.7523193359375,-16.2353515625,0.9155272841453552,-0.1831054538488388
134452,0.001953125,-0.201416015625,0.832275390625,-13.916014671325684,0.9765624403953552,0.0610351525247097
134485,0.0045166015625,-0.2213134765625,0.9169921875,-8.85009765625,0.30517578125,0.1220703050494194
134502,0.0052490234375,-0.216796875,0.917724609375,-7.385253429412842,0.30517578125,0.1220703050494194
134519,0.004150390625,-0.21337890625,0.91552734375,-4.5166015625,0.3662109076976776,0.2441406100988388
134540,0.002685546875,-0.2236328125,0.923095703125,-2.13623046875,0.3662109076976776,0.3662109076976776
134556,-0.0029296875,-0.235107421875,0.9095458984375,-1.4648436307907104,0.30517578125,0.4272460639476776
134573,-0.00390625,-0.232421875,0.9071044921875,0.4272460639476776,0.4272460639476776,0.30517578125
134606,-0.0013427734375,-0.2261962890625,0.9193115234375,3.662109136581421,0.8544921278953552,0.3662109076976776
134623,-0.0025634765625,-0.2313232421875,0.933837890625,6.469726085662842,1.0986328125,0.6103515625
134640,-0.0040283203125,-0.2464599609375,0.971923828125,8.9111328125,1.0986328125,0.6713866591453552
134657,-0.0062255859375,-0.2557373046875,0.97509765625,11.352538108825684,0.9765624403953552,0.7324218153953552
134682,-0.0079345703125,-0.268310546875,0.9774169921875,13.183592796325684,1.3427733182907104,0.7324218153953552
134698,-0.00732421875,-0.2734375,0.986572265625,14.099120140075684,1.4038084745407104,0.7324218153953552
134715,-0.00830078125,-0.2769775390625,0.9835205078125,15.441893577575684,1.3427733182907104,0.9155272841453552
134733,-0.009765625,-0.28125,0.978515625,16.54052734375,1.7089842557907104,1.0986328125
134782,-0.0064697265625,-0.2923583984375,0.9903564453125,18.06640625,1.9531248807907104,1.4648436307907104
134798,-0.0023193359375,-0.2955322265625,0.998291015625,18.06640625,1.8920897245407104,1.6479490995407104
134819,-0.001953125,-0.3037109375,0.9893798828125,18.00537109375,1.7089842557907104,1.7700194120407104
134852,-0.0037841796875,-0.307861328125,0.95361328125,16.66259765625,1.5869139432907104,2.0751953125
134868,0.0008544921875,-0.3126220703125,0.9771728515625,16.17431640625,1.6479490995407104,2.13623046875
134885,0.0032958984375,-0.311767578125,0.986083984375,15.197752952575684,1.15966796875,2.13623046875
134902,0.00244140625,-0.310546875,0.9759521484375,14.282225608825684,0.6713866591453552,2.3193359375
134921,0.0006103515625,-0.3154296875,0.98046875,13.427733421325684,0.6713866591453552,2.563476324081421
134942,0.0013427734375,-0.3221435546875,0.9962158203125,12.756346702575684,-0.1220703050494194,2.50244140625
134958,0.003662109375,-0.315185546875,0.9886474609375,12.329100608825684,-0.4272460639476776,2.44140625
134977,0.0052490234375,-0.31689453125,0.9967041015625,11.596678733825684,-0.7934569716453552,2.685546636581421
134994,0.003662109375,-0.3294677734375,1.00390625,10.803221702575684,-1.5258787870407104,2.746581792831421
135027,-0.0045166015625,-0.3369140625,0.9788818359375,9.82666015625,-2.01416015625,2.746581792831421
135044,-0.0029296875,-0.333740234375,0.9781494140625,9.58251953125,-2.01416015625,2.746581792831421
135061,-0.0008544921875,-0.333984375,0.9783935546875,9.09423828125,-2.01416015625,2.929687261581421
135081,-0.0025634765625,-0.3380126953125,0.9708251953125,8.36181640625,-1.8310545682907104,3.112792730331421
135093,-0.002197265625,-0.3507080078125,0.9725341796875,8.056640625,-1.7700194120407104,3.173827886581421
135109,-0.001708984375,-0.352294921875,0.9705810546875,7.629394054412842,-1.7700194120407104,3.234863042831421
135143,0.00146484375,-0.355224609375,0.971435546875,5.493163585662842,-1.6479490995407104,3.417968511581421
135160,-0.0001220703125,-0.3563232421875,0.9556884765625,4.21142578125,-1.6479490995407104,3.417968511581421
135176,0.000732421875,-0.361083984375,0.943359375,3.662109136581421,-1.5869139432907104,3.479003667831421
135202,0.000732421875,-0.365478515625,0.9417724609375,1.4038084745407104,-1.3427733182907104,3.601073980331421
135218,0.0015869140625,-0.3692626953125,0.9432373046875,-0.0610351525247097,-1.15966796875,3.601073980331421
135234,0.0030517578125,-0.371337890625,0.951171875,-0.8544921278953552,-1.220703125,3.601073980331421
135264,0.0035400390625,-0.38134765625,0.9552001953125,-3.356933355331421,-1.5869139432907104,3.417968511581421
135286,0.0028076171875,-0.379638671875,0.9434814453125,-5.0048828125,-1.7089842557907104,3.295898199081421
135302,0.0009765625,-0.3736572265625,0.9398193359375,-6.347655773162842,-1.5258787870407104,3.234863042831421
135319,-0.0025634765625,-0.369873046875,0.95166015625,-6.958007335662842,-1.4648436307907104,3.173827886581421
135338,-0.0050048828125,-0.3653564453125,0.9503173828125,-7.751464366912842,-1.5869139432907104,3.112792730331421
135355,-0.007568359375,-0.3592529296875,0.9459228515625,-8.23974609375,-1.4038084745407104,3.051757574081421
135388,-0.0079345703125,-0.3492431640625,0.970458984375,-8.23974609375,-0.8544921278953552,3.051757574081421
135404,-0.0064697265625,-0.348876953125,0.974365234375,-8.056640625,-0.7934569716453552,2.990722417831421
135420,-0.006591796875,-0.3428955078125,0.9630126953125,-7.751464366912842,-0.7934569716453552,2.929687261581421
135437,-0.0068359375,-0.3392333984375,0.9556884765625,-7.568358898162842,-0.6103515625,2.929687261581421
135457,-0.0042724609375,-0.3365478515625,0.9521484375,-7.080077648162842,-0.30517578125,2.868652105331421
135469,-0.00146484375,-0.3226318359375,0.9383544921875,-6.652831554412842,-0.2441406100988388,2.807616949081421
135485,-0.0018310546875,-0.319091796875,0.92578125,-6.347655773162842,-0.1831054538488388,2.868652105331421
135502,-0.0013427734375,-0.31689453125,0.9127197265625,-5.920409679412842,0.2441406100988388,2.868652105331421
135519,0.0008544921875,-0.3173828125,0.9212646484375,-5.249022960662842,0.4882812201976776,2.685546636581421
135536,0.0032958984375,-0.316162109375,0.9281005859375,-4.8828125,0.4882812201976776,2.624511480331421
135557,0.0045166015625,-0.312744140625,0.924072265625,-3.906249761581421,0.54931640625,2.44140625
135576,0.00634765625,-0.3115234375,0.9315185546875,-2.868652105331421,0.7934569716453552,2.44140625
135592,0.007080078125,-0.3138427734375,0.9603271484375,-2.3193359375,0.9155272841453552,2.38037109375
135623,0.0069580078125,-0.315185546875,0.96435546875,0.0,0.3662109076976776,1.9531248807907104
135639,0.00830078125,-0.312255859375,0.95751953125,0.9765624403953552,0.30517578125,1.7089842557907104
135656,0.00830078125,-0.3131103515625,0.9549560546875,1.4038084745407104,0.30517578125,1.6479490995407104
135693,0.0084228515625,-0.3089599609375,0.945068359375,2.807616949081421,-0.1220703050494194,1.4038084745407104
135709,0.0054931640625,-0.309814453125,0.934326171875,3.112792730331421,-0.0610351525247097,1.4038084745407104
135726,0.003662109375,-0.3111572265625,0.93115234375,3.601073980331421,0.1220703050494194,1.220703125
135742,0.00244140625,-0.313720703125,0.9339599609375,3.784179449081421,0.1831054538488388,1.15966796875
135759,0.0008544921875,-0.308349609375,0.9112548828125,4.150390625,0.1831054538488388,0.9155272841453552
135776,0.001220703125,-0.3065185546875,0.90673828125,4.150390625,0.3662109076976776,0.9765624403953552
135809,0.0093994140625,-0.31689453125,0.9378662109375,3.967284917831421,0.7324218153953552,0.9155272841453552
135830,0.01025390625,-0.3203125,0.941650390625,3.784179449081421,0.4882812201976776,0.7324218153953552
135846,0.012451171875,-0.3226318359375,0.94384765625,3.662109136581421,0.3662109076976776,0.7324218153953552
135863,0.0096435546875,-0.3204345703125,0.9273681640625,3.601073980331421,0.2441406100988388,0.7324218153953552
135880,0.0091552734375,-0.318359375,0.9124755859375,3.295898199081421,0.3662109076976776,0.6103515625
135895,0.008056640625,-0.316162109375,0.8995361328125,2.746581792831421,0.4272460639476776,0.6103515625
135929,0.0113525390625,-0.329345703125,0.9185791015625,1.5869139432907104,1.0986328125,0.7934569716453552
135946,0.0128173828125,-0.3311767578125,0.92822265625,0.7934569716453552,1.03759765625,0.7324218153953552
135965,0.0162353515625,-0.3297119140625,0.931396484375,0.0610351525247097,0.6713866591453552,0.6713866591453552
135981,0.0179443359375,-0.321533203125,0.9105224609375,-0.30517578125,0.54931640625,0.6103515625
135998,0.0186767578125,-0.3170166015625,0.897705078125,-1.15966796875,0.3662109076976776,0.6713866591453552
136014,0.018798828125,-0.3099365234375,0.87158203125,-1.7089842557907104,0.30517578125,0.6103515625
136048,0.017333984375,-0.319091796875,0.8790283203125,-3.906249761581421,0.54931640625,0.8544921278953552
136064,0.0201416015625,-0.3319091796875,0.92236328125,-4.57763671875,0.0610351525247097,0.6713866591453552
136080,0.021240234375,-0.3201904296875,0.9071044921875,-5.0048828125,-1.03759765625,0.30517578125
136096,0.0201416015625,-0.3060302734375,0.8724365234375,-5.310058116912842,-1.220703125,0.2441406100988388
136114,0.01513671875,-0.291015625,0.81396484375,-6.042479991912842,-0.6713866591453552,0.54931640625
136136,0.01220703125,-0.30908203125,0.845703125,-6.958007335662842,0.1831054538488388,0.8544921278953552
136152,0.0130615234375,-0.330322265625,0.9197998046875,-7.202147960662842,0.1220703050494194,0.7324218153953552
136171,0.0145263671875,-0.3284912109375,0.9345703125,-7.324218273162842,-0.8544921278953552,0.2441406100988388
136188,0.0130615234375,-0.300537109375,0.88525390625,-7.568358898162842,-1.7700194120407104,-0.0610351525247097
136204,0.0108642578125,-0.2698974609375,0.7998046875,-7.873534679412842,-1.7700194120407104,0.1220703050494194
136221,0.00830078125,-0.2706298828125,0.78076171875,-9.765625,-0.7934569716453552,0.7324218153953552
136240,0.0072021484375,-0.2928466796875,0.834716796875,-10.437010765075684,-0.4882812201976776,0.7934569716453552
136256,0.009521484375,-0.3031005859375,0.8748779296875,-11.169432640075684,-0.6713866591453552,0.6713866591453552
136292,0.0107421875,-0.281005859375,0.8660888671875,-11.291502952575684,-2.01416015625,0.1220703050494194
136308,0.0101318359375,-0.2623291015625,0.8306884765625,-11.108397483825684,-1.5869139432907104,0.4272460639476776
136342,0.0162353515625,-0.2930908203125,1.0191650390625,-9.765625,-0.8544921278953552,0.4272460639476776
136358,0.013916015625,-0.2803955078125,1.02099609375,-7.873534679412842,-2.563476324081421,-0.2441406100988388
136375,0.0052490234375,-0.24462890625,0.9677734375,-5.310058116912842,-3.234863042831421,-0.30517578125
136410,-0.00634765625,-0.238037109375,0.888427734375,-2.563476324081421,-2.38037109375,-0.0610351525247097
136426,-0.0076904296875,-0.261474609375,0.915771484375,-1.0986328125,-0.9155272841453552,0.30517578125
136443,-0.0013427734375,-0.298095703125,1.0550537109375,-0.1831054538488388,-0.4882812201976776,0.2441406100988388
136460,0.0030517578125,-0.3038330078125,1.110107421875,2.38037109375,-1.4648436307907104,-0.4882812201976776
136476,0.000732421875,-0.279052734375,1.074951171875,5.187987804412842,-2.746581792831421,-0.9155272841453552
136527,-0.0054931640625,-0.2587890625,0.9210205078125,8.72802734375,-0.9765624403953552,-0.54931640625
136547,-0.005126953125,-0.2841796875,0.9769287109375,9.521484375,-0.1831054538488388,-0.7324218153953552
136563,-0.0064697265625,-0.2867431640625,1.0350341796875,10.131834983825684,-0.2441406100988388,-0.9155272841453552
136580,-0.005126953125,-0.284423828125,1.0546875,12.023924827575684,-0.7934569716453552,-1.2817381620407104
136596,-0.0035400390625,-0.2684326171875,1.017578125,13.610838890075684,-1.0986328125,-1.3427733182907104
136613,0.0,-0.2666015625,0.978515625,14.587401390075684,-0.54931640625,-1.15966796875
136646,-0.00048828125,-0.302490234375,1.033935546875,14.953612327575684,0.0,-1.2817381620407104
136662,-0.007080078125,-0.3046875,1.02880859375,15.197752952575684,-0.4272460639476776,-1.5258787870407104
136678,-0.0086669921875,-0.3009033203125,1.0213623046875,15.197752952575684,-0.2441406100988388,-1.5869139432907104
136719,-0.006591796875,-0.30712890625,1.033447265625,14.770506858825684,0.0610351525247097,-1.5258787870407104
136735,-0.0074462890625,-0.3165283203125,1.06298828125,14.648436546325684,0.0,-1.5258787870407104
136752,-0.00732421875,-0.31982421875,1.072509765625,14.282225608825684,-0.3662109076976776,-1.5258787870407104
136773,-0.003662109375,-0.323486328125,1.0701904296875,13.854979515075684,-0.8544921278953552,-1.4648436307907104
136789,-0.005859375,-0.3306884765625,1.0484619140625,13.183592796325684,-0.54931640625,-1.2817381620407104
136823,-0.015380859375,-0.3277587890625,1.0338134765625,12.329100608825684,-0.9765624403953552,-1.4648436307907104
136842,-0.0179443359375,-0.3238525390625,1.0086669921875,11.962889671325684,-0.7324218153953552,-1.2817381620407104
136861,-0.02001953125,-0.33203125,0.9874267578125,10.803221702575684,-0.2441406100988388,-0.9155272841453552
136877,-0.019775390625,-0.345703125,0.982666015625,9.94873046875,0.0,-0.7324218153953552
136891,-0.019287109375,-0.3505859375,0.9739990234375,8.11767578125,0.30517578125,-0.6713866591453552
136908,-0.0155029296875,-0.3525390625,0.9783935546875,6.225585460662842,0.7934569716453552,-0.4882812201976776
136941,-0.00390625,-0.3470458984375,1.000732421875,3.967284917831421,0.7934569716453552,-0.2441406100988388
136960,-0.0035400390625,-0.3392333984375,0.979736328125,2.624511480331421,1.03759765625,0.1220703050494194
136976,-0.00830078125,-0.3492431640625,0.9898681640625,1.4648436307907104,1.7089842557907104,0.4882812201976776
137011,-0.007080078125,-0.373291015625,1.0323486328125,0.3662109076976776,1.7700194120407104,0.4882812201976776
137027,-0.0010986328125,-0.371337890625,1.0301513671875,-0.0610351525247097,1.8310545682907104,0.4882812201976776
137044,0.004150390625,-0.3765869140625,1.0423583984375,-0.4272460639476776,2.197265625,0.7934569716453552
137063,0.0113525390625,-0.38525390625,1.10205078125,-0.3662109076976776,2.685546636581421,0.9765624403953552
137131,0.0108642578125,-0.3677978515625,1.00830078125,0.1831054538488388,2.3193359375,1.2817381620407104
137147,0.0137939453125,-0.3851318359375,1.0203857421875,-0.1831054538488388,2.3193359375,1.4038084745407104
137164,0.012939453125,-0.386474609375,1.0137939453125,-0.7934569716453552,2.197265625,1.220703125
137181,0.0142822265625,-0.3831787109375,1.0166015625,-1.5258787870407104,2.13623046875,1.15966796875
137197,0.0166015625,-0.374755859375,1.0135498046875,-1.7089842557907104,1.9531248807907104,1.0986328125
137214,0.020263671875,-0.3721923828125,1.0137939453125,-2.25830078125,1.7700194120407104,1.220703125
137248,0.019775390625,-0.390380859375,1.031005859375,-2.563476324081421,1.15966796875,1.0986328125
137269,0.015869140625,-0.3875732421875,1.017578125,-2.746581792831421,0.6713866591453552,0.7934569716453552
137285,0.013671875,-0.372314453125,0.9906005859375,-2.807616949081421,0.54931640625,0.7324218153953552
137302,0.0123291015625,-0.3658447265625,0.982177734375,-3.112792730331421,0.6713866591453552,0.7934569716453552
137319,0.0069580078125,-0.3702392578125,0.982421875,-3.173827886581421,0.7934569716453552,0.8544921278953552
137335,0.003173828125,-0.3682861328125,0.9923095703125,-3.295898199081421,0.9155272841453552,0.8544921278953552
137369,0.0013427734375,-0.3662109375,1.0198974609375,-2.3193359375,1.0986328125,0.9155272841453552
137385,-0.0010986328125,-0.353515625,1.0006103515625,-1.6479490995407104,1.15966796875,0.9765624403953552
137402,-0.0009765625,-0.3494873046875,0.99462890625,-1.4038084745407104,1.220703125,1.0986328125
137421,0.0020751953125,-0.343505859375,0.9696044921875,-1.15966796875,1.4648436307907104,1.220703125
137437,0.0072021484375,-0.34375,0.95654296875,-0.9765624403953552,1.8310545682907104,1.2817381620407104
137454,0.0072021484375,-0.3453369140625,0.962646484375,-0.6713866591453552,2.685546636581421,1.4648436307907104
137487,0.0135498046875,-0.3638916015625,1.0389404296875,0.7324218153953552,2.807616949081421,1.4648436307907104
137504,0.01513671875,-0.3641357421875,1.036865234375,1.15966796875,2.563476324081421,1.3427733182907104
137536,0.0242919921875,-0.345703125,1.0159912109375,2.44140625,2.44140625,1.2817381620407104
137557,0.026611328125,-0.3543701171875,1.0157470703125,2.746581792831421,2.13623046875,1.220703125
137578,0.0257568359375,-0.361572265625,1.007568359375,2.868652105331421,1.9531248807907104,1.15966796875
137590,0.02587890625,-0.3638916015625,1.0059814453125,3.112792730331421,1.6479490995407104,0.9765624403953552
137607,0.0274658203125,-0.3638916015625,1.004150390625,3.234863042831421,1.4648436307907104,0.7934569716453552
137623,0.0296630859375,-0.3638916015625,1.009033203125,3.417968511581421,1.15966796875,0.6103515625
137640,0.0308837890625,-0.359130859375,1.0076904296875,3.540038824081421,0.6103515625,0.3662109076976776
137657,0.0343017578125,-0.349365234375,1.0130615234375,3.784179449081421,0.0610351525247097,0.2441406100988388
137677,0.033203125,-0.3375244140625,0.981689453125,4.0283203125,-0.54931640625,0.0610351525247097
137693,0.0316162109375,-0.333740234375,0.9674072265625,4.08935546875,-0.4882812201976776,0.1831054538488388
137709,0.029052734375,-0.343505859375,0.967041015625,4.08935546875,-0.6103515625,0.30517578125
137726,0.0260009765625,-0.3533935546875,0.967529296875,3.784179449081421,-0.8544921278953552,0.2441406100988388
137746,0.0245361328125,-0.3543701171875,0.9627685546875,3.601073980331421,-0.8544921278953552,0.1831054538488388
137763,0.0242919921875,-0.350341796875,0.9635009765625,3.417968511581421,-0.8544921278953552,0.0610351525247097
137780,0.026611328125,-0.341796875,0.965087890625,3.540038824081421,-0.9765624403953552,0.0610351525247097
137798,0.028564453125,-0.3408203125,0.96435546875,3.662109136581421,-0.9155272841453552,0.1220703050494194
137814,0.02734375,-0.3436279296875,0.9580078125,3.723144292831421,-0.9155272841453552,0.2441406100988388
137847,0.02392578125,-0.35400390625,0.984375,3.723144292831421,-0.54931640625,0.1831054538488388
137864,0.0224609375,-0.3486328125,0.97607421875,3.723144292831421,-0.6713866591453552,0.1831054538488388
137885,0.020751953125,-0.33740234375,0.94873046875,3.723144292831421,-0.2441406100988388,0.3662109076976776
137900,0.0198974609375,-0.339599609375,0.940673828125,3.356933355331421,0.2441406100988388,0.54931640625
137912,0.02490234375,-0.351806640625,0.967529296875,3.173827886581421,0.4882812201976776,0.6103515625
137961,0.0269775390625,-0.3673095703125,1.0179443359375,2.990722417831421,0.30517578125,0.54931640625
137979,0.046875,-0.51708984375,1.380615234375,2.3193359375,-2.807616949081421,-0.6103515625
138000,0.0343017578125,-0.4478759765625,1.1907958984375,1.7700194120407104,-3.784179449081421,-1.03759765625
138017,0.0091552734375,-0.3255615234375,0.8616943359375,1.03759765625,-2.990722417831421,-0.7324218153953552
138036,0.0111083984375,-0.341552734375,0.9066162109375,0.1831054538488388,-2.929687261581421,-0.7934569716453552
138053,0.011474609375,-0.3406982421875,0.9110107421875,-0.30517578125,-2.807616949081421,-0.7934569716453552
138086,0.0064697265625,-0.3226318359375,0.887451171875,-0.7934569716453552,-2.01416015625,-0.4272460639476776
138102,0.011474609375,-0.3939208984375,1.016357421875,0.54931640625,-1.9531248807907104,-0.4882812201976776
138118,0.0330810546875,-0.451416015625,1.138671875,1.8920897245407104,-4.21142578125,-1.6479490995407104
138159,-0.02099609375,-0.28125,0.8037109375,2.624511480331421,-2.685546636581421,-0.9765624403953552
138175,-0.0302734375,-0.3138427734375,0.8861083984375,1.8920897245407104,1.4038084745407104,0.9765624403953552
138211,0.0263671875,-0.353271484375,0.9056396484375,0.4882812201976776,0.0610351525247097,0.4272460639476776
138261,0.003173828125,-0.3502197265625,0.931640625,0.6103515625,-1.2817381620407104,0.0
138279,-0.00390625,-0.3612060546875,0.9437255859375,0.4272460639476776,-0.1220703050494194,0.4882812201976776
138300,0.0008544921875,-0.3819580078125,0.993408203125,0.0610351525247097,-0.3662109076976776,0.4272460639476776
138316,0.010498046875,-0.3646240234375,0.948486328125,-0.8544921278953552,-0.7934569716453552,0.1220703050494194
138335,0.0145263671875,-0.35791015625,0.94140625,-1.3427733182907104,-0.3662109076976776,0.2441406100988388
138352,0.0152587890625,-0.367919921875,0.98486328125,-1.5869139432907104,-0.30517578125,0.30517578125
138385,0.0052490234375,-0.350341796875,0.943359375,-2.0751953125,-0.6103515625,0.2441406100988388
138434,0.0133056640625,-0.348388671875,0.95166015625,-2.0751953125,-0.4272460639476776,0.30517578125
138457,0.010009765625,-0.3489990234375,0.96630859375,-1.8920897245407104,-0.3662109076976776,0.3662109076976776
138473,0.0084228515625,-0.347412109375,0.96435546875,-1.6479490995407104,-0.30517578125,0.3662109076976776
138503,0.0091552734375,-0.345703125,0.9635009765625,-0.9765624403953552,-0.1831054538488388,0.3662109076976776
138519,0.0118408203125,-0.3446044921875,0.96630859375,-0.6103515625,-0.30517578125,0.3662109076976776
138536,0.0113525390625,-0.3448486328125,0.96435546875,-0.4272460639476776,-0.30517578125,0.3662109076976776
138572,0.00830078125,-0.34619140625,0.9637451171875,0.1831054538488388,-0.1831054538488388,0.3662109076976776
138588,0.0093994140625,-0.3447265625,0.9638671875,0.4272460639476776,-0.2441406100988388,0.2441406100988388
138605,0.01123046875,-0.344970703125,0.96630859375,0.7324218153953552,-0.30517578125,0.3662109076976776
138621,0.010009765625,-0.3466796875,0.9642333984375,0.8544921278953552,-0.30517578125,0.3662109076976776
138638,0.0087890625,-0.3465576171875,0.9625244140625,1.03759765625,-0.30517578125,0.3662109076976776
138655,0.0079345703125,-0.344970703125,0.9630126953125,1.220703125,-0.30517578125,0.30517578125
138685,0.009765625,-0.343505859375,0.96533203125,1.7700194120407104,-0.1831054538488388,0.30517578125
138706,0.009765625,-0.344482421875,0.966796875,2.0751953125,-0.1831054538488388,0.3662109076976776
138722,0.009765625,-0.3463134765625,0.9603271484375,2.25830078125,-0.30517578125,0.3662109076976776
138739,0.010009765625,-0.350341796875,0.9610595703125,2.38037109375,-0.30517578125,0.3662109076976776
138758,0.0093994140625,-0.3519287109375,0.9617919921875,2.3193359375,-0.30517578125,0.3662109076976776
138775,0.00732421875,-0.3507080078125,0.9598388671875,2.3193359375,-0.2441406100988388,0.3662109076976776
138804,0.009033203125,-0.3516845703125,0.960205078125,2.197265625,-0.1831054538488388,0.30517578125
138821,0.0106201171875,-0.3538818359375,0.9637451171875,2.0751953125,-0.2441406100988388,0.30517578125
138842,0.010498046875,-0.3546142578125,0.9635009765625,2.01416015625,-0.2441406100988388,0.3662109076976776
138858,0.0089111328125,-0.353515625,0.95947265625,1.8920897245407104,-0.30517578125,0.30517578125
138877,0.0067138671875,-0.3563232421875,0.960693359375,1.7089842557907104,-0.30517578125,0.3662109076976776
138894,0.0084228515625,-0.354736328125,0.9588623046875,1.5869139432907104,-0.2441406100988388,0.3662109076976776
138927,0.00927734375,-0.3564453125,0.9598388671875,1.220703125,-0.1831054538488388,0.30517578125
138976,0.0093994140625,-0.354736328125,0.959716796875,0.7934569716453552,-0.1220703050494194,0.3662109076976776
139001,0.009765625,-0.35498046875,0.9609375,0.6713866591453552,-0.1220703050494194,0.3662109076976776
139017,0.0084228515625,-0.3555908203125,0.95849609375,0.54931640625,-0.1220703050494194,0.3662109076976776
139034,0.0086669921875,-0.3538818359375,0.963623046875,0.6103515625,-0.0610351525247097,0.4272460639476776
139055,0.010009765625,-0.35302734375,0.9613037109375,0.6103515625,0.0,0.4272460639476776
139071,0.00830078125,-0.3533935546875,0.9588623046875,0.6103515625,-0.0610351525247097,0.3662109076976776
139088,0.0076904296875,-0.355712890625,0.9615478515625,0.6103515625,-0.1220703050494194,0.3662109076976776
139105,0.0072021484375,-0.35498046875,0.961669921875,0.54931640625,-0.1220703050494194,0.3662109076976776
139121,0.0101318359375,-0.353759765625,0.9599609375,0.4272460639476776,-0.1220703050494194,0.3662109076976776
139142,0.0098876953125,-0.353759765625,0.960693359375,0.4272460639476776,-0.0610351525247097,0.4272460639476776
139191,0.0113525390625,-0.34765625,0.970458984375,0.6713866591453552,1.5258787870407104,0.9765624403953552
139235,0.0145263671875,-0.3480224609375,1.0369873046875,2.868652105331421,3.234863042831421,1.5869139432907104
139252,0.032470703125,-0.40234375,1.2418212890625,4.39453125,2.746581792831421,1.15966796875
139283,0.03515625,-0.448974609375,1.3505859375,6.042479991912842,0.2441406100988388,0.30517578125
139299,0.0352783203125,-0.46728515625,1.34423828125,7.446288585662842,-0.8544921278953552,0.0610351525247097
139316,0.03125,-0.490478515625,1.27197265625,7.751464366912842,-1.4038084745407104,-0.3662109076976776
139351,0.029296875,-0.49462890625,1.2327880859375,7.263183116912842,-0.30517578125,-0.9155272841453552
139367,0.028564453125,-0.4794921875,1.2835693359375,7.629394054412842,-0.1220703050494194,-1.3427733182907104
139384,0.0250244140625,-0.4688720703125,1.3291015625,8.23974609375,-0.30517578125,-1.3427733182907104
139400,0.0244140625,-0.476806640625,1.3153076171875,9.70458984375,-1.3427733182907104,-1.4038084745407104
139419,0.0247802734375,-0.490966796875,1.2857666015625,10.620116233825684,-2.0751953125,-1.5258787870407104
139436,0.02490234375,-0.50244140625,1.227294921875,10.253905296325684,-2.13623046875,-1.8920897245407104
139464,0.01318359375,-0.4949951171875,1.2174072265625,9.70458984375,-1.5869139432907104,-2.197265625
139486,0.0118408203125,-0.501220703125,1.2747802734375,9.8876953125,-1.4648436307907104,-2.197265625
139502,0.0115966796875,-0.5185546875,1.312744140625,10.620116233825684,-2.0751953125,-2.44140625
139514,0.007080078125,-0.520751953125,1.2908935546875,11.352538108825684,-3.112792730331421,-2.807616949081421
139533,0.00244140625,-0.5159912109375,1.26416015625,11.657713890075684,-3.173827886581421,-2.807616949081421
139550,-0.00732421875,-0.5223388671875,1.21826171875,11.779784202575684,-2.746581792831421,-2.685546636581421
139567,-0.0096435546875,-0.5194091796875,1.1998291015625,11.352538108825684,-2.44140625,-2.685546636581421
139588,-0.0126953125,-0.517333984375,1.17822265625,10.620116233825684,-1.9531248807907104,-2.563476324081421
139638,-0.009765625,-0.4962158203125,1.1197509765625,8.60595703125,-1.5869139432907104,-2.50244140625
139657,-0.0107421875,-0.4730224609375,1.046875,7.995604991912842,-1.4038084745407104,-2.38037109375
139673,-0.0062255859375,-0.4637451171875,1.033447265625,5.798339366912842,-0.3662109076976776,-1.8920897245407104
139706,-0.0037841796875,-0.4541015625,0.9930419921875,3.295898199081421,-0.6103515625,-1.8920897245407104
139720,-0.00439453125,-0.424072265625,0.936279296875,2.746581792831421,-0.6103515625,-1.9531248807907104
139740,-0.0018310546875,-0.41162109375,0.9287109375,1.8310545682907104,0.0610351525247097,-1.8310545682907104
139756,0.0015869140625,-0.4033203125,0.9320068359375,1.5258787870407104,0.0610351525247097,-1.7700194120407104
139774,0.000732421875,-0.385986328125,0.90185546875,1.2817381620407104,-0.30517578125,-1.8310545682907104
139790,0.0020751953125,-0.37744140625,0.8765869140625,0.8544921278953552,-0.8544921278953552,-2.01416015625
139823,0.000732421875,-0.3116455078125,0.735107421875,-0.2441406100988388,-0.9765624403953552,-1.9531248807907104
139840,0.0,-0.2939453125,0.7003173828125,-0.6713866591453552,-1.03759765625,-1.9531248807907104
139856,-0.002685546875,-0.2646484375,0.6329345703125,-1.6479490995407104,-0.8544921278953552,-1.8310545682907104
139885,-0.00390625,-0.2294921875,0.562255859375,-3.234863042831421,-0.30517578125,-1.4648436307907104
139906,-0.0025634765625,-0.2247314453125,0.5538330078125,-3.784179449081421,-0.1220703050494194,-1.3427733182907104
139922,-0.0009765625,-0.226318359375,0.55810546875,-4.45556640625,-0.0610351525247097,-1.15966796875
139939,-0.0029296875,-0.2166748046875,0.5323486328125,-5.187987804412842,-0.30517578125,-1.220703125
139958,-0.005126953125,-0.20166015625,0.496826171875,-5.676269054412842,-0.1220703050494194,-1.15966796875
139975,-0.0037841796875,-0.1917724609375,0.4764404296875,-6.347655773162842,0.4882812201976776,-0.7934569716453552
140004,-0.0025634765625,-0.2060546875,0.489990234375,-7.446288585662842,1.03759765625,-0.3662109076976776
140020,-0.002685546875,-0.21630859375,0.50732421875,-7.812499523162842,1.2817381620407104,-0.30517578125
140036,-0.0006103515625,-0.2415771484375,0.5447998046875,-8.4228515625,1.5869139432907104,-0.1831054538488388
140071,0.004150390625,-0.2647705078125,0.6248779296875,-9.1552734375,2.01416015625,-0.1220703050494194
140087,0.0064697265625,-0.2935791015625,0.7081298828125,-9.33837890625,2.197265625,-0.0610351525247097
140104,0.0076904296875,-0.3109130859375,0.746337890625,-9.58251953125,1.8310545682907104,0.0
140120,0.0069580078125,-0.3221435546875,0.7860107421875,-9.58251953125,1.4648436307907104,-0.1220703050494194
140137,0.010498046875,-0.32470703125,0.8310546875,-9.58251953125,1.2817381620407104,-0.0610351525247097
140187,0.0074462890625,-0.33984375,0.87939453125,-9.70458984375,1.0986328125,0.30517578125
140208,0.0067138671875,-0.351318359375,0.9014892578125,-9.82666015625,0.8544921278953552,0.3662109076976776
140224,0.00244140625,-0.3421630859375,0.873779296875,-9.94873046875,0.30517578125,0.1831054538488388
140241,0.00048828125,-0.33740234375,0.8604736328125,-9.82666015625,0.54931640625,0.3662109076976776
140258,0.0013427734375,-0.3375244140625,0.890380859375,-9.521484375,0.8544921278953552,0.54931640625
140274,0.0008544921875,-0.3489990234375,0.9296875,-8.60595703125,0.8544921278953552,0.6713866591453552
140304,-0.0050048828125,-0.3431396484375,0.9180908203125,-6.469726085662842,0.0,0.4882812201976776
140321,-0.0035400390625,-0.3441162109375,0.9254150390625,-4.94384765625,0.4272460639476776,0.6103515625
140340,0.0010986328125,-0.35546875,0.970703125,-3.173827886581421,0.1831054538488388,0.6103515625
140356,-0.000732421875,-0.352294921875,0.9732666015625,-2.25830078125,-0.1831054538488388,0.4272460639476776
140370,-0.0032958984375,-0.3509521484375,0.967529296875,-0.4272460639476776,-0.30517578125,0.4882812201976776
140387,-0.0084228515625,-0.3585205078125,0.9754638671875,0.54931640625,-0.2441406100988388,0.4272460639476776
140420,-0.0087890625,-0.3583984375,0.99267578125,4.2724609375,-0.9765624403953552,0.2441406100988388
140438,-0.0111083984375,-0.35107421875,0.96630859375,5.981444835662842,-0.9765624403953552,0.30517578125
140454,-0.012939453125,-0.3590087890625,0.959228515625,6.652831554412842,-0.8544921278953552,0.3662109076976776
140495,-0.0157470703125,-0.3643798828125,0.9564208984375,8.7890625,-1.15966796875,0.30517578125
140511,-0.0169677734375,-0.356689453125,0.9298095703125,9.6435546875,-1.03759765625,0.4272460639476776
140528,-0.0164794921875,-0.35986328125,0.93505859375,9.94873046875,-0.8544921278953552,0.4272460639476776
140543,-0.0152587890625,-0.36328125,0.9427490234375,10.314940452575684,-0.8544921278953552,0.4272460639476776
140560,-0.01220703125,-0.368896484375,0.9464111328125,10.559081077575684,-1.03759765625,0.4272460639476776
140576,-0.012939453125,-0.36865234375,0.9356689453125,10.803221702575684,-0.9765624403953552,0.4882812201976776
140610,-0.0128173828125,-0.3768310546875,0.95263671875,10.925292015075684,-0.7934569716453552,0.4882812201976776
140631,-0.009765625,-0.3812255859375,0.970458984375,10.925292015075684,-1.0986328125,0.4272460639476776
140647,-0.008544921875,-0.3798828125,0.9666748046875,11.047362327575684,-1.220703125,0.3662109076976776
140664,-0.0086669921875,-0.382080078125,0.9638671875,11.047362327575684,-1.3427733182907104,0.3662109076976776
140681,-0.00927734375,-0.385498046875,0.9581298828125,10.803221702575684,-1.2817381620407104,0.4272460639476776
140696,-0.0086669921875,-0.3887939453125,0.9609375,10.681151390075684,-1.4038084745407104,0.3662109076976776
140734,-0.01220703125,-0.3861083984375,0.94189453125,9.58251953125,-1.5258787870407104,0.4882812201976776
140751,-0.014404296875,-0.389892578125,0.9320068359375,8.7890625,-1.2817381620407104,0.6103515625
140772,-0.01416015625,-0.400390625,0.937744140625,7.873534679412842,-1.0986328125,0.6713866591453552
140791,-0.0126953125,-0.400390625,0.9412841796875,7.385253429412842,-1.0986328125,0.6713866591453552
140807,-0.0137939453125,-0.3980712890625,0.921142578125,6.347655773162842,-1.0986328125,0.7324218153953552
140824,-0.012451171875,-0.3985595703125,0.920166015625,5.493163585662842,-0.9155272841453552,0.9765624403953552
140840,-0.0093994140625,-0.410400390625,0.9364013671875,5.0048828125,-0.7324218153953552,1.03759765625
140859,-0.0064697265625,-0.4117431640625,0.93994140625,3.723144292831421,-0.9765624403953552,0.8544921278953552
140876,-0.006591796875,-0.4053955078125,0.921875,3.295898199081421,-0.9765624403953552,0.7934569716453552
140911,-0.00537109375,-0.408203125,0.9420166015625,2.3193359375,-0.4882812201976776,1.03759765625
140923,-0.0045166015625,-0.4088134765625,0.951416015625,1.8310545682907104,-0.7324218153953552,0.9765624403953552
140939,-0.0050048828125,-0.4071044921875,0.941162109375,1.6479490995407104,-0.8544921278953552,0.9155272841453552
140956,-0.005126953125,-0.4036865234375,0.927001953125,1.220703125,-0.7934569716453552,0.9765624403953552
140977,-0.0050048828125,-0.4107666015625,0.9425048828125,0.6713866591453552,-0.4272460639476776,1.0986328125
140993,-0.003662109375,-0.4112548828125,0.9530029296875,0.4882812201976776,-0.4882812201976776,1.0986328125
141010,-0.003173828125,-0.408935546875,0.944091796875,0.0610351525247097,-0.6713866591453552,1.03759765625
141031,-0.00390625,-0.4024658203125,0.9298095703125,-0.1220703050494194,-0.6103515625,1.03759765625
141047,-0.0032958984375,-0.404052734375,0.9344482421875,-0.3662109076976776,-0.2441406100988388,1.15966796875
141064,-0.00244140625,-0.405029296875,0.9422607421875,-0.7324218153953552,-0.1831054538488388,1.2817381620407104
141081,-0.001220703125,-0.4071044921875,0.9388427734375,-0.8544921278953552,-0.30517578125,1.220703125
141097,-0.0003662109375,-0.3994140625,0.9287109375,-1.15966796875,-0.3662109076976776,1.15966796875
141114,-0.001708984375,-0.397216796875,0.9176025390625,-1.4648436307907104,-0.2441406100988388,1.15966796875
141145,-0.002685546875,-0.3941650390625,0.927734375,-1.7700194120407104,0.0610351525247097,1.220703125
141166,-0.0025634765625,-0.3865966796875,0.923095703125,-1.7700194120407104,-0.1831054538488388,1.15966796875
141182,-0.00390625,-0.372314453125,0.9007568359375,-1.7089842557907104,0.1220703050494194,1.220703125
141199,0.0001220703125,-0.365966796875,0.9151611328125,-1.5869139432907104,0.3662109076976776,1.4648436307907104
141217,-0.0003662109375,-0.37451171875,0.9281005859375,-1.4038084745407104,0.4882812201976776,1.7089842557907104
141234,-0.00390625,-0.3846435546875,0.9305419921875,-1.2817381620407104,0.1220703050494194,1.7089842557907104
141264,-0.00244140625,-0.3890380859375,0.9373779296875,-0.7324218153953552,0.7324218153953552,1.8310545682907104
141286,-0.001953125,-0.3934326171875,0.9482421875,-0.2441406100988388,0.7934569716453552,1.8310545682907104
141302,-0.0018310546875,-0.3931884765625,0.9534912109375,0.0610351525247097,0.6713866591453552,1.8310545682907104
141319,-0.002685546875,-0.3956298828125,0.939208984375,0.6713866591453552,0.6103515625,1.8920897245407104
141338,-0.0025634765625,-0.3961181640625,0.9373779296875,1.0986328125,0.7324218153953552,1.9531248807907104
141355,-0.0047607421875,-0.4010009765625,0.925537109375,1.220703125,0.7324218153953552,1.8310545682907104
141384,-0.0047607421875,-0.4029541015625,0.9134521484375,1.3427733182907104,0.7934569716453552,1.8920897245407104
141400,-0.0045166015625,-0.4046630859375,0.9156494140625,1.2817381620407104,0.6713866591453552,1.8310545682907104
141416,-0.004638671875,-0.4078369140625,0.9127197265625,1.2817381620407104,0.54931640625,1.7089842557907104
141450,-0.001220703125,-0.4149169921875,0.9117431640625,1.15966796875,0.1831054538488388,1.5258787870407104
141467,-0.0001220703125,-0.4134521484375,0.9171142578125,1.03759765625,0.0,1.4038084745407104
141484,0.0009765625,-0.417724609375,0.927001953125,1.03759765625,-0.2441406100988388,1.220703125
141500,0.000244140625,-0.41748046875,0.9267578125,1.03759765625,-0.4882812201976776,1.0986328125
141519,-0.0052490234375,-0.4141845703125,0.90869140625,0.9155272841453552,-1.03759765625,0.7934569716453552
141536,-0.0068359375,-0.4139404296875,0.9061279296875,0.7934569716453552,-1.0986328125,0.7324218153953552
141571,-0.009521484375,-0.4136962890625,0.8973388671875,0.30517578125,-1.220703125,0.54931640625
141587,-0.0086669921875,-0.4136962890625,0.905029296875,0.0610351525247097,-1.15966796875,0.4272460639476776
141604,-0.00537109375,-0.4071044921875,0.9237060546875,0.1220703050494194,-1.4648436307907104,0.30517578125
141620,-0.005126953125,-0.40087890625,0.9134521484375,0.30517578125,-1.7089842557907104,0.1831054538488388
141639,-0.007080078125,-0.3953857421875,0.9010009765625,0.9155272841453552,-1.6479490995407104,0.0610351525247097
141656,-0.0067138671875,-0.394775390625,0.900146484375,1.0986328125,-1.7089842557907104,0.0
141691,-0.0064697265625,-0.3834228515625,0.883544921875,1.2817381620407104,-1.5258787870407104,0.0
141707,-0.007568359375,-0.3818359375,0.881103515625,1.4648436307907104,-1.4648436307907104,0.0
141724,-0.0068359375,-0.3756103515625,0.879638671875,1.5869139432907104,-1.4038084745407104,0.0610351525247097
141740,-0.0096435546875,-0.3707275390625,0.8629150390625,1.7700194120407104,-1.4038084745407104,0.1220703050494194
141758,-0.009765625,-0.371337890625,0.8651123046875,1.9531248807907104,-0.9155272841453552,0.30517578125
141775,-0.008056640625,-0.3778076171875,0.8858642578125,2.25830078125,-0.4272460639476776,0.4882812201976776
141807,-0.000244140625,-0.3868408203125,0.92333984375,2.807616949081421,-0.7934569716453552,0.30517578125
141824,-0.0020751953125,-0.3685302734375,0.88916015625,3.051757574081421,-0.9155272841453552,0.4272460639476776
141845,-0.0020751953125,-0.3636474609375,0.86767578125,3.112792730331421,-0.4272460639476776,0.7324218153953552
141861,-0.0013427734375,-0.3697509765625,0.8740234375,3.112792730331421,-0.1831054538488388,0.8544921278953552
141878,-0.001220703125,-0.37353515625,0.877197265625,2.868652105331421,0.0,0.9765624403953552
141895,-0.0010986328125,-0.36767578125,0.8739013671875,2.807616949081421,0.1220703050494194,1.0986328125
141928,-0.0009765625,-0.35888671875,0.8603515625,2.3193359375,0.54931640625,1.5258787870407104
141944,0.0003662109375,-0.3670654296875,0.8719482421875,1.7700194120407104,0.9155272841453552,1.8310545682907104
141960,0.0059814453125,-0.38525390625,0.9095458984375,1.2817381620407104,0.6713866591453552,1.9531248807907104
141976,0.006103515625,-0.389892578125,0.91357421875,1.03759765625,0.4272460639476776,1.8920897245407104
142001,0.005615234375,-0.3819580078125,0.8846435546875,0.4272460639476776,-0.0610351525247097,1.7700194120407104
142017,0.000732421875,-0.358154296875,0.822021484375,-0.7324218153953552,0.2441406100988388,2.0751953125
142029,0.001953125,-0.3599853515625,0.838134765625,-1.5258787870407104,0.6103515625,2.38037109375
142046,0.0052490234375,-0.374755859375,0.87451171875,-2.685546636581421,0.9765624403953552,2.624511480331421
142062,0.0103759765625,-0.3917236328125,0.934326171875,-3.051757574081421,0.7324218153953552,2.563476324081421
142115,-0.0010986328125,-0.3646240234375,0.8658447265625,-4.638671875,-1.220703125,2.197265625
142137,-0.004638671875,-0.363525390625,0.859375,-5.310058116912842,-0.8544921278953552,2.38037109375
142153,-0.0042724609375,-0.37451171875,0.890625,-5.615233898162842,-0.7934569716453552,2.25830078125
142172,-0.0035400390625,-0.375244140625,0.9051513671875,-5.737304210662842,-1.03759765625,2.01416015625
142189,-0.0037841796875,-0.370849609375,0.9285888671875,-5.493163585662842,-1.6479490995407104,1.7700194120407104
142222,-0.0069580078125,-0.3438720703125,0.9061279296875,-4.638671875,-2.01416015625,1.5258787870407104
142239,-0.0068359375,-0.3436279296875,0.9085693359375,-4.39453125,-1.7700194120407104,1.7089842557907104
142256,-0.0052490234375,-0.3712158203125,0.9703369140625,-3.723144292831421,-1.4648436307907104,1.8310545682907104
142277,-0.0089111328125,-0.4010009765625,1.0474853515625,-2.197265625,-1.8920897245407104,1.6479490995407104
142296,-0.0118408203125,-0.4271240234375,1.094482421875,-1.2817381620407104,-2.44140625,1.4038084745407104
142312,-0.0150146484375,-0.38720703125,1.0028076171875,0.3662109076976776,-4.08935546875,0.6713866591453552
142343,-0.016357421875,-0.3511962890625,0.8834228515625,1.4648436307907104,-3.417968511581421,0.9765624403953552
142359,-0.0181884765625,-0.35888671875,0.8846435546875,1.3427733182907104,-2.3193359375,1.5258787870407104
142376,-0.0185546875,-0.376708984375,0.922119140625,1.0986328125,-1.8920897245407104,1.5869139432907104
142396,-0.0162353515625,-0.3857421875,0.9759521484375,1.3427733182907104,-1.8920897245407104,1.4038084745407104
142417,-0.0115966796875,-0.381103515625,0.9888916015625,2.0751953125,-2.38037109375,1.3427733182907104
142438,-0.01318359375,-0.3792724609375,0.9639892578125,2.807616949081421,-2.25830078125,1.4648436307907104
142455,-0.0191650390625,-0.3690185546875,0.923828125,3.051757574081421,-2.197265625,1.4648436307907104
142473,-0.02197265625,-0.366455078125,0.9017333984375,3.112792730331421,-1.5869139432907104,1.7089842557907104
142489,-0.0196533203125,-0.3760986328125,0.9140625,2.624511480331421,-0.6713866591453552,2.13623046875
142520,-0.0140380859375,-0.3970947265625,0.9613037109375,2.01416015625,-0.6713866591453552,2.0751953125
142539,-0.0125732421875,-0.3922119140625,0.9473876953125,1.7700194120407104,-0.9155272841453552,1.8920897245407104
142560,-0.007568359375,-0.3863525390625,0.9344482421875,1.4038084745407104,-0.3662109076976776,2.0751953125
142576,-0.003662109375,-0.3935546875,0.946044921875,1.15966796875,-0.2441406100988388,2.13623046875
142590,-0.0030517578125,-0.391357421875,0.9315185546875,0.4882812201976776,-0.4272460639476776,2.0751953125
142607,-0.0035400390625,-0.38671875,0.918701171875,-0.3662109076976776,-0.2441406100988388,2.0751953125
142640,0.001953125,-0.4002685546875,0.9600830078125,-1.220703125,0.1220703050494194,2.197265625
142659,0.0048828125,-0.4051513671875,0.9835205078125,-1.220703125,-0.1831054538488388,1.9531248807907104
142675,0.007080078125,-0.3946533203125,0.9835205078125,-0.9155272841453552,-0.4272460639476776,1.8310545682907104
142705,0.00830078125,-0.3973388671875,0.971923828125,-0.8544921278953552,-0.7324218153953552,1.8920897245407104
142721,0.00732421875,-0.400390625,0.9598388671875,-1.03759765625,-0.7324218153953552,1.8310545682907104
142733,0.0089111328125,-0.398681640625,0.958251953125,-1.2817381620407104,-0.6103515625,1.6479490995407104
142762,0.0068359375,-0.3834228515625,0.9503173828125,-1.3427733182907104,-0.6713866591453552,1.5869139432907104
142778,0.007080078125,-0.385009765625,0.9603271484375,-0.9765624403953552,-0.54931640625,1.7089842557907104
142795,0.004150390625,-0.3878173828125,0.9564208984375,-0.6713866591453552,-0.54931640625,1.5869139432907104
142831,0.0013427734375,-0.39453125,0.9676513671875,0.1831054538488388,-0.6713866591453552,1.5258787870407104
142843,0.0023193359375,-0.392822265625,0.9710693359375,0.54931640625,-0.6713866591453552,1.4648436307907104
142859,0.002685546875,-0.390380859375,0.962890625,1.0986328125,-0.9155272841453552,1.4038084745407104
142876,0.00048828125,-0.3812255859375,0.9278564453125,1.4648436307907104,-0.54931640625,1.5258787870407104
142895,0.000244140625,-0.38427734375,0.9307861328125,1.7089842557907104,-0.0610351525247097,1.6479490995407104
142911,-0.0003662109375,-0.3914794921875,0.9404296875,2.01416015625,0.1831054538488388,1.7089842557907104
142928,-0.001953125,-0.4066162109375,0.9783935546875,2.807616949081421,0.30517578125,1.4648436307907104
142949,-0.0037841796875,-0.401123046875,0.998779296875,3.967284917831421,0.0610351525247097,1.2817381620407104
142965,-0.0047607421875,-0.394775390625,0.9881591796875,4.57763671875,0.0610351525247097,1.3427733182907104
142982,-0.00390625,-0.3961181640625,0.990478515625,5.798339366912842,0.1220703050494194,1.3427733182907104
142999,-0.009521484375,-0.3912353515625,0.9573974609375,6.896972179412842,0.30517578125,1.2817381620407104
143015,-0.0113525390625,-0.4017333984375,0.9669189453125,7.202147960662842,0.7324218153953552,1.3427733182907104
143031,-0.01123046875,-0.4097900390625,0.976806640625,7.629394054412842,0.9155272841453552,1.3427733182907104
143062,-0.0074462890625,-0.406982421875,0.978515625,8.11767578125,0.6713866591453552,0.9765624403953552
143127,-0.0152587890625,-0.421142578125,0.9754638671875,8.9111328125,1.15966796875,0.9765624403953552
143144,-0.015869140625,-0.4241943359375,0.963134765625,8.544921875,1.5869139432907104,0.9765624403953552
143161,-0.01171875,-0.4307861328125,0.9818115234375,8.36181640625,1.5258787870407104,0.9155272841453552
143178,-0.010009765625,-0.4361572265625,0.97998046875,8.11767578125,1.3427733182907104,0.7324218153953552
143203,-0.008544921875,-0.430419921875,0.988037109375,8.056640625,1.4038084745407104,0.6103515625
143219,-0.008544921875,-0.4261474609375,0.9678955078125,8.056640625,1.3427733182907104,0.54931640625
143236,-0.00537109375,-0.4205322265625,0.95849609375,7.873534679412842,1.4648436307907104,0.54931640625
143255,-0.0068359375,-0.422607421875,0.9453125,7.385253429412842,1.7089842557907104,0.6103515625
143270,-0.0059814453125,-0.4359130859375,0.956787109375,6.774901866912842,1.9531248807907104,0.7324218153953552
143304,-0.0010986328125,-0.4483642578125,0.9591064453125,5.676269054412842,1.8920897245407104,0.2441406100988388
143321,0.000732421875,-0.4510498046875,0.95947265625,4.94384765625,1.8920897245407104,0.1831054538488388
143337,0.00390625,-0.4588623046875,0.9786376953125,4.638671875,1.9531248807907104,0.1220703050494194
143353,0.0042724609375,-0.467529296875,0.990234375,4.0283203125,1.7089842557907104,-0.2441406100988388
143373,0.00341796875,-0.4698486328125,0.991455078125,3.479003667831421,1.4648436307907104,-0.54931640625
143390,0.00537109375,-0.4771728515625,1.022216796875,3.173827886581421,1.15966796875,-0.9765624403953552
143407,0.0030517578125,-0.466796875,1.0064697265625,2.990722417831421,0.6713866591453552,-1.2817381620407104
143427,0.0029296875,-0.4656982421875,1.00244140625,2.807616949081421,0.54931640625,-1.3427733182907104
143443,0.00146484375,-0.46142578125,0.9825439453125,2.44140625,0.4272460639476776,-1.5258787870407104
143455,0.003662109375,-0.462646484375,0.9913330078125,1.8310545682907104,0.2441406100988388,-1.7700194120407104
143492,0.0028076171875,-0.450439453125,0.98046875,1.15966796875,0.2441406100988388,-1.8920897245407104
143509,0.0003662109375,-0.4517822265625,0.9815673828125,0.7324218153953552,-0.1220703050494194,-1.9531248807907104
143526,-0.000732421875,-0.4395751953125,0.96337890625,0.4272460639476776,0.1831054538488388,-1.8920897245407104
143542,0.0015869140625,-0.44384765625,0.9688720703125,0.2441406100988388,0.2441406100988388,-1.8920897245407104
143610,0.0008544921875,-0.4400634765625,0.9532470703125,-0.30517578125,0.1220703050494194,-2.01416015625
143676,-0.000244140625,-0.43896484375,0.9505615234375,-0.4882812201976776,0.4882812201976776,-1.8920897245407104
143693,0.0001220703125,-0.4359130859375,0.94482421875,-0.4272460639476776,0.8544921278953552,-1.6479490995407104
143723,0.0001220703125,-0.4315185546875,0.9305419921875,-0.3662109076976776,1.0986328125,-1.6479490995407104
143739,0.0001220703125,-0.4324951171875,0.9349365234375,-0.3662109076976776,1.4648436307907104,-1.4038084745407104
143756,0.00146484375,-0.4332275390625,0.941650390625,-0.30517578125,1.5258787870407104,-1.4038084745407104
143791,0.0020751953125,-0.421142578125,0.9217529296875,0.0,1.4038084745407104,-1.3427733182907104
143807,0.00439453125,-0.4222412109375,0.915283203125,-0.0610351525247097,1.7089842557907104,-1.15966796875
143824,0.005615234375,-0.4293212890625,0.9273681640625,0.0,2.01416015625,-1.03759765625
143840,0.006103515625,-0.4364013671875,0.9403076171875,0.0610351525247097,1.9531248807907104,-1.03759765625
143859,0.007568359375,-0.42919921875,0.944580078125,0.3662109076976776,1.5869139432907104,-1.15966796875
143876,0.006591796875,-0.4190673828125,0.9312744140625,0.54931640625,1.6479490995407104,-1.15966796875
143913,0.0078125,-0.4234619140625,0.935302734375,0.7934569716453552,1.5258787870407104,-0.9155272841453552
143929,0.008056640625,-0.419921875,0.9349365234375,0.8544921278953552,1.5258787870407104,-0.9155272841453552
143945,0.0087890625,-0.42041015625,0.93359375,1.15966796875,1.4648436307907104,-0.8544921278953552
143962,0.0111083984375,-0.4168701171875,0.931884765625,1.4038084745407104,1.3427733182907104,-0.9155272841453552
143978,0.0115966796875,-0.4100341796875,0.9224853515625,1.5869139432907104,1.220703125,-0.7934569716453552
144028,0.001708984375,-0.505615234375,1.303466796875,-4.7607421875,-0.30517578125,-0.7324218153953552
144045,0.00341796875,-0.4764404296875,1.2789306640625,-8.1787109375,-1.15966796875,-0.6103515625
144066,0.0096435546875,-0.3289794921875,0.810791015625,-6.469726085662842,-0.1220703050494194,0.9155272841453552
144081,0.012451171875,-0.35302734375,0.86083984375,-4.150390625,0.6103515625,1.6479490995407104
144097,0.007080078125,-0.412353515625,0.922119140625,-2.624511480331421,0.1220703050494194,1.5258787870407104
144113,0.008544921875,-0.4439697265625,0.956298828125,-0.7934569716453552,-0.4882812201976776,1.0986328125
144147,0.0054931640625,-0.4215087890625,0.9071044921875,-1.03759765625,-0.6713866591453552,0.1220703050494194
144164,0.0006103515625,-0.40869140625,0.8912353515625,-1.7700194120407104,-0.1220703050494194,0.0
144180,-0.0001220703125,-0.3983154296875,0.94091796875,-1.4648436307907104,0.0,0.0610351525247097
144197,0.0040283203125,-0.400146484375,0.9710693359375,-0.7934569716453552,-0.30517578125,0.1220703050494194
144216,0.01220703125,-0.3916015625,0.951171875,-0.4882812201976776,-0.8544921278953552,0.2441406100988388
144232,0.01171875,-0.4114990234375,0.922119140625,-0.1220703050494194,-0.8544921278953552,0.3662109076976776
144265,0.0052490234375,-0.4322509765625,0.9359130859375,-0.3662109076976776,-0.54931640625,0.1831054538488388
144287,0.0030517578125,-0.4091796875,0.9327392578125,-0.54931640625,-0.7324218153953552,-0.1831054538488388
144303,0.0030517578125,-0.393310546875,0.9405517578125,-0.0610351525247097,-0.7934569716453552,0.0
144315,0.0057373046875,-0.406005859375,0.9451904296875,0.1831054538488388,-0.7934569716453552,0.1831054538488388
144336,0.008056640625,-0.4150390625,0.9422607421875,0.30517578125,-0.6713866591453552,0.30517578125
144352,0.0086669921875,-0.4212646484375,0.93115234375,0.30517578125,-0.6103515625,0.30517578125
144384,0.0008544921875,-0.4139404296875,0.9423828125,-0.2441406100988388,-0.4272460639476776,0.0
144406,0.0054931640625,-0.4022216796875,0.9390869140625,-0.0610351525247097,-0.4882812201976776,0.1220703050494194
144422,0.00830078125,-0.40771484375,0.935791015625,0.0,-0.4272460639476776,0.2441406100988388
144439,0.005126953125,-0.42041015625,0.9398193359375,-0.1220703050494194,-0.3662109076976776,0.4272460639476776
144458,0.0032958984375,-0.418701171875,0.9324951171875,-0.54931640625,-0.30517578125,0.3662109076976776
144475,0.0030517578125,-0.4154052734375,0.93310546875,-1.03759765625,-0.1831054538488388,0.30517578125
144505,0.006103515625,-0.3984375,0.9359130859375,-1.2817381620407104,-0.1220703050494194,0.30517578125
144521,0.0050048828125,-0.400146484375,0.9345703125,-0.9765624403953552,-0.30517578125,0.30517578125
144537,0.0040283203125,-0.40576171875,0.940185546875,-0.7934569716453552,-0.3662109076976776,0.30517578125
144569,0.004638671875,-0.4061279296875,0.9400634765625,-0.4272460639476776,-0.30517578125,0.30517578125
144590,0.0054931640625,-0.40478515625,0.940185546875,-0.30517578125,-0.30517578125,0.30517578125
144621,0.0052490234375,-0.406982421875,0.9337158203125,-0.30517578125,-0.30517578125,0.3662109076976776
144671,0.004638671875,-0.4017333984375,0.9395751953125,-0.2441406100988388,-0.2441406100988388,0.3662109076976776
144695,0.0047607421875,-0.4014892578125,0.9400634765625,-0.1220703050494194,-0.2441406100988388,0.30517578125
144711,0.0050048828125,-0.4022216796875,0.941650390625,0.0610351525247097,-0.30517578125,0.30517578125
144744,0.0050048828125,-0.39892578125,0.9405517578125,0.6103515625,-0.2441406100988388,0.3662109076976776
144761,0.004150390625,-0.399658203125,0.9420166015625,0.9765624403953552,-0.30517578125,0.30517578125
144778,0.0037841796875,-0.400634765625,0.9415283203125,1.15966796875,-0.2441406100988388,0.30517578125
144818,0.006591796875,-0.401611328125,0.9378662109375,1.5869139432907104,-0.30517578125,0.3662109076976776
144868,0.00390625,-0.403564453125,0.93994140625,1.8310545682907104,-0.30517578125,0.3662109076976776
144884,0.00439453125,-0.40625,0.9395751953125,1.8920897245407104,-0.30517578125,0.30517578125
144901,0.0050048828125,-0.4061279296875,0.9388427734375,1.8920897245407104,-0.30517578125,0.2441406100988388
144917,0.004150390625,-0.40576171875,0.9371337890625,1.9531248807907104,-0.30517578125,0.30517578125
144939,0.0020751953125,-0.4058837890625,0.937744140625,2.01416015625,-0.30517578125,0.2441406100988388
144955,0.0029296875,-0.4061279296875,0.940185546875,2.0751953125,-0.30517578125,0.30517578125
144971,0.004638671875,-0.4063720703125,0.9393310546875,2.0751953125,-0.30517578125,0.3662109076976776
144992,0.0042724609375,-0.406982421875,0.9398193359375,2.13623046875,-0.2441406100988388,0.3662109076976776
145008,0.00390625,-0.4093017578125,0.9376220703125,2.0751953125,-0.2441406100988388,0.2441406100988388
145025,0.004150390625,-0.4111328125,0.9376220703125,1.9531248807907104,-0.2441406100988388,0.2441406100988388
145042,0.0050048828125,-0.4097900390625,0.938232421875,1.8920897245407104,-0.2441406100988388,0.30517578125
145061,0.004150390625,-0.4100341796875,0.93798828125,1.8310545682907104,-0.30517578125,0.3662109076976776
145081,0.0037841796875,-0.40869140625,0.93701171875,1.8310545682907104,-0.30517578125,0.30517578125
145098,0.0037841796875,-0.4073486328125,0.9371337890625,1.8920897245407104,-0.30517578125,0.30517578125
145117,0.003173828125,-0.4111328125,0.93896484375,1.8920897245407104,-0.30517578125,0.3662109076976776
145134,0.00244140625,-0.4127197265625,0.9342041015625,1.7089842557907104,-0.1831054538488388,0.3662109076976776
145166,0.004150390625,-0.41796875,0.934326171875,1.15966796875,-0.1220703050494194,0.3662109076976776
145188,0.006591796875,-0.4185791015625,0.9361572265625,0.6103515625,-0.1831054538488388,0.3662109076976776
145204,0.0040283203125,-0.4149169921875,0.9342041015625,0.3662109076976776,-0.1831054538488388,0.3662109076976776
145216,0.0029296875,-0.4134521484375,0.9344482421875,0.0,-0.1220703050494194,0.4272460639476776
145235,0.0030517578125,-0.4110107421875,0.936767578125,-0.1831054538488388,-0.0610351525247097,0.4272460639476776
145252,0.0037841796875,-0.4124755859375,0.9356689453125,-0.4272460639476776,-0.1220703050494194,0.4882812201976776
145285,0.0042724609375,-0.4129638671875,0.9368896484375,-0.8544921278953552,-0.0610351525247097,0.4272460639476776
145299,0.0030517578125,-0.4091796875,0.9378662109375,-0.9765624403953552,-0.0610351525247097,0.4272460639476776
145319,0.003662109375,-0.4085693359375,0.9376220703125,-1.0986328125,-0.0610351525247097,0.4272460639476776
145335,0.005126953125,-0.40869140625,0.9384765625,-1.15966796875,0.0,0.4882812201976776
145354,0.004150390625,-0.4095458984375,0.93798828125,-1.2817381620407104,-0.0610351525247097,0.4882812201976776
145371,0.004150390625,-0.4091796875,0.93701171875,-1.4038084745407104,-0.0610351525247097,0.4882812201976776
145404,0.00537109375,-0.405517578125,0.9404296875,-1.7089842557907104,0.0,0.6103515625
145420,0.0050048828125,-0.404541015625,0.9404296875,-1.7700194120407104,-0.0610351525247097,0.54931640625
145437,0.0037841796875,-0.404296875,0.9381103515625,-1.8920897245407104,-0.0610351525247097,0.4882812201976776
145458,0.0035400390625,-0.4049072265625,0.9381103515625,-2.01416015625,-0.0610351525247097,0.4882812201976776
145477,0.00537109375,-0.404541015625,0.94091796875,-2.0751953125,-0.0610351525247097,0.4882812201976776
145492,0.0062255859375,-0.40283203125,0.94091796875,-2.197265625,-0.0610351525247097,0.54931640625
145525,0.00341796875,-0.400390625,0.9415283203125,-2.3193359375,0.1220703050494194,0.54931640625
145542,0.0037841796875,-0.39990234375,0.94287109375,-2.38037109375,0.0610351525247097,0.54931640625
145559,0.00537109375,-0.3990478515625,0.9439697265625,-2.38037109375,0.1220703050494194,0.4882812201976776
145575,0.0059814453125,-0.3935546875,0.9412841796875,-2.197265625,0.1831054538488388,0.54931640625
145652,-0.000244140625,-0.3765869140625,0.9547119140625,-0.0610351525247097,2.563476324081421,1.6479490995407104
145669,0.0003662109375,-0.390625,0.9989013671875,1.7700194120407104,3.601073980331421,2.0751953125
145685,0.0035400390625,-0.43212890625,1.107666015625,2.990722417831421,3.417968511581421,1.8310545682907104
145702,0.0096435546875,-0.49853515625,1.2503662109375,6.286620616912842,1.5258787870407104,0.9765624403953552
145719,0.0147705078125,-0.5208740234375,1.285400390625,9.6435546875,0.3662109076976776,0.3662109076976776
145735,0.0289306640625,-0.5611572265625,1.348388671875,12.268065452575684,-0.4272460639476776,-0.2441406100988388
145773,0.0284423828125,-0.5709228515625,1.3466796875,14.892577171325684,-1.4648436307907104,-1.220703125
145789,0.0194091796875,-0.5703125,1.360595703125,16.54052734375,-1.5258787870407104,-1.5258787870407104
145806,0.0107421875,-0.569580078125,1.3604736328125,17.2119140625,-2.01416015625,-1.7700194120407104
145822,0.0093994140625,-0.5784912109375,1.3170166015625,18.37158203125,-2.44140625,-1.8920897245407104
145839,0.01171875,-0.595947265625,1.3106689453125,18.310546875,-2.3193359375,-1.8310545682907104
145856,0.011474609375,-0.626220703125,1.28271484375,16.9677734375,-2.3193359375,-2.13623046875
145891,0.004150390625,-0.6263427734375,1.2694091796875,14.892577171325684,-1.5258787870407104,-2.3193359375
145907,0.0072021484375,-0.6298828125,1.2852783203125,14.343260765075684,-1.3427733182907104,-2.3193359375
145941,0.0177001953125,-0.6695556640625,1.3055419921875,11.535643577575684,-1.6479490995407104,-2.38037109375
145960,0.013427734375,-0.67529296875,1.2462158203125,9.6435546875,-2.25830078125,-2.807616949081421
145976,0.003173828125,-0.64794921875,1.1707763671875,7.324218273162842,-1.7700194120407104,-2.929687261581421
146010,-0.000732421875,-0.62744140625,1.1402587890625,3.540038824081421,-1.03759765625,-2.746581792831421
146031,-0.0018310546875,-0.62060546875,1.116943359375,1.0986328125,-0.8544921278953552,-2.746581792831421
146047,0.0057373046875,-0.624267578125,1.109375,-0.0610351525247097,-0.8544921278953552,-2.807616949081421
146064,0.0081787109375,-0.61279296875,1.0845947265625,-2.25830078125,-1.4038084745407104,-3.295898199081421
146081,0.01220703125,-0.56884765625,1.0137939453125,-5.065917491912842,-1.7700194120407104,-3.601073980331421
146097,0.0072021484375,-0.5133056640625,0.9371337890625,-6.469726085662842,-1.5258787870407104,-3.479003667831421
146114,0.0042724609375,-0.4935302734375,0.9404296875,-9.8876953125,-1.03759765625,-3.051757574081421
146135,0.001953125,-0.47314453125,0.9288330078125,-11.047362327575684,-1.8310545682907104,-3.295898199081421
146152,0.001953125,-0.4571533203125,0.900390625,-11.596678733825684,-2.50244140625,-3.479003667831421
146173,0.000244140625,-0.39501953125,0.7698974609375,-12.878417015075684,-2.746581792831421,-3.784179449081421
146193,0.000244140625,-0.352783203125,0.693359375,-14.404295921325684,-1.7700194120407104,-3.295898199081421
146209,-0.0015869140625,-0.3223876953125,0.669189453125,-15.380858421325684,-1.5869139432907104,-3.173827886581421
146243,-0.0042724609375,-0.2655029296875,0.616455078125,-15.991209983825684,-1.5258787870407104,-2.990722417831421
146259,-0.00732421875,-0.23583984375,0.576904296875,-15.991209983825684,-1.5258787870407104,-2.868652105331421
146276,-0.0069580078125,-0.206787109375,0.5301513671875,-16.11328125,-1.4038084745407104,-2.44140625
146309,-0.00390625,-0.1837158203125,0.47216796875,-16.29638671875,-1.03759765625,-2.01416015625
146325,-0.0040283203125,-0.1734619140625,0.446044921875,-16.357421875,-0.54931640625,-1.7700194120407104
146342,-0.0025634765625,-0.170166015625,0.4462890625,-16.357421875,-0.2441406100988388,-1.5869139432907104
146358,-0.0006103515625,-0.17529296875,0.4725341796875,-16.29638671875,-0.0610351525247097,-1.5258787870407104
146372,-0.0010986328125,-0.173095703125,0.4879150390625,-15.808104515075684,0.0,-1.4648436307907104
146389,-0.0081787109375,-0.1763916015625,0.5025634765625,-15.380858421325684,0.0,-1.3427733182907104
146422,-0.01123046875,-0.2213134765625,0.608642578125,-13.183592796325684,0.6713866591453552,-0.9155272841453552
146439,-0.011474609375,-0.230224609375,0.65576171875,-11.596678733825684,0.1220703050494194,-1.220703125
146455,-0.01220703125,-0.2271728515625,0.683837890625,-10.681151390075684,0.1831054538488388,-1.220703125
146488,-0.0162353515625,-0.2451171875,0.767822265625,-6.042479991912842,0.1831054538488388,-1.03759765625
146509,-0.0186767578125,-0.249755859375,0.787353515625,-4.7607421875,0.0,-1.0986328125
146526,-0.02587890625,-0.253173828125,0.8070068359375,-1.8310545682907104,-0.0610351525247097,-1.220703125
146542,-0.0255126953125,-0.25390625,0.8294677734375,1.6479490995407104,0.2441406100988388,-1.15966796875
146559,-0.0169677734375,-0.2547607421875,0.87158203125,5.126952648162842,-0.30517578125,-1.220703125
146576,-0.020263671875,-0.2618408203125,0.8414306640625,8.36181640625,-0.30517578125,-1.03759765625
146609,-0.02685546875,-0.2972412109375,0.8775634765625,12.878417015075684,0.0,-1.15966796875
146663,-0.02392578125,-0.3065185546875,0.92822265625,20.629880905151367,0.1831054538488388,-0.9155272841453552
146680,-0.0234375,-0.3302001953125,0.9512939453125,22.033689498901367,0.1220703050494194,-0.8544921278953552
146696,-0.0283203125,-0.34814453125,0.9248046875,24.414060592651367,-0.30517578125,-0.8544921278953552
146734,-0.0245361328125,-0.3724365234375,0.9505615234375,28.015134811401367,0.30517578125,-0.7324218153953552
146751,-0.0234375,-0.3692626953125,0.9462890625,29.357908248901367,0.30517578125,-0.6713866591453552
146771,-0.0220947265625,-0.3829345703125,0.9437255859375,30.212400436401367,0.3662109076976776,-0.4272460639476776
146791,-0.024658203125,-0.4075927734375,0.9393310546875,30.456541061401367,0.4272460639476776,-0.30517578125
146807,-0.0245361328125,-0.4422607421875,0.9525146484375,30.517576217651367,0.54931640625,-0.1220703050494194
146819,-0.0238037109375,-0.4508056640625,0.9501953125,29.968259811401367,0.30517578125,-0.2441406100988388
146836,-0.023681640625,-0.4520263671875,0.9361572265625,29.418943405151367,0.1831054538488388,-0.30517578125
146856,-0.0172119140625,-0.4617919921875,0.9410400390625,28.137205123901367,0.4272460639476776,0.0
146873,-0.0166015625,-0.47607421875,0.9556884765625,26.062009811401367,0.1220703050494194,0.1220703050494194
146905,-0.02099609375,-0.502197265625,0.9107666015625,21.972654342651367,-1.0986328125,-0.0610351525247097
146924,-0.02197265625,-0.4998779296875,0.891357421875,18.49365234375,-1.15966796875,-0.0610351525247097
146940,-0.022216796875,-0.4952392578125,0.880615234375,16.7236328125,-0.9765624403953552,0.0
146957,-0.022216796875,-0.497314453125,0.8870849609375,13.000487327575684,-0.7324218153953552,0.30517578125
146976,-0.021240234375,-0.5093994140625,0.908935546875,9.46044921875,-0.8544921278953552,0.4272460639476776
146993,-0.0198974609375,-0.5157470703125,0.917724609375,6.225585460662842,-1.03759765625,0.4882812201976776
147024,-0.0185546875,-0.5166015625,0.93603515625,2.38037109375,-0.8544921278953552,0.8544921278953552
147046,-0.017578125,-0.5225830078125,0.9576416015625,0.30517578125,-1.4648436307907104,0.7934569716453552
147062,-0.0181884765625,-0.5107421875,0.9298095703125,-1.7089842557907104,-1.7089842557907104,0.8544921278953552
147079,-0.0208740234375,-0.503662109375,0.8994140625,-2.807616949081421,-1.6479490995407104,0.9155272841453552
147097,-0.0208740234375,-0.5018310546875,0.895751953125,-4.82177734375,-1.5258787870407104,1.03759765625
147114,-0.0203857421875,-0.4967041015625,0.8826904296875,-6.835937023162842,-1.4648436307907104,1.03759765625
147147,-0.0191650390625,-0.46826171875,0.854736328125,-9.521484375,-1.4038084745407104,1.220703125
147213,-0.0128173828125,-0.4635009765625,0.8828125,-13.427733421325684,-1.03759765625,1.7089842557907104
147235,-0.0078125,-0.44970703125,0.8743896484375,-14.160155296325684,-0.7934569716453552,2.01416015625
147251,0.0,-0.4520263671875,0.880126953125,-14.587401390075684,-0.6713866591453552,2.0751953125
147272,0.0029296875,-0.4564208984375,0.88720703125,-15.197752952575684,-0.3662109076976776,2.38037109375
147289,0.010986328125,-0.4605712890625,0.9195556640625,-15.747069358825684,-0.3662109076976776,2.38037109375
147305,0.0113525390625,-0.452392578125,0.9190673828125,-15.930174827575684,-0.4272460639476776,2.50244140625
147322,0.0108642578125,-0.4442138671875,0.9344482421875,-16.05224609375,-0.3662109076976776,2.624511480331421
147339,0.00439453125,-0.4410400390625,0.93310546875,-15.686034202575684,-0.6713866591453552,2.685546636581421
147387,-0.00830078125,-0.4285888671875,0.9066162109375,-13.793944358825684,0.1220703050494194,3.173827886581421
147408,-0.0142822265625,-0.4246826171875,0.9248046875,-12.451170921325684,0.1220703050494194,3.295898199081421
147425,-0.0174560546875,-0.4180908203125,0.928466796875,-11.108397483825684,0.1831054538488388,3.479003667831421
147442,-0.0191650390625,-0.4180908203125,0.9156494140625,-10.375975608825684,0.2441406100988388,3.601073980331421
147458,-0.021484375,-0.4215087890625,0.9095458984375,-8.9111328125,0.54931640625,3.723144292831421
147473,-0.023193359375,-0.4276123046875,0.909912109375,-7.568358898162842,0.7934569716453552,3.967284917831421
147506,-0.0279541015625,-0.42578125,0.9022216796875,-5.981444835662842,1.3427733182907104,4.0283203125
147527,-0.0247802734375,-0.4312744140625,0.918701171875,-4.8828125,1.5258787870407104,4.08935546875
147543,-0.02099609375,-0.431640625,0.91552734375,-4.33349609375,1.5869139432907104,4.08935546875
147560,-0.0172119140625,-0.4296875,0.914794921875,-3.173827886581421,1.7089842557907104,4.0283203125
147577,-0.0162353515625,-0.42822265625,0.9150390625,-2.01416015625,1.9531248807907104,4.0283203125
147593,-0.0140380859375,-0.4210205078125,0.933349609375,-1.4038084745407104,2.0751953125,3.967284917831421
147627,-0.017822265625,-0.417236328125,0.9425048828125,1.6479490995407104,1.7089842557907104,3.845214605331421
147679,-0.0157470703125,-0.42138671875,0.9210205078125,3.906249761581421,1.2817381620407104,3.540038824081421
147697,-0.0140380859375,-0.42138671875,0.9163818359375,4.45556640625,1.220703125,3.479003667831421
147714,-0.0111083984375,-0.4273681640625,0.9273681640625,4.638671875,1.220703125,3.479003667831421
147747,-0.010009765625,-0.4385986328125,0.9449462890625,5.187987804412842,0.6103515625,3.173827886581421
147764,-0.0057373046875,-0.4427490234375,0.9534912109375,5.249022960662842,0.1831054538488388,2.868652105331421
147781,-0.0045166015625,-0.442626953125,0.9404296875,5.249022960662842,-0.3662109076976776,2.624511480331421
147802,-0.00439453125,-0.4412841796875,0.9293212890625,5.187987804412842,-0.4272460639476776,2.50244140625
147814,-0.0015869140625,-0.4404296875,0.936767578125,5.187987804412842,-0.4882812201976776,2.197265625
147864,0.00048828125,-0.4515380859375,0.9759521484375,5.798339366912842,-1.4648436307907104,1.7089842557907104
147881,-0.0003662109375,-0.4483642578125,0.9559326171875,6.042479991912842,-1.8920897245407104,1.4648436307907104
147897,-0.0009765625,-0.44677734375,0.9482421875,6.103515148162842,-1.8920897245407104,1.4038084745407104
147918,0.0001220703125,-0.445556640625,0.94970703125,6.042479991912842,-2.13623046875,1.15966796875
147938,-0.0030517578125,-0.446044921875,0.93408203125,5.859374523162842,-2.197265625,0.9765624403953552
147954,-0.0064697265625,-0.4442138671875,0.922607421875,5.737304210662842,-2.197265625,0.8544921278953552
147987,-0.0057373046875,-0.443115234375,0.9207763671875,5.249022960662842,-2.3193359375,0.4882812201976776
148004,-0.0067138671875,-0.43798828125,0.9066162109375,5.0048828125,-2.38037109375,0.4882812201976776
148021,-0.0078125,-0.44140625,0.8992919921875,4.57763671875,-2.01416015625,0.4882812201976776
148037,-0.0069580078125,-0.4456787109375,0.904541015625,4.39453125,-1.9531248807907104,0.4272460639476776
148056,-0.0047607421875,-0.4510498046875,0.916015625,3.967284917831421,-1.9531248807907104,0.2441406100988388
148077,-0.006103515625,-0.444091796875,0.916015625,3.601073980331421,-1.9531248807907104,0.0610351525247097
148094,-0.006103515625,-0.4412841796875,0.91015625,3.417968511581421,-1.8310545682907104,0.0
148113,-0.006591796875,-0.4420166015625,0.90625,3.051757574081421,-1.6479490995407104,0.0610351525247097
148129,-0.0057373046875,-0.442138671875,0.9014892578125,2.563476324081421,-1.4038084745407104,-0.0610351525247097
148162,-0.0079345703125,-0.4322509765625,0.88330078125,1.4648436307907104,-0.30517578125,0.0
148181,-0.006103515625,-0.427001953125,0.88818359375,1.15966796875,-0.0610351525247097,0.0610351525247097
148202,-0.00634765625,-0.4268798828125,0.8900146484375,0.4882812201976776,0.1831054538488388,0.2441406100988388
148218,-0.0076904296875,-0.4332275390625,0.8973388671875,-0.1831054538488388,0.4882812201976776,0.30517578125
148237,-0.006591796875,-0.4324951171875,0.9010009765625,-0.6713866591453552,0.54931640625,0.3662109076976776
148254,-0.0050048828125,-0.4324951171875,0.90087890625,-0.8544921278953552,0.7934569716453552,0.4882812201976776
148287,-0.00390625,-0.4381103515625,0.9295654296875,-1.0986328125,1.220703125,0.4882812201976776
148304,-0.0064697265625,-0.4315185546875,0.92431640625,-0.9765624403953552,1.4038084745407104,0.54931640625
148321,-0.0067138671875,-0.429443359375,0.9232177734375,-0.8544921278953552,1.4648436307907104,0.6103515625
148342,-0.0059814453125,-0.4329833984375,0.9295654296875,-0.4882812201976776,1.7089842557907104,0.7324218153953552
148358,-0.00390625,-0.429931640625,0.9256591796875,-0.1220703050494194,1.5258787870407104,0.7324218153953552
148375,-0.0029296875,-0.4241943359375,0.9036865234375,0.1220703050494194,1.5258787870407104,0.7324218153953552
148412,-0.003173828125,-0.419677734375,0.8800048828125,0.8544921278953552,1.7089842557907104,0.7934569716453552
148429,-0.003662109375,-0.4171142578125,0.8729248046875,1.0986328125,1.7089842557907104,0.8544921278953552
148446,-0.00439453125,-0.40869140625,0.855224609375,1.220703125,1.7700194120407104,0.7934569716453552
148463,-0.0032958984375,-0.406005859375,0.8458251953125,1.2817381620407104,1.8920897245407104,0.7934569716453552
148485,-0.001220703125,-0.4019775390625,0.8411865234375,1.2817381620407104,1.9531248807907104,0.8544921278953552
148501,0.0035400390625,-0.3970947265625,0.8419189453125,1.220703125,1.8920897245407104,1.03759765625
148518,0.00537109375,-0.400390625,0.8463134765625,1.0986328125,2.01416015625,1.15966796875
148536,0.0052490234375,-0.411865234375,0.86767578125,1.03759765625,2.01416015625,1.220703125
148553,0.0054931640625,-0.41455078125,0.8741455078125,0.7324218153953552,1.4648436307907104,1.03759765625
148585,-0.0003662109375,-0.402587890625,0.8414306640625,0.4882812201976776,1.5258787870407104,1.2817381620407104
148599,-0.0020751953125,-0.4093017578125,0.8380126953125,0.54931640625,1.7089842557907104,1.4648436307907104
148620,0.000732421875,-0.4285888671875,0.872802734375,0.54931640625,2.01416015625,1.5258787870407104
148636,0.001953125,-0.4422607421875,0.8939208984375,0.6103515625,1.9531248807907104,1.4038084745407104
148655,0.00341796875,-0.4393310546875,0.9034423828125,0.9155272841453552,1.6479490995407104,1.3427733182907104
148672,0.0018310546875,-0.436279296875,0.8890380859375,1.3427733182907104,1.220703125,1.220703125
148705,-0.00146484375,-0.42919921875,0.8468017578125,0.8544921278953552,1.7089842557907104,1.6479490995407104
148722,-0.0003662109375,-0.432861328125,0.8525390625,0.4882812201976776,1.7700194120407104,1.7700194120407104
148739,0.00439453125,-0.4456787109375,0.8690185546875,-0.1831054538488388,1.8310545682907104,1.5869139432907104
148760,0.01220703125,-0.4427490234375,0.8773193359375,-0.6103515625,1.5258787870407104,1.4648436307907104
148776,0.016357421875,-0.4342041015625,0.8680419921875,-0.8544921278953552,1.2817381620407104,1.4038084745407104
148793,0.0150146484375,-0.423583984375,0.842529296875,-1.5258787870407104,0.8544921278953552,1.220703125
148826,0.0108642578125,-0.4107666015625,0.8099365234375,-3.234863042831421,1.5869139432907104,1.5869139432907104
148842,0.01416015625,-0.4224853515625,0.8489990234375,-4.0283203125,1.8310545682907104,1.4648436307907104
148859,0.0172119140625,-0.4266357421875,0.8897705078125,-4.33349609375,0.7934569716453552,1.03759765625
148876,0.01318359375,-0.3992919921875,0.8604736328125,-4.2724609375,0.1220703050494194,0.7324218153953552
148901,0.00927734375,-0.3748779296875,0.813720703125,-4.57763671875,0.1831054538488388,0.8544921278953552
148917,0.0074462890625,-0.3707275390625,0.8189697265625,-4.82177734375,0.6103515625,1.03759765625
148929,0.008544921875,-0.390380859375,0.889404296875,-4.8828125,1.03759765625,1.2817381620407104
148946,0.009521484375,-0.398681640625,0.919921875,-4.69970703125,0.8544921278953552,1.220703125
148962,0.0113525390625,-0.406005859375,0.943115234375,-3.906249761581421,0.0610351525247097,0.9155272841453552
148978,0.0096435546875,-0.3924560546875,0.9110107421875,-3.173827886581421,-1.0986328125,0.4272460639476776
148995,0.0093994140625,-0.363037109375,0.8267822265625,-2.990722417831421,-0.9765624403953552,0.6103515625
149015,0.0091552734375,-0.3551025390625,0.789794921875,-3.479003667831421,-0.0610351525247097,0.8544921278953552
149053,0.0078125,-0.3798828125,0.86865234375,-3.662109136581421,0.3662109076976776,0.9155272841453552
149073,0.0081787109375,-0.3951416015625,0.92529296875,-2.685546636581421,-0.0610351525247097,0.6713866591453552
149090,0.0118408203125,-0.4002685546875,0.9296875,-1.4038084745407104,-0.8544921278953552,0.1220703050494194
149106,0.02099609375,-0.3701171875,0.8865966796875,-1.03759765625,-1.220703125,-0.1220703050494194
149123,0.021484375,-0.35400390625,0.84130859375,-0.7324218153953552,-1.2817381620407104,-0.2441406100988388
149140,0.02587890625,-0.353759765625,0.835205078125,-0.8544921278953552,-0.2441406100988388,0.2441406100988388
149157,0.0220947265625,-0.390380859375,0.8878173828125,-0.9155272841453552,-0.1831054538488388,0.0
149177,0.019287109375,-0.3946533203125,0.9090576171875,-0.8544921278953552,-0.30517578125,-0.1831054538488388
149190,0.0181884765625,-0.3941650390625,0.928466796875,-0.4272460639476776,-0.9765624403953552,-0.54931640625
149207,0.0186767578125,-0.3707275390625,0.90478515625,-0.1220703050494194,-0.9765624403953552,-0.54931640625
149240,0.0169677734375,-0.3621826171875,0.876953125,-0.0610351525247097,-0.6713866591453552,-0.3662109076976776
149259,0.0184326171875,-0.3802490234375,0.8828125,-0.54931640625,-0.1220703050494194,-0.1831054538488388
149275,0.031982421875,-0.40380859375,0.965087890625,-0.4882812201976776,0.4882812201976776,-0.1220703050494194
149307,0.041015625,-0.4071044921875,1.0272216796875,1.2817381620407104,-1.7700194120407104,-0.9155272841453552
149360,0.0216064453125,-0.4053955078125,0.9710693359375,3.234863042831421,-1.4648436307907104,-0.6713866591453552
149377,0.0208740234375,-0.407958984375,0.9478759765625,3.173827886581421,-1.5869139432907104,-0.6713866591453552
149394,0.0244140625,-0.4097900390625,0.962158203125,3.662109136581421,-1.220703125,-0.6103515625
149427,0.024169921875,-0.4434814453125,1.00244140625,5.126952648162842,-2.01416015625,-0.8544921278953552
149476,0.009765625,-0.4212646484375,0.9364013671875,5.0048828125,-1.5258787870407104,-0.7934569716453552
149498,0.0086669921875,-0.444580078125,0.9981689453125,5.126952648162842,-1.4648436307907104,-0.7934569716453552
149514,0.009765625,-0.4544677734375,1.0323486328125,5.737304210662842,-2.01416015625,-0.9765624403953552
149544,-0.0013427734375,-0.4351806640625,0.9906005859375,7.263183116912842,-3.234863042831421,-1.2817381620407104
149561,-0.006103515625,-0.43359375,0.973388671875,7.812499523162842,-2.746581792831421,-0.7934569716453552
149577,-0.0125732421875,-0.44873046875,0.987060546875,8.30078125,-2.50244140625,-0.7324218153953552
149609,-0.0234375,-0.44189453125,0.9681396484375,8.4228515625,-2.44140625,-0.4272460639476776
149626,-0.0269775390625,-0.4271240234375,0.94921875,8.23974609375,-2.25830078125,-0.30517578125
149647,-0.0267333984375,-0.421142578125,0.9346923828125,7.995604991912842,-1.7089842557907104,0.30517578125
149663,-0.0223388671875,-0.437255859375,0.94189453125,7.507323741912842,-0.7324218153953552,1.03759765625
149675,-0.02099609375,-0.457275390625,0.978515625,7.263183116912842,-0.4882812201976776,1.220703125
149692,-0.0198974609375,-0.471435546875,0.99755859375,6.835937023162842,-0.2441406100988388,1.5258787870407104
149725,-0.0157470703125,-0.47509765625,1.002197265625,6.469726085662842,-0.4882812201976776,1.4648436307907104
149742,-0.0115966796875,-0.4703369140625,0.9927978515625,6.164550304412842,-0.30517578125,1.7700194120407104
149790,-0.0107421875,-0.4923095703125,0.992431640625,5.859374523162842,0.4882812201976776,2.0751953125
149807,-0.0067138671875,-0.5032958984375,1.0250244140625,5.859374523162842,0.6103515625,2.13623046875
149828,-0.0074462890625,-0.5023193359375,1.029296875,5.920409679412842,0.2441406100988388,2.0751953125
149844,-0.00634765625,-0.4874267578125,1.0228271484375,6.164550304412842,0.0610351525247097,2.0751953125
149861,-0.00244140625,-0.4888916015625,1.008544921875,6.286620616912842,-0.1220703050494194,2.197265625
149878,-0.0003662109375,-0.4840087890625,0.976318359375,6.103515148162842,-0.30517578125,2.13623046875
149894,0.000732421875,-0.487548828125,0.9693603515625,5.798339366912842,-0.1220703050494194,2.13623046875
149915,0.002685546875,-0.507080078125,0.988525390625,5.310058116912842,0.1831054538488388,2.197265625
149932,0.006591796875,-0.52783203125,1.0400390625,5.126952648162842,-0.4882812201976776,1.8310545682907104
149953,0.003662109375,-0.510009765625,1.0084228515625,5.371093273162842,-1.3427733182907104,1.2817381620407104
149973,0.0013427734375,-0.4954833984375,0.974609375,5.615233898162842,-1.3427733182907104,1.4038084745407104
149989,-0.0018310546875,-0.4898681640625,0.942138671875,5.615233898162842,-1.3427733182907104,1.4038084745407104
150022,0.0010986328125,-0.4957275390625,0.9442138671875,4.638671875,-0.9765624403953552,1.3427733182907104
150039,0.00390625,-0.491455078125,0.946044921875,4.21142578125,-1.0986328125,1.3427733182907104
150056,0.0047607421875,-0.4903564453125,0.94287109375,4.150390625,-1.220703125,1.2817381620407104
150088,0.00341796875,-0.49951171875,0.95849609375,4.2724609375,-1.2817381620407104,1.15966796875
150138,0.004150390625,-0.498046875,0.92041015625,4.0283203125,-0.8544921278953552,1.0986328125
150223,-0.0001220703125,-0.4854736328125,0.93212890625,3.662109136581421,-1.03759765625,0.7934569716453552
150240,-0.003173828125,-0.473388671875,0.898193359375,3.662109136581421,-0.9765624403953552,0.8544921278953552
150257,-0.0045166015625,-0.476806640625,0.8985595703125,3.723144292831421,-0.54931640625,1.15966796875
150276,-0.010009765625,-0.4832763671875,0.898681640625,3.662109136581421,-0.4272460639476776,1.03759765625
150324,-0.019775390625,-0.4818115234375,0.9083251953125,4.82177734375,0.4882812201976776,1.5258787870407104
150343,-0.0177001953125,-0.4688720703125,0.8876953125,5.493163585662842,0.7324218153953552,1.7089842557907104
150363,-0.012451171875,-0.45947265625,0.8800048828125,6.103515148162842,1.5258787870407104,2.25830078125
150379,-0.0067138671875,-0.469970703125,0.89453125,6.286620616912842,1.5869139432907104,2.38037109375
150396,-0.0042724609375,-0.47021484375,0.8878173828125,6.652831554412842,1.5258787870407104,2.44140625
150413,0.000244140625,-0.4716796875,0.8765869140625,6.835937023162842,1.6479490995407104,2.50244140625
150444,0.009521484375,-0.476318359375,0.8753662109375,6.774901866912842,2.0751953125,2.685546636581421
150460,0.017822265625,-0.4840087890625,0.878173828125,6.591796398162842,2.197265625,2.685546636581421
150476,0.02294921875,-0.4888916015625,0.8880615234375,6.469726085662842,2.13623046875,2.624511480331421
150512,0.1165771484375,-0.7696533203125,1.424560546875,0.6103515625,-8.97216796875,-3.662109136581421
150528,0.013427734375,-0.41357421875,0.787841796875,0.2441406100988388,-8.544921875,-3.295898199081421
150545,0.0126953125,-0.4002685546875,0.7322998046875,-0.7934569716453552,-5.126952648162842,-1.0986328125
150560,0.0054931640625,-0.5013427734375,0.8953857421875,-0.7324218153953552,-6.103515148162842,-1.7700194120407104
150631,0.019287109375,-0.398193359375,0.7432861328125,-6.469726085662842,3.356933355331421,3.356933355331421
150647,0.0224609375,-0.8638916015625,1.4296875,-1.7700194120407104,-1.3427733182907104,-0.0610351525247097
150664,-0.01025390625,-0.5355224609375,0.914794921875,-0.4882812201976776,-4.21142578125,-2.01416015625
150681,-0.0352783203125,-0.2606201171875,0.5400390625,-1.8310545682907104,-0.3662109076976776,-0.54931640625
150697,-0.0157470703125,-0.4681396484375,0.9371337890625,-1.3427733182907104,2.13623046875,1.6479490995407104
150713,0.01904296875,-0.5543212890625,1.0936279296875,-1.220703125,-1.7700194120407104,-0.30517578125
150746,0.011962890625,-0.487060546875,0.847412109375,-0.7324218153953552,0.30517578125,0.7324218153953552
150766,0.004150390625,-0.546630859375,0.9744873046875,-1.7700194120407104,-0.6713866591453552,-0.1220703050494194
150782,-0.0120849609375,-0.422119140625,0.8291015625,-1.6479490995407104,-0.7324218153953552,-0.4272460639476776
150799,-0.013916015625,-0.4454345703125,0.8961181640625,-0.6713866591453552,-0.1220703050494194,0.3662109076976776
150818,0.002685546875,-0.471923828125,0.9451904296875,0.1831054538488388,-0.4882812201976776,0.3662109076976776
150834,0.0091552734375,-0.4730224609375,0.86962890625,0.6103515625,-0.6713866591453552,0.4272460639476776
150868,-0.005615234375,-0.4871826171875,0.90234375,0.8544921278953552,-0.6103515625,-0.1220703050494194
150885,-0.00341796875,-0.4527587890625,0.8907470703125,1.5258787870407104,-0.3662109076976776,0.1831054538488388
150922,0.003173828125,-0.4754638671875,0.88671875,2.50244140625,-0.6713866591453552,0.30517578125
150939,-0.0025634765625,-0.491455078125,0.8880615234375,2.624511480331421,-0.54931640625,0.30517578125
150955,-0.0050048828125,-0.4932861328125,0.9058837890625,2.44140625,-0.4882812201976776,0.1831054538488388
150989,0.002197265625,-0.466552734375,0.904052734375,2.746581792831421,-0.30517578125,0.1831054538488388
151006,-0.0001220703125,-0.4803466796875,0.91259765625,3.234863042831421,-0.6103515625,0.2441406100988388
151027,-0.003173828125,-0.481201171875,0.88916015625,3.479003667831421,-0.4882812201976776,0.30517578125
151041,-0.0030517578125,-0.4942626953125,0.903564453125,3.540038824081421,-0.4882812201976776,0.2441406100988388
151053,-0.00048828125,-0.484619140625,0.9033203125,3.662109136581421,-0.54931640625,0.1831054538488388
151069,0.0013427734375,-0.476806640625,0.8980712890625,3.906249761581421,-0.54931640625,0.1831054538488388
151103,-0.004150390625,-0.4881591796875,0.892822265625,4.39453125,-0.6103515625,0.2441406100988388
151151,0.0015869140625,-0.489013671875,0.8970947265625,4.150390625,-0.4272460639476776,0.1220703050494194
151183,-0.003173828125,-0.4903564453125,0.89892578125,4.21142578125,-0.4272460639476776,0.1831054538488388
151200,-0.0037841796875,-0.4932861328125,0.8966064453125,4.150390625,-0.4882812201976776,0.2441406100988388
151217,-0.0023193359375,-0.5029296875,0.8909912109375,3.845214605331421,-0.4882812201976776,0.2441406100988388
151236,-0.0008544921875,-0.500732421875,0.889404296875,3.723144292831421,-0.4882812201976776,0.1831054538488388
151251,-0.0032958984375,-0.5006103515625,0.89013671875,3.234863042831421,-0.4272460639476776,0.30517578125
151284,-0.0047607421875,-0.5050048828125,0.8900146484375,2.0751953125,-0.2441406100988388,0.4272460639476776
151305,-0.003173828125,-0.503662109375,0.8876953125,1.8310545682907104,-0.2441406100988388,0.4272460639476776
151338,-0.0023193359375,-0.500244140625,0.894287109375,0.9155272841453552,-0.1831054538488388,0.3662109076976776
151357,-0.00390625,-0.5003662109375,0.8907470703125,0.6713866591453552,-0.1831054538488388,0.4272460639476776
151374,-0.0045166015625,-0.5028076171875,0.8907470703125,0.3662109076976776,-0.1831054538488388,0.4272460639476776
151407,-0.0009765625,-0.49951171875,0.8905029296875,-0.1831054538488388,-0.1220703050494194,0.4882812201976776
151459,-0.0028076171875,-0.4967041015625,0.89208984375,-0.4882812201976776,-0.1220703050494194,0.4882812201976776
151478,-0.0032958984375,-0.49853515625,0.8919677734375,-0.6103515625,-0.1220703050494194,0.4882812201976776
151494,-0.0035400390625,-0.4974365234375,0.8912353515625,-0.6713866591453552,-0.1220703050494194,0.4882812201976776
151524,-0.0010986328125,-0.496826171875,0.8961181640625,-1.15966796875,-0.0610351525247097,0.4272460639476776
151541,-0.0010986328125,-0.4967041015625,0.8958740234375,-1.220703125,-0.1220703050494194,0.4882812201976776
151558,-0.0025634765625,-0.4962158203125,0.8916015625,-1.5258787870407104,-0.0610351525247097,0.4882812201976776
151579,-0.0037841796875,-0.496337890625,0.89306640625,-1.7089842557907104,-0.1220703050494194,0.4272460639476776
151595,-0.003173828125,-0.4937744140625,0.89404296875,-1.8310545682907104,-0.1220703050494194,0.4272460639476776
151644,-0.00146484375,-0.491943359375,0.89599609375,-2.38037109375,-0.0610351525247097,0.4272460639476776
151693,-0.0032958984375,-0.4853515625,0.8984375,-2.3193359375,0.0610351525247097,0.54931640625
151734,-0.00048828125,-0.484619140625,0.8992919921875,-2.25830078125,0.0,0.4272460639476776
151778,-0.0032958984375,-0.4801025390625,0.9022216796875,-2.13623046875,0.0,0.54931640625
151795,-0.001708984375,-0.482421875,0.901611328125,-1.9531248807907104,0.0,0.54931640625
151828,-0.000732421875,-0.4833984375,0.90185546875,-1.9531248807907104,0.0,0.4882812201976776
151844,-0.0009765625,-0.47998046875,0.904052734375,-1.9531248807907104,0.0,0.4882812201976776
151860,-0.0010986328125,-0.4786376953125,0.902099609375,-1.8920897245407104,0.0,0.54931640625
151877,-0.0015869140625,-0.4794921875,0.9024658203125,-1.8310545682907104,0.0,0.54931640625
151902,-0.001708984375,-0.479248046875,0.9014892578125,-1.8310545682907104,0.0610351525247097,0.4882812201976776
151919,-0.001220703125,-0.47802734375,0.90087890625,-1.8310545682907104,0.1220703050494194,0.54931640625
151935,-0.0032958984375,-0.4764404296875,0.899169921875,-1.8310545682907104,0.1831054538488388,0.6103515625
151955,0.0001220703125,-0.474609375,0.9024658203125,-1.7700194120407104,0.7324218153953552,0.8544921278953552
151972,0.0018310546875,-0.47314453125,0.893798828125,-1.7700194120407104,1.0986328125,1.03759765625
152010,-0.0089111328125,-0.476318359375,0.9024658203125,-2.01416015625,2.624511480331421,2.0751953125
152026,-0.0098876953125,-0.491943359375,0.928466796875,-2.01416015625,3.356933355331421,2.50244140625
152043,-0.0045166015625,-0.5093994140625,0.945068359375,-1.5869139432907104,4.33349609375,2.746581792831421
152060,0.02490234375,-0.6104736328125,1.1319580078125,-0.1831054538488388,2.990722417831421,1.3427733182907104
152078,0.0340576171875,-0.6419677734375,1.2232666015625,0.4882812201976776,2.01416015625,0.54931640625
152093,0.0411376953125,-0.647705078125,1.244873046875,2.685546636581421,1.4648436307907104,-0.1831054538488388
152126,0.04248046875,-0.669921875,1.2647705078125,3.540038824081421,1.2817381620407104,-1.0986328125
152147,0.0419921875,-0.6663818359375,1.27197265625,3.479003667831421,1.0986328125,-1.4648436307907104
152163,0.042724609375,-0.6353759765625,1.275634765625,3.906249761581421,0.9155272841453552,-1.9531248807907104
152180,0.0413818359375,-0.637939453125,1.2958984375,4.638671875,0.30517578125,-2.13623046875
152196,0.038818359375,-0.6689453125,1.30224609375,4.82177734375,0.1831054538488388,-2.13623046875
152213,0.038330078125,-0.6971435546875,1.317138671875,5.126952648162842,-0.3662109076976776,-2.807616949081421
152258,0.0128173828125,-0.6544189453125,1.226806640625,5.310058116912842,-1.6479490995407104,-4.39453125
152318,0.0087890625,-0.657958984375,1.2762451171875,6.652831554412842,-1.15966796875,-4.638671875
152335,0.006591796875,-0.64404296875,1.2496337890625,8.11767578125,-2.3193359375,-4.94384765625
152372,-0.0128173828125,-0.5928955078125,1.055908203125,7.629394054412842,-0.9155272841453552,-4.0283203125
152389,-0.01220703125,-0.615234375,1.0523681640625,6.469726085662842,-0.3662109076976776,-4.08935546875
152406,-0.0081787109375,-0.602783203125,1.059814453125,5.798339366912842,-0.1831054538488388,-4.150390625
152423,-0.0052490234375,-0.5927734375,1.0634765625,5.615233898162842,-0.3662109076976776,-4.21142578125
152444,-0.003173828125,-0.5556640625,1.0211181640625,5.493163585662842,-0.9155272841453552,-4.150390625
152460,-0.007080078125,-0.52294921875,0.939697265625,5.187987804412842,-1.03759765625,-3.967284917831421
152477,-0.0145263671875,-0.5118408203125,0.8720703125,4.39453125,-0.6713866591453552,-3.662109136581421
152496,-0.0146484375,-0.5087890625,0.8590087890625,3.417968511581421,0.0610351525247097,-3.540038824081421
152513,-0.0103759765625,-0.5057373046875,0.865478515625,2.685546636581421,0.0610351525247097,-3.784179449081421
152546,-0.0057373046875,-0.433349609375,0.8011474609375,2.01416015625,-0.4882812201976776,-4.150390625
152562,-0.0064697265625,-0.412841796875,0.7720947265625,1.5869139432907104,-1.03759765625,-4.21142578125
152579,-0.0125732421875,-0.3765869140625,0.6956787109375,0.8544921278953552,-0.8544921278953552,-3.967284917831421
152600,-0.0137939453125,-0.3739013671875,0.678955078125,0.54931640625,-0.6713866591453552,-3.784179449081421
152616,-0.0159912109375,-0.3736572265625,0.6727294921875,-0.2441406100988388,-0.7324218153953552,-3.784179449081421
152628,-0.0159912109375,-0.3673095703125,0.6610107421875,-0.8544921278953552,-1.220703125,-4.0283203125
152660,-0.0167236328125,-0.3150634765625,0.58740234375,-1.4038084745407104,-1.4648436307907104,-4.21142578125
152679,-0.021240234375,-0.2784423828125,0.5228271484375,-2.13623046875,-1.220703125,-3.906249761581421
152696,-0.02587890625,-0.2618408203125,0.5006103515625,-2.38037109375,-0.9155272841453552,-3.662109136581421
152732,-0.0279541015625,-0.263916015625,0.5015869140625,-2.868652105331421,0.0,-2.868652105331421
152743,-0.03076171875,-0.2633056640625,0.495849609375,-2.990722417831421,0.1220703050494194,-2.807616949081421
152760,-0.03173828125,-0.2589111328125,0.4840087890625,-3.112792730331421,0.1831054538488388,-2.685546636581421
152777,-0.0352783203125,-0.248779296875,0.4395751953125,-3.845214605331421,1.03759765625,-2.01416015625
152795,-0.0382080078125,-0.2596435546875,0.458984375,-4.150390625,1.7700194120407104,-1.5869139432907104
152812,-0.04052734375,-0.28125,0.4945068359375,-4.638671875,2.807616949081421,-0.9155272841453552
152842,-0.040283203125,-0.3365478515625,0.59619140625,-4.638671875,3.417968511581421,-0.4882812201976776
152858,-0.0323486328125,-0.37548828125,0.6680908203125,-4.45556640625,3.479003667831421,-0.4882812201976776
152875,-0.02978515625,-0.38232421875,0.685302734375,-4.21142578125,3.173827886581421,-0.6713866591453552
152908,-0.0306396484375,-0.4132080078125,0.7542724609375,-3.234863042831421,3.356933355331421,-0.4272460639476776
152925,-0.0303955078125,-0.4268798828125,0.7874755859375,-2.746581792831421,3.417968511581421,-0.4272460639476776
152941,-0.0267333984375,-0.4510498046875,0.8477783203125,-1.6479490995407104,2.685546636581421,-0.7324218153953552
152958,-0.025390625,-0.450927734375,0.849853515625,-0.6713866591453552,1.9531248807907104,-1.15966796875
152977,-0.0235595703125,-0.4326171875,0.8353271484375,-0.2441406100988388,1.7700194120407104,-1.220703125
152989,-0.0220947265625,-0.433837890625,0.84619140625,0.7324218153953552,1.9531248807907104,-1.03759765625
153005,-0.0194091796875,-0.4468994140625,0.8773193359375,1.220703125,1.7089842557907104,-0.9765624403953552
153022,-0.017578125,-0.468505859375,0.90234375,2.0751953125,0.1220703050494194,-1.4648436307907104
153039,-0.0198974609375,-0.445068359375,0.828369140625,2.624511480331421,-0.1831054538488388,-1.5869139432907104
153055,-0.019775390625,-0.44287109375,0.8189697265625,2.929687261581421,0.3662109076976776,-1.4038084745407104
153090,-0.0106201171875,-0.482177734375,0.9456787109375,4.57763671875,-0.6713866591453552,-1.7700194120407104
153106,-0.0135498046875,-0.4794921875,0.9195556640625,6.103515148162842,-1.8310545682907104,-2.13623046875
153123,-0.017333984375,-0.4942626953125,0.896484375,7.385253429412842,-1.3427733182907104,-2.01416015625
153140,-0.01123046875,-0.528076171875,0.962158203125,7.873534679412842,-1.3427733182907104,-2.13623046875
153159,-0.012451171875,-0.507568359375,0.9329833984375,8.85009765625,-2.563476324081421,-2.929687261581421
153175,-0.0135498046875,-0.4918212890625,0.9052734375,10.131834983825684,-2.990722417831421,-3.112792730331421
153205,-0.0181884765625,-0.5206298828125,0.9085693359375,11.352538108825684,-2.746581792831421,-2.685546636581421
153227,-0.0185546875,-0.5167236328125,0.8984375,11.596678733825684,-3.295898199081421,-3.173827886581421
153243,-0.0181884765625,-0.4937744140625,0.853271484375,11.474608421325684,-3.234863042831421,-3.112792730331421
153260,-0.0181884765625,-0.494873046875,0.8563232421875,11.535643577575684,-2.929687261581421,-2.868652105331421
153327,-0.0245361328125,-0.5050048828125,0.8377685546875,10.375975608825684,-2.563476324081421,-2.38037109375
153343,-0.020263671875,-0.5164794921875,0.8680419921875,9.82666015625,-2.3193359375,-2.0751953125
153359,-0.021728515625,-0.520751953125,0.865966796875,9.33837890625,-2.563476324081421,-1.8310545682907104
153376,-0.025390625,-0.5206298828125,0.8531494140625,9.033203125,-2.44140625,-1.7089842557907104
153401,-0.03466796875,-0.5203857421875,0.8389892578125,8.60595703125,-1.7700194120407104,-1.2817381620407104
153417,-0.0361328125,-0.526611328125,0.8616943359375,8.23974609375,-1.4648436307907104,-1.0986328125
153434,-0.0352783203125,-0.512451171875,0.8524169921875,7.873534679412842,-1.3427733182907104,-0.6713866591453552
153454,-0.033935546875,-0.51611328125,0.8489990234375,7.446288585662842,-0.8544921278953552,-0.1220703050494194
153471,-0.033447265625,-0.521728515625,0.8526611328125,6.958007335662842,-0.7934569716453552,0.1220703050494194
153504,-0.0361328125,-0.5076904296875,0.81982421875,6.225585460662842,-0.0610351525247097,0.7934569716453552
153520,-0.0343017578125,-0.5185546875,0.85107421875,5.859374523162842,0.4272460639476776,1.15966796875
153536,-0.0321044921875,-0.5230712890625,0.8714599609375,5.798339366912842,0.4272460639476776,1.220703125
153573,-0.0340576171875,-0.52978515625,0.8756103515625,5.859374523162842,-0.0610351525247097,1.5258787870407104
153589,-0.032958984375,-0.5322265625,0.8682861328125,5.737304210662842,0.1220703050494194,1.7089842557907104
153623,-0.0302734375,-0.5294189453125,0.8746337890625,5.310058116912842,0.2441406100988388,1.8920897245407104
153639,-0.029052734375,-0.530029296875,0.8770751953125,5.065917491912842,0.1220703050494194,1.9531248807907104
153656,-0.028564453125,-0.5379638671875,0.88134765625,4.638671875,-0.0610351525247097,2.0751953125
153685,-0.0272216796875,-0.5506591796875,0.88623046875,3.723144292831421,-0.4882812201976776,1.9531248807907104
153707,-0.02490234375,-0.5450439453125,0.8834228515625,3.295898199081421,-0.8544921278953552,1.7700194120407104
153723,-0.02587890625,-0.5419921875,0.876708984375,3.051757574081421,-0.9155272841453552,1.7700194120407104
153740,-0.0263671875,-0.548583984375,0.8797607421875,2.38037109375,-1.0986328125,1.8310545682907104
153757,-0.0284423828125,-0.564208984375,0.8895263671875,1.7089842557907104,-1.5258787870407104,1.6479490995407104
153773,-0.030517578125,-0.560546875,0.8809814453125,1.3427733182907104,-1.7089842557907104,1.4648436307907104
153807,-0.0308837890625,-0.5521240234375,0.8665771484375,0.1831054538488388,-1.8310545682907104,1.4038084745407104
153824,-0.03173828125,-0.55615234375,0.867431640625,-0.4882812201976776,-2.13623046875,1.3427733182907104
153845,-0.0322265625,-0.5482177734375,0.843505859375,-0.8544921278953552,-2.197265625,1.3427733182907104
153861,-0.0316162109375,-0.54833984375,0.8382568359375,-1.5869139432907104,-2.01416015625,1.4648436307907104
153878,-0.030517578125,-0.55078125,0.84912109375,-2.25830078125,-1.7700194120407104,1.4038084745407104
153894,-0.02734375,-0.5550537109375,0.8743896484375,-2.563476324081421,-1.8310545682907104,1.4038084745407104
153925,-0.02783203125,-0.543701171875,0.8585205078125,-2.868652105331421,-2.197265625,1.3427733182907104
153941,-0.0291748046875,-0.540283203125,0.8486328125,-3.112792730331421,-1.8310545682907104,1.4648436307907104
153958,-0.028076171875,-0.5423583984375,0.8568115234375,-3.173827886581421,-1.7700194120407104,1.5258787870407104
153979,-0.0296630859375,-0.544921875,0.8609619140625,-3.173827886581421,-1.6479490995407104,1.4038084745407104
153995,-0.0301513671875,-0.533935546875,0.851806640625,-3.112792730331421,-1.6479490995407104,1.4038084745407104
154012,-0.029052734375,-0.5264892578125,0.8492431640625,-2.807616949081421,-1.4038084745407104,1.5258787870407104
154045,-0.0289306640625,-0.5244140625,0.8411865234375,-2.38037109375,-1.15966796875,1.6479490995407104
154062,-0.0306396484375,-0.5113525390625,0.81640625,-2.0751953125,-0.8544921278953552,1.7089842557907104
154079,-0.031982421875,-0.503662109375,0.806396484375,-1.9531248807907104,-0.4882812201976776,1.8310545682907104
154118,-0.0330810546875,-0.5067138671875,0.845458984375,-0.7324218153953552,0.30517578125,2.25830078125
154168,-0.030029296875,-0.52001953125,0.8450927734375,0.9155272841453552,0.4882812201976776,2.3193359375
