tMillis,ax,ay,az,gx,gy,gz
27185,0.0252685546875,0.0374755859375,1.02490234375,0.7934569716453552,-0.1831054538488388,0.30517578125
27201,0.026123046875,0.0384521484375,1.0242919921875,0.7324218153953552,-0.2441406100988388,0.3662109076976776
27218,0.0255126953125,0.0386962890625,1.02490234375,0.7324218153953552,-0.1831054538488388,0.30517578125
27237,0.025634765625,0.039306640625,1.024658203125,0.7324218153953552,-0.1831054538488388,0.2441406100988388
27260,0.025634765625,0.03857421875,1.0262451171875,0.6713866591453552,-0.1831054538488388,0.2441406100988388
27276,0.02490234375,0.03857421875,1.0247802734375,0.6713866591453552,-0.1831054538488388,0.2441406100988388
27293,0.0260009765625,0.0386962890625,1.024658203125,0.7324218153953552,-0.1831054538488388,0.2441406100988388
27309,0.02490234375,0.0379638671875,1.0252685546875,0.7324218153953552,-0.1831054538488388,0.2441406100988388
27328,0.0247802734375,0.0377197265625,1.024169921875,0.6713866591453552,-0.1220703050494194,0.2441406100988388
27347,0.0247802734375,0.0389404296875,1.022216796875,0.6713866591453552,-0.1831054538488388,0.30517578125
27366,0.025146484375,0.0384521484375,1.0244140625,0.7324218153953552,-0.1831054538488388,0.30517578125
27389,0.0260009765625,0.03759765625,1.0252685546875,0.7324218153953552,-0.2441406100988388,0.2441406100988388
27405,0.02587890625,0.0380859375,1.0250244140625,0.7934569716453552,-0.1831054538488388,0.2441406100988388
27422,0.0247802734375,0.0379638671875,1.0252685546875,0.7324218153953552,-0.1831054538488388,0.30517578125
27439,0.0242919921875,0.037841796875,1.02392578125,0.6713866591453552,-0.1831054538488388,0.30517578125
27456,0.0250244140625,0.0377197265625,1.0247802734375,0.6713866591453552,-0.1831054538488388,0.2441406100988388
27476,0.02587890625,0.03857421875,1.0262451171875,0.6713866591453552,-0.1831054538488388,0.1831054538488388
27494,0.02490234375,0.037841796875,1.0269775390625,0.6713866591453552,-0.2441406100988388,0.2441406100988388
27515,0.025390625,0.0382080078125,1.025390625,0.7934569716453552,-0.1831054538488388,0.2441406100988388
27534,0.0263671875,0.0379638671875,1.025634765625,0.7934569716453552,-0.1220703050494194,0.2441406100988388
27546,0.025634765625,0.0382080078125,1.0233154296875,0.7324218153953552,-0.1831054538488388,0.2441406100988388
27562,0.025146484375,0.03857421875,1.0233154296875,0.6713866591453552,-0.1831054538488388,0.2441406100988388
27579,0.0252685546875,0.0391845703125,1.025390625,0.7324218153953552,-0.2441406100988388,0.1831054538488388
27596,0.025634765625,0.0382080078125,1.0252685546875,0.6713866591453552,-0.1831054538488388,0.2441406100988388
27613,0.0255126953125,0.0389404296875,1.024658203125,0.7934569716453552,-0.1220703050494194,0.2441406100988388
27636,0.025390625,0.0386962890625,1.0242919921875,0.7324218153953552,-0.1831054538488388,0.30517578125
27652,0.025390625,0.0374755859375,1.024169921875,0.6713866591453552,-0.2441406100988388,0.30517578125
27667,0.0262451171875,0.037353515625,1.024658203125,0.7324218153953552,-0.1831054538488388,0.2441406100988388
27684,0.025390625,0.0384521484375,1.026123046875,0.7324218153953552,-0.1831054538488388,0.1831054538488388
27703,0.0250244140625,0.0377197265625,1.0252685546875,0.7324218153953552,-0.1831054538488388,0.2441406100988388
27722,0.0250244140625,0.038330078125,1.0244140625,0.7324218153953552,-0.1831054538488388,0.2441406100988388
27746,0.0257568359375,0.038330078125,1.025146484375,0.7934569716453552,-0.1831054538488388,0.2441406100988388
27761,0.02587890625,0.0380859375,1.023681640625,0.7324218153953552,-0.2441406100988388,0.30517578125
27777,0.0255126953125,0.0380859375,1.0242919921875,0.7324218153953552,-0.2441406100988388,0.2441406100988388
27796,0.0244140625,0.037841796875,1.0257568359375,0.7934569716453552,-0.2441406100988388,0.2441406100988388
27815,0.025146484375,0.038330078125,1.0252685546875,0.7324218153953552,-0.1831054538488388,0.2441406100988388
27834,0.025634765625,0.0382080078125,1.0260009765625,0.7934569716453552,-0.1831054538488388,0.2441406100988388
27851,0.0247802734375,0.03857421875,1.025634765625,0.7324218153953552,-0.1831054538488388,0.2441406100988388
27873,0.0247802734375,0.0377197265625,1.0245361328125,0.6713866591453552,-0.1831054538488388,0.1831054538488388
27890,0.0247802734375,0.0374755859375,1.025634765625,0.6713866591453552,-0.1831054538488388,0.2441406100988388
27909,0.025390625,0.0379638671875,1.0260009765625,0.7324218153953552,-0.2441406100988388,0.2441406100988388
27928,0.026123046875,0.0382080078125,1.025390625,0.6713866591453552,-0.1220703050494194,0.1831054538488388
27947,0.02685546875,0.0380859375,1.0264892578125,0.6713866591453552,-0.1831054538488388,0.2441406100988388
27964,0.0255126953125,0.0377197265625,1.024658203125,0.7324218153953552,-0.1831054538488388,0.30517578125
27985,0.025146484375,0.0377197265625,1.0255126953125,0.7324218153953552,-0.1831054538488388,0.2441406100988388
28002,0.02490234375,0.03857421875,1.02587890625,0.7324218153953552,-0.2441406100988388,0.2441406100988388
28019,0.0250244140625,0.03857421875,1.0262451171875,0.7934569716453552,-0.1831054538488388,0.2441406100988388
28039,0.0262451171875,0.0369873046875,1.02490234375,0.7934569716453552,-0.1831054538488388,0.2441406100988388
28058,0.0252685546875,0.0374755859375,1.0244140625,0.7324218153953552,-0.1831054538488388,0.2441406100988388
28077,0.0263671875,0.0382080078125,1.02392578125,0.6713866591453552,-0.1831054538488388,0.2441406100988388
28102,0.025390625,0.038330078125,1.0255126953125,0.7324218153953552,-0.1831054538488388,0.2441406100988388
28114,0.0255126953125,0.0386962890625,1.0245361328125,0.7324218153953552,-0.1831054538488388,0.2441406100988388
28134,0.0245361328125,0.038818359375,1.0257568359375,0.7324218153953552,-0.1831054538488388,0.30517578125
28152,0.0255126953125,0.0382080078125,1.0250244140625,0.7934569716453552,-0.2441406100988388,0.2441406100988388
28170,0.02587890625,0.0377197265625,1.0247802734375,0.7324218153953552,-0.1220703050494194,0.2441406100988388
28190,0.0257568359375,0.0377197265625,1.0257568359375,0.6713866591453552,-0.1220703050494194,0.30517578125
28207,0.0263671875,0.038818359375,1.0247802734375,0.6713866591453552,-0.1831054538488388,0.30517578125
28226,0.025146484375,0.0382080078125,1.024658203125,0.7324218153953552,-0.2441406100988388,0.30517578125
28245,0.02490234375,0.0384521484375,1.0247802734375,0.7324218153953552,-0.1831054538488388,0.30517578125
28264,0.0260009765625,0.03759765625,1.0264892578125,0.7324218153953552,-0.1831054538488388,0.30517578125
28282,0.0244140625,0.0382080078125,1.02197265625,0.7324218153953552,-0.1831054538488388,0.30517578125
28302,0.0250244140625,0.0380859375,1.0234375,0.7324218153953552,-0.1831054538488388,0.2441406100988388
28320,0.0257568359375,0.0390625,1.0267333984375,0.7324218153953552,-0.1831054538488388,0.2441406100988388
28344,0.0257568359375,0.0380859375,1.0291748046875,0.7324218153953552,-0.1831054538488388,0.2441406100988388
28359,0.0250244140625,0.037353515625,1.02734375,0.7324218153953552,-0.1831054538488388,0.1831054538488388
28376,0.0257568359375,0.0379638671875,1.0240478515625,0.7324218153953552,-0.1831054538488388,0.30517578125
28395,0.0267333984375,0.0386962890625,1.0208740234375,0.7324218153953552,-0.2441406100988388,0.2441406100988388
28419,0.02490234375,0.0380859375,1.0196533203125,0.6713866591453552,-0.1831054538488388,0.1831054538488388
28435,0.025146484375,0.0379638671875,1.028076171875,0.6713866591453552,-0.1831054538488388,0.1831054538488388
28452,0.02587890625,0.038330078125,1.024169921875,0.7324218153953552,-0.1831054538488388,0.2441406100988388
28471,0.02587890625,0.039306640625,1.0262451171875,0.7324218153953552,-0.1831054538488388,0.2441406100988388
28492,0.024658203125,0.0384521484375,1.0233154296875,0.7324218153953552,-0.1831054538488388,0.1831054538488388
28508,0.0250244140625,0.0379638671875,1.025146484375,0.7324218153953552,-0.1831054538488388,0.2441406100988388
28542,0.026611328125,0.0380859375,1.02734375,0.7324218153953552,-0.1220703050494194,0.2441406100988388
28563,0.0260009765625,0.037109375,1.021484375,0.7934569716453552,-0.1220703050494194,0.1831054538488388
28579,0.025390625,0.0382080078125,1.0225830078125,0.7324218153953552,-0.1831054538488388,0.1831054538488388
28596,0.0260009765625,0.0372314453125,1.0198974609375,0.7324218153953552,-0.1831054538488388,0.1831054538488388
28612,0.0252685546875,0.03759765625,1.028076171875,0.7324218153953552,-0.1220703050494194,0.30517578125
28629,0.0257568359375,0.038818359375,1.0325927734375,0.7324218153953552,-0.1220703050494194,0.2441406100988388
28661,0.0252685546875,0.037353515625,1.0230712890625,0.6713866591453552,-0.2441406100988388,0.2441406100988388
28683,0.0262451171875,0.0379638671875,1.026123046875,0.7324218153953552,-0.2441406100988388,0.30517578125
28699,0.0244140625,0.038330078125,1.02099609375,0.7324218153953552,-0.2441406100988388,0.30517578125
28716,0.024658203125,0.03857421875,1.0252685546875,0.6713866591453552,-0.2441406100988388,0.2441406100988388
28733,0.0257568359375,0.0382080078125,1.0230712890625,0.7324218153953552,-0.1831054538488388,0.2441406100988388
28749,0.02685546875,0.0379638671875,1.027099609375,0.7324218153953552,-0.1831054538488388,0.2441406100988388
28780,0.0250244140625,0.03662109375,1.021728515625,0.7324218153953552,-0.2441406100988388,0.2441406100988388
28796,0.0260009765625,0.0389404296875,1.0264892578125,0.7324218153953552,-0.2441406100988388,0.2441406100988388
28812,0.0262451171875,0.039306640625,1.027099609375,0.7324218153953552,-0.2441406100988388,0.2441406100988388
28854,0.0250244140625,0.0372314453125,1.0262451171875,0.6713866591453552,-0.1831054538488388,0.30517578125
28870,0.0260009765625,0.0379638671875,1.0240478515625,0.6103515625,-0.1831054538488388,0.2441406100988388
28887,0.0252685546875,0.038330078125,1.0250244140625,0.6713866591453552,-0.2441406100988388,0.2441406100988388
28908,0.0244140625,0.038330078125,1.0262451171875,0.7324218153953552,-0.1831054538488388,0.1220703050494194
28924,0.0245361328125,0.0379638671875,1.025390625,0.7324218153953552,-0.2441406100988388,0.2441406100988388
28941,0.024658203125,0.03759765625,1.02587890625,0.6713866591453552,-0.1831054538488388,0.30517578125
28958,0.024169921875,0.0384521484375,1.025146484375,0.6103515625,-0.1831054538488388,0.30517578125
28975,0.025390625,0.0380859375,1.0213623046875,0.6713866591453552,-0.2441406100988388,0.30517578125
28996,0.0250244140625,0.0380859375,1.0225830078125,0.7324218153953552,-0.2441406100988388,0.30517578125
29012,0.0244140625,0.0377197265625,1.026611328125,0.7324218153953552,-0.1831054538488388,0.30517578125
29031,0.02587890625,0.0360107421875,1.0311279296875,0.6713866591453552,-0.2441406100988388,0.2441406100988388
29048,0.02490234375,0.0439453125,1.0234375,0.6713866591453552,-0.30517578125,0.2441406100988388
29078,0.0228271484375,0.03564453125,1.0247802734375,0.9765624403953552,-0.1220703050494194,0.2441406100988388
29095,0.0255126953125,0.0372314453125,1.024658203125,0.9155272841453552,-0.2441406100988388,0.2441406100988388
29111,0.0277099609375,0.0386962890625,1.02734375,0.9155272841453552,-0.1831054538488388,0.2441406100988388
29143,0.0244140625,0.036865234375,1.0234375,0.9155272841453552,-0.1831054538488388,0.1831054538488388
29197,0.0247802734375,0.036376953125,1.014404296875,0.9155272841453552,-0.0610351525247097,0.2441406100988388
29214,0.026611328125,0.039306640625,1.0577392578125,0.9155272841453552,-0.2441406100988388,0.2441406100988388
29230,0.025146484375,0.035888671875,1.0130615234375,0.8544921278953552,-0.1831054538488388,0.30517578125
29266,0.028076171875,0.0360107421875,1.0321044921875,0.7934569716453552,-0.1831054538488388,0.2441406100988388
29282,0.0274658203125,0.039306640625,1.02978515625,0.7934569716453552,-0.1220703050494194,0.30517578125
29299,0.0233154296875,0.03466796875,1.02490234375,0.7324218153953552,-0.1220703050494194,0.2441406100988388
29315,0.02490234375,0.037353515625,1.02490234375,0.7324218153953552,-0.1831054538488388,0.2441406100988388
29332,0.0260009765625,0.0360107421875,1.026123046875,0.7934569716453552,-0.2441406100988388,0.30517578125
29349,0.025634765625,0.037353515625,1.0252685546875,0.7324218153953552,-0.2441406100988388,0.2441406100988388
29382,0.0238037109375,0.038330078125,1.02587890625,0.7324218153953552,-0.1220703050494194,0.2441406100988388
29399,0.02587890625,0.0380859375,1.025634765625,0.6713866591453552,-0.1220703050494194,0.2441406100988388
29415,0.026611328125,0.037841796875,1.0224609375,0.6713866591453552,-0.1831054538488388,0.1831054538488388
29432,0.0260009765625,0.0379638671875,1.0277099609375,0.8544921278953552,-0.2441406100988388,0.1831054538488388
29451,0.0240478515625,0.037109375,1.0252685546875,0.9155272841453552,-0.2441406100988388,0.2441406100988388
29463,0.0245361328125,0.0404052734375,1.0228271484375,0.9765624403953552,-0.1831054538488388,0.2441406100988388
29479,0.025146484375,0.04052734375,1.0240478515625,1.03759765625,-0.1831054538488388,0.2441406100988388
29496,0.02587890625,0.03759765625,1.0269775390625,1.15966796875,-0.2441406100988388,0.2441406100988388
29513,0.0267333984375,0.0379638671875,1.025390625,1.220703125,-0.2441406100988388,0.2441406100988388
29529,0.02392578125,0.03515625,1.0252685546875,1.220703125,-0.2441406100988388,0.2441406100988388
29559,0.0257568359375,0.0361328125,1.0242919921875,1.15966796875,-0.1831054538488388,0.1831054538488388
29580,0.0260009765625,0.038818359375,1.0260009765625,1.220703125,-0.1831054538488388,0.1831054538488388
29596,0.0252685546875,0.036865234375,1.0230712890625,1.2817381620407104,-0.2441406100988388,0.1831054538488388
29608,0.025390625,0.0394287109375,1.0252685546875,1.4648436307907104,-0.2441406100988388,0.2441406100988388
29678,0.025390625,0.034912109375,1.0238037109375,1.7089842557907104,-0.30517578125,0.1831054538488388
29695,0.0252685546875,0.03466796875,1.0272216796875,1.7089842557907104,-0.30517578125,0.1831054538488388
29714,0.0257568359375,0.037841796875,1.0255126953125,1.9531248807907104,-0.3662109076976776,0.1831054538488388
29730,0.024658203125,0.039306640625,1.0252685546875,2.01416015625,-0.3662109076976776,0.1831054538488388
29748,0.024658203125,0.037353515625,1.028564453125,2.3193359375,-0.3662109076976776,0.2441406100988388
29764,0.025146484375,0.0350341796875,1.0252685546875,2.50244140625,-0.4272460639476776,0.1831054538488388
29797,0.0238037109375,0.0364990234375,1.0279541015625,2.807616949081421,-0.4272460639476776,0.1220703050494194
29814,0.0234375,0.0357666015625,1.0269775390625,3.173827886581421,-0.4272460639476776,0.1220703050494194
29830,0.025146484375,0.0364990234375,1.02490234375,3.540038824081421,-0.4272460639476776,0.1831054538488388
29860,0.0252685546875,0.0347900390625,1.025146484375,4.08935546875,-0.54931640625,0.1220703050494194
29882,0.0244140625,0.0296630859375,1.0245361328125,4.2724609375,-0.54931640625,0.1831054538488388
29898,0.0228271484375,0.0267333984375,1.02294921875,4.39453125,-0.6103515625,0.1831054538488388
29910,0.023193359375,0.0234375,1.0233154296875,4.57763671875,-0.6713866591453552,0.0610351525247097
29930,0.0247802734375,0.024658203125,1.0242919921875,4.57763671875,-0.6103515625,0.0610351525247097
29980,0.0225830078125,0.019287109375,1.0264892578125,4.69970703125,-0.54931640625,0.1220703050494194
29996,0.0224609375,0.0181884765625,1.025146484375,4.69970703125,-0.6103515625,0.1220703050494194
30017,0.023681640625,0.0181884765625,1.024658203125,4.69970703125,-0.54931640625,0.0610351525247097
30033,0.0228271484375,0.0177001953125,1.028076171875,4.7607421875,-0.4882812201976776,0.1831054538488388
30050,0.0223388671875,0.01416015625,1.025634765625,4.69970703125,-0.4882812201976776,0.1831054538488388
30067,0.022705078125,0.01123046875,1.0252685546875,4.57763671875,-0.4272460639476776,0.2441406100988388
30098,0.0225830078125,0.007568359375,1.0216064453125,4.150390625,-0.4272460639476776,0.1831054538488388
30114,0.02294921875,0.0081787109375,1.023681640625,3.845214605331421,-0.30517578125,0.1831054538488388
30131,0.0224609375,0.0089111328125,1.025634765625,3.784179449081421,0.0,0.1220703050494194
30152,0.021240234375,0.0086669921875,1.0240478515625,3.723144292831421,0.1831054538488388,0.0610351525247097
30170,0.0206298828125,0.010009765625,1.021240234375,3.723144292831421,0.4272460639476776,0.1220703050494194
30186,0.0201416015625,0.013671875,1.0216064453125,3.906249761581421,1.3427733182907104,-0.0610351525247097
30217,0.02587890625,0.0616455078125,1.03076171875,5.371093273162842,3.051757574081421,-0.3662109076976776
30234,0.0174560546875,0.0313720703125,1.09326171875,6.835937023162842,4.39453125,0.1220703050494194
30251,0.017333984375,0.0880126953125,1.2957763671875,6.103515148162842,0.4272460639476776,-0.3662109076976776
30272,0.0098876953125,0.0948486328125,1.334228515625,8.11767578125,-0.1831054538488388,-0.1831054538488388
30289,0.0235595703125,0.0548095703125,1.4451904296875,9.82666015625,-1.5258787870407104,0.0
30305,0.025146484375,0.022216796875,1.4095458984375,11.108397483825684,-1.7089842557907104,-0.1831054538488388
30337,0.015625,-0.0059814453125,1.349365234375,11.169432640075684,-1.03759765625,-0.7934569716453552
30354,0.0157470703125,0.0078125,1.3284912109375,10.253905296325684,-0.4272460639476776,-0.7934569716453552
30370,0.02392578125,0.021728515625,1.3729248046875,9.21630859375,0.6103515625,-0.7324218153953552
30399,0.0382080078125,0.0140380859375,1.46875,8.4228515625,-0.0610351525247097,-0.54931640625
30419,0.0450439453125,0.0123291015625,1.4833984375,7.751464366912842,-0.8544921278953552,-0.54931640625
30435,0.0489501953125,-0.0084228515625,1.44580078125,6.896972179412842,-1.0986328125,-0.6103515625
30452,0.05810546875,0.00390625,1.4327392578125,6.225585460662842,-1.03759765625,-0.6713866591453552
30471,0.0599365234375,0.0108642578125,1.4229736328125,4.94384765625,-0.7934569716453552,-0.6103515625
30488,0.0655517578125,0.0272216796875,1.4281005859375,3.967284917831421,-0.7324218153953552,-0.4272460639476776
30518,0.0592041015625,0.0001220703125,1.3543701171875,3.112792730331421,-1.15966796875,0.0
30540,0.059326171875,-0.011962890625,1.3582763671875,2.50244140625,-0.6713866591453552,-0.0610351525247097
30556,0.0625,-0.0208740234375,1.3887939453125,1.7700194120407104,-1.3427733182907104,-0.1831054538488388
30573,0.05859375,-0.019775390625,1.3660888671875,1.3427733182907104,-1.8920897245407104,-0.2441406100988388
30592,0.0579833984375,-0.0167236328125,1.3564453125,0.54931640625,-2.563476324081421,-0.30517578125
30609,0.0618896484375,-0.0167236328125,1.3701171875,-0.0610351525247097,-3.540038824081421,-0.2441406100988388
30639,0.0364990234375,-0.031982421875,1.254150390625,-1.0986328125,-6.286620616912842,-0.2441406100988388
30656,0.0277099609375,-0.03369140625,1.1976318359375,-2.38037109375,-6.835937023162842,-0.30517578125
30677,0.01416015625,-0.0308837890625,1.119140625,-3.662109136581421,-6.774901866912842,-0.1831054538488388
30693,0.000732421875,-0.038330078125,1.0509033203125,-4.39453125,-6.835937023162842,-0.0610351525247097
30710,-0.004638671875,-0.0386962890625,1.0115966796875,-5.676269054412842,-6.713866710662842,-0.0610351525247097
30727,-0.013916015625,-0.0338134765625,0.916015625,-6.530761241912842,-5.981444835662842,0.0
30758,-0.016357421875,-0.021728515625,0.7635498046875,-7.385253429412842,-5.065917491912842,0.0
30774,-0.01708984375,-0.022705078125,0.7108154296875,-7.995604991912842,-4.45556640625,0.0610351525247097
30790,-0.024169921875,-0.0208740234375,0.5662841796875,-8.36181640625,-4.0283203125,0.0610351525247097
30827,-0.0242919921875,-0.0233154296875,0.4090576171875,-10.375975608825684,-0.9765624403953552,0.1831054538488388
30838,-0.020263671875,-0.02392578125,0.378662109375,-10.925292015075684,-0.30517578125,0.2441406100988388
30855,-0.019775390625,-0.02685546875,0.3685302734375,-11.474608421325684,0.2441406100988388,0.2441406100988388
30872,-0.0213623046875,-0.03369140625,0.3662109375,-12.390135765075684,1.5869139432907104,0.2441406100988388
30890,-0.019775390625,-0.0328369140625,0.3822021484375,-12.451170921325684,1.8920897245407104,0.1220703050494194
30907,-0.0184326171875,-0.027587890625,0.3818359375,-12.268065452575684,2.197265625,-0.0610351525247097
30943,-0.01708984375,-0.0137939453125,0.408447265625,-11.413573265075684,2.868652105331421,-0.0610351525247097
30959,-0.02099609375,-0.0157470703125,0.4644775390625,-10.681151390075684,3.479003667831421,0.0
30976,-0.0218505859375,-0.0157470703125,0.57470703125,-10.131834983825684,3.784179449081421,-0.1220703050494194
30993,-0.0157470703125,-0.0009765625,0.714111328125,-8.6669921875,3.845214605331421,-0.30517578125
31012,0.0018310546875,0.0191650390625,0.8236083984375,-7.080077648162842,3.051757574081421,-0.54931640625
31028,0.0091552734375,0.024169921875,0.854248046875,-5.676269054412842,2.197265625,-0.3662109076976776
31064,0.0086669921875,0.0166015625,0.935546875,-4.33349609375,1.4038084745407104,-0.1831054538488388
31080,0.009033203125,0.02099609375,0.9658203125,-3.601073980331421,1.03759765625,-0.30517578125
31097,0.01513671875,0.033935546875,1.0106201171875,-2.624511480331421,0.1831054538488388,-0.2441406100988388
31114,0.02099609375,0.033935546875,1.0166015625,-2.0751953125,-0.2441406100988388,-0.1831054538488388
31133,0.026611328125,0.0242919921875,1.025146484375,-1.0986328125,-0.9155272841453552,-0.1220703050494194
31149,0.027099609375,0.0196533203125,1.02099609375,-0.4272460639476776,-1.7700194120407104,0.0610351525247097
31179,0.0228271484375,0.0023193359375,1.0201416015625,0.4272460639476776,-2.13623046875,0.1831054538488388
31199,0.0242919921875,0.0,1.03662109375,1.0986328125,-2.25830078125,0.1220703050494194
31215,0.0330810546875,0.0072021484375,1.0816650390625,1.6479490995407104,-2.38037109375,0.0610351525247097
31227,0.0355224609375,0.0064697265625,1.0999755859375,3.112792730331421,-3.234863042831421,0.1831054538488388
31248,0.033203125,0.003173828125,1.086181640625,4.638671875,-3.845214605331421,0.2441406100988388
31264,0.030517578125,-0.00634765625,1.0631103515625,5.249022960662842,-4.0283203125,0.30517578125
31281,0.029052734375,-0.009765625,1.0382080078125,6.164550304412842,-4.5166015625,0.30517578125
31298,0.0274658203125,-0.0162353515625,0.994140625,6.652831554412842,-4.2724609375,0.1831054538488388
31314,0.0281982421875,-0.0125732421875,0.9810791015625,7.019042491912842,-3.845214605331421,0.0610351525247097
31330,0.027099609375,-0.0069580078125,0.98583984375,7.263183116912842,-3.723144292831421,0.0
31359,0.0185546875,0.021484375,0.9788818359375,8.72802734375,-3.540038824081421,-0.1220703050494194
31381,0.0194091796875,0.03125,0.9779052734375,9.58251953125,-3.234863042831421,-0.1831054538488388
31397,0.022705078125,0.036376953125,0.9881591796875,9.94873046875,-3.051757574081421,-0.1831054538488388
31414,0.024169921875,0.0294189453125,1.0048828125,10.498045921325684,-2.807616949081421,-0.1220703050494194
31431,0.0225830078125,0.0208740234375,1.011474609375,11.047362327575684,-2.746581792831421,-0.2441406100988388
31446,0.0155029296875,0.0146484375,1.0269775390625,11.291502952575684,-2.685546636581421,-0.3662109076976776
31480,0.0001220703125,0.00732421875,1.0308837890625,12.207030296325684,-2.563476324081421,-0.6103515625
31497,-0.00390625,0.0032958984375,1.014404296875,12.268065452575684,-2.3193359375,-0.6103515625
31512,-0.00732421875,-0.0040283203125,1.00244140625,12.207030296325684,-2.197265625,-0.54931640625
31529,-0.0098876953125,-0.0072021484375,0.996826171875,11.962889671325684,-1.7089842557907104,-0.6103515625
31547,-0.017578125,-0.008056640625,1.0107421875,11.840819358825684,-1.4038084745407104,-0.6103515625
31564,-0.0274658203125,-0.0103759765625,1.0333251953125,11.779784202575684,-1.15966796875,-0.3662109076976776
31597,-0.0318603515625,-0.011962890625,1.0345458984375,11.596678733825684,-1.03759765625,-0.4882812201976776
31614,-0.0313720703125,-0.0006103515625,1.02783203125,11.535643577575684,-1.03759765625,-0.3662109076976776
31630,-0.033203125,0.00048828125,1.02099609375,11.291502952575684,-0.9765624403953552,0.0610351525247097
31647,-0.0343017578125,-0.00830078125,1.0264892578125,11.169432640075684,-0.8544921278953552,0.2441406100988388
31668,-0.033447265625,-0.01318359375,1.034423828125,10.986327171325684,-0.7934569716453552,0.4272460639476776
31684,-0.0303955078125,-0.01904296875,1.0428466796875,10.559081077575684,-1.15966796875,0.4882812201976776
31701,-0.0323486328125,-0.0224609375,1.0367431640625,9.8876953125,-1.5258787870407104,0.54931640625
31718,-0.0343017578125,-0.0303955078125,1.0303955078125,9.033203125,-1.6479490995407104,0.7324218153953552
31734,-0.0296630859375,-0.0382080078125,1.0333251953125,8.544921875,-1.6479490995407104,0.7324218153953552
31751,-0.0284423828125,-0.041259765625,1.03271484375,7.568358898162842,-1.9531248807907104,0.6713866591453552
31767,-0.0294189453125,-0.045654296875,1.0333251953125,7.080077648162842,-2.0751953125,0.6713866591453552
31788,-0.029296875,-0.0494384765625,1.034423828125,5.920409679412842,-2.197265625,0.7324218153953552
31805,-0.0286865234375,-0.054931640625,1.0369873046875,4.94384765625,-2.3193359375,0.6713866591453552
31820,-0.0281982421875,-0.054443359375,1.0294189453125,3.845214605331421,-2.624511480331421,0.54931640625
31837,-0.0291748046875,-0.055908203125,1.0130615234375,2.868652105331421,-2.38037109375,0.6103515625
31854,-0.025390625,-0.0576171875,1.0167236328125,2.38037109375,-2.197265625,0.54931640625
31900,-0.0238037109375,-0.0653076171875,1.021728515625,-0.1831054538488388,-1.9531248807907104,0.4882812201976776
31916,-0.0225830078125,-0.06494140625,1.0126953125,-0.6103515625,-1.7700194120407104,0.4272460639476776
31933,-0.021484375,-0.0634765625,1.0084228515625,-1.4648436307907104,-1.3427733182907104,0.4272460639476776
31950,-0.01806640625,-0.0625,1.003662109375,-2.25830078125,-0.9765624403953552,0.4272460639476776
31970,-0.01611328125,-0.0614013671875,0.9996337890625,-3.051757574081421,-0.7934569716453552,0.4272460639476776
31987,-0.0159912109375,-0.0635986328125,0.988037109375,-3.784179449081421,-0.4882812201976776,0.3662109076976776
32020,-0.01220703125,-0.0606689453125,0.979248046875,-4.638671875,0.0610351525247097,0.2441406100988388
32042,-0.010986328125,-0.0587158203125,0.9739990234375,-5.0048828125,0.30517578125,0.30517578125
32058,-0.01171875,-0.0615234375,0.9642333984375,-5.065917491912842,0.4882812201976776,0.4272460639476776
32075,-0.0126953125,-0.065185546875,0.956787109375,-4.82177734375,0.7934569716453552,0.3662109076976776
32092,-0.014404296875,-0.069580078125,0.950439453125,-4.638671875,1.0986328125,0.30517578125
32108,-0.0130615234375,-0.0693359375,0.939697265625,-4.39453125,1.220703125,0.2441406100988388
32139,-0.0087890625,-0.05517578125,0.9051513671875,-2.50244140625,1.5258787870407104,0.1220703050494194
32156,-0.009521484375,-0.0465087890625,0.8958740234375,-1.220703125,1.7700194120407104,0.0610351525247097
32172,-0.00927734375,-0.0457763671875,0.892578125,-0.6103515625,1.7700194120407104,0.1220703050494194
32201,-0.010986328125,-0.0572509765625,0.8731689453125,0.6713866591453552,2.01416015625,0.0610351525247097
32217,-0.0113525390625,-0.0655517578125,0.8834228515625,0.9155272841453552,2.197265625,0.0
32234,-0.0106201171875,-0.0635986328125,0.893798828125,1.2817381620407104,2.3193359375,-0.1831054538488388
32251,-0.0101318359375,-0.066162109375,0.9085693359375,1.7089842557907104,2.25830078125,-0.2441406100988388
32276,-0.0084228515625,-0.0633544921875,0.915283203125,2.0751953125,1.8310545682907104,-0.30517578125
32292,-0.00732421875,-0.0670166015625,0.880859375,1.9531248807907104,1.8310545682907104,-0.4272460639476776
32309,-0.0069580078125,-0.0784912109375,0.868408203125,1.7700194120407104,2.13623046875,-0.4272460639476776
32328,-0.006103515625,-0.078125,0.8828125,1.3427733182907104,2.685546636581421,-0.6103515625
32344,-0.002197265625,-0.075927734375,0.9423828125,1.2817381620407104,2.685546636581421,-0.7324218153953552
32378,-0.0062255859375,-0.08447265625,0.8946533203125,0.8544921278953552,0.6103515625,-0.9155272841453552
32394,-0.009765625,-0.0870361328125,0.832763671875,0.4882812201976776,0.9765624403953552,-0.9765624403953552
32411,-0.0072021484375,-0.086181640625,0.800537109375,-0.3662109076976776,2.624511480331421,-1.0986328125
32432,0.0015869140625,-0.0792236328125,0.9036865234375,-1.0986328125,3.723144292831421,-1.15966796875
32450,0.0106201171875,-0.0577392578125,1.0450439453125,-0.9155272841453552,3.601073980331421,-1.3427733182907104
32466,0.012451171875,-0.0518798828125,1.081787109375,-0.1220703050494194,2.25830078125,-1.3427733182907104
32499,0.00048828125,-0.0556640625,0.880615234375,0.9155272841453552,0.7324218153953552,-1.4038084745407104
32515,0.000244140625,-0.0509033203125,0.831298828125,0.4882812201976776,1.8310545682907104,-1.4648436307907104
32532,0.0006103515625,-0.04931640625,0.8509521484375,-0.0610351525247097,3.479003667831421,-1.5258787870407104
32574,0.016845703125,-0.0211181640625,1.1025390625,0.7324218153953552,2.746581792831421,-1.4648436307907104
32590,0.0135498046875,-0.0218505859375,1.078125,1.4038084745407104,1.8920897245407104,-1.4038084745407104
32607,0.013427734375,-0.0225830078125,1.0341796875,2.563476324081421,1.0986328125,-1.5258787870407104
32628,0.014404296875,-0.022216796875,0.97265625,3.173827886581421,1.5869139432907104,-1.5258787870407104
32644,0.0179443359375,-0.01171875,0.98828125,3.356933355331421,2.50244140625,-1.5258787870407104
32661,0.0244140625,-0.0047607421875,1.093994140625,3.967284917831421,2.563476324081421,-1.4038084745407104
32678,0.021240234375,-0.00146484375,1.16455078125,5.432128429412842,1.15966796875,-1.220703125
32697,0.01171875,-0.0172119140625,1.12646484375,6.225585460662842,0.6103515625,-1.15966796875
32716,0.0072021484375,-0.0189208984375,1.0823974609375,7.446288585662842,0.1831054538488388,-1.220703125
32732,0.0032958984375,-0.0203857421875,1.0267333984375,7.812499523162842,0.30517578125,-1.220703125
32746,0.0040283203125,-0.0118408203125,1.0186767578125,8.1787109375,0.8544921278953552,-1.2817381620407104
32763,0.00732421875,-0.0086669921875,1.0498046875,8.36181640625,1.220703125,-1.15966796875
32796,0.010986328125,-0.0081787109375,1.101318359375,8.97216796875,0.1220703050494194,-0.7934569716453552
32813,0.00537109375,-0.0191650390625,1.051025390625,9.21630859375,-0.4272460639476776,-0.6713866591453552
32828,0.00390625,-0.028564453125,0.9774169921875,8.7890625,-0.4272460639476776,-0.4882812201976776
32850,0.002197265625,-0.032958984375,0.9375,8.36181640625,-0.1220703050494194,-0.4272460639476776
32869,0.0025634765625,-0.0311279296875,0.9132080078125,7.263183116912842,1.15966796875,-0.4272460639476776
32885,0.0072021484375,-0.0223388671875,0.9766845703125,6.286620616912842,1.7089842557907104,-0.1831054538488388
32918,0.00634765625,-0.0159912109375,1.1124267578125,5.798339366912842,1.3427733182907104,0.2441406100988388
32935,0.0048828125,-0.0181884765625,1.1002197265625,6.042479991912842,0.2441406100988388,0.4272460639476776
32952,0.000732421875,-0.029296875,1.0152587890625,5.859374523162842,0.1220703050494194,0.6713866591453552
32988,0.0048828125,-0.049560546875,0.960693359375,4.39453125,1.15966796875,0.7324218153953552
33010,0.006103515625,-0.0504150390625,0.9737548828125,3.173827886581421,1.6479490995407104,0.7934569716453552
33026,0.0093994140625,-0.040771484375,1.0108642578125,2.50244140625,1.8310545682907104,0.8544921278953552
33046,0.0140380859375,-0.0277099609375,1.0574951171875,2.01416015625,1.4648436307907104,0.9155272841453552
33066,0.0123291015625,-0.0296630859375,1.0423583984375,1.7700194120407104,1.0986328125,1.15966796875
33083,0.0115966796875,-0.0391845703125,1.0389404296875,1.4038084745407104,1.5258787870407104,1.2817381620407104
33100,0.014892578125,-0.047119140625,1.0731201171875,1.03759765625,1.5869139432907104,1.2817381620407104
33116,0.0155029296875,-0.05078125,1.0919189453125,0.9155272841453552,1.4038084745407104,1.220703125
33137,0.0128173828125,-0.044677734375,1.100341796875,0.7934569716453552,0.9155272841453552,1.0986328125
33153,0.0125732421875,-0.0452880859375,1.1026611328125,0.9155272841453552,0.7934569716453552,1.0986328125
33169,0.0142822265625,-0.0467529296875,1.08251953125,1.0986328125,0.30517578125,1.15966796875
33186,0.013427734375,-0.0528564453125,1.05859375,0.8544921278953552,-0.1220703050494194,1.220703125
33219,0.017578125,-0.05615234375,1.0037841796875,-0.4272460639476776,0.1220703050494194,1.15966796875
33235,0.0205078125,-0.052734375,1.021484375,-1.3427733182907104,0.30517578125,1.15966796875
33252,0.0223388671875,-0.048095703125,1.0662841796875,-1.7700194120407104,0.0610351525247097,1.220703125
33267,0.02197265625,-0.043701171875,1.0828857421875,-1.8920897245407104,-0.1220703050494194,1.220703125
33282,0.01953125,-0.0396728515625,1.0966796875,-1.7700194120407104,-0.8544921278953552,1.2817381620407104
33298,0.0162353515625,-0.041259765625,1.0775146484375,-1.8310545682907104,-1.03759765625,1.3427733182907104
33315,0.012451171875,-0.04736328125,1.041015625,-2.0751953125,-0.6713866591453552,1.3427733182907104
33332,0.0120849609375,-0.0552978515625,1.04345703125,-2.44140625,-0.0610351525247097,1.2817381620407104
33352,0.0140380859375,-0.0526123046875,1.0831298828125,-2.44140625,0.2441406100988388,1.220703125
33374,0.0166015625,-0.041015625,1.1395263671875,-2.197265625,0.30517578125,1.15966796875
33390,0.02099609375,-0.0355224609375,1.155517578125,-1.4648436307907104,-0.0610351525247097,1.0986328125
33404,0.0225830078125,-0.036865234375,1.142578125,-0.8544921278953552,-0.4882812201976776,1.15966796875
33420,0.022216796875,-0.045654296875,1.0928955078125,-0.6713866591453552,-0.54931640625,1.220703125
33454,0.02099609375,-0.0572509765625,1.096923828125,-0.54931640625,0.7324218153953552,1.0986328125
33473,0.0218505859375,-0.055419921875,1.130615234375,-0.4882812201976776,0.6713866591453552,1.03759765625
33492,0.02099609375,-0.0521240234375,1.1229248046875,-0.4882812201976776,0.4882812201976776,0.9765624403953552
33508,0.01904296875,-0.0523681640625,1.1033935546875,-0.4272460639476776,0.4882812201976776,0.9155272841453552
33523,0.017822265625,-0.0543212890625,1.0836181640625,-0.6713866591453552,0.9155272841453552,0.9765624403953552
33539,0.021728515625,-0.0555419921875,1.092529296875,-0.7934569716453552,1.0986328125,1.03759765625
33556,0.025146484375,-0.0572509765625,1.1099853515625,-1.15966796875,1.220703125,1.15966796875
33573,0.0283203125,-0.0574951171875,1.12744140625,-1.3427733182907104,0.6713866591453552,1.2817381620407104
33590,0.0272216796875,-0.0584716796875,1.0958251953125,-1.5258787870407104,0.3662109076976776,1.2817381620407104
33606,0.0255126953125,-0.059814453125,1.0762939453125,-1.8310545682907104,0.2441406100988388,1.3427733182907104
33637,0.025390625,-0.0657958984375,1.0958251953125,-2.13623046875,0.3662109076976776,1.5258787870407104
33654,0.0245361328125,-0.0673828125,1.107421875,-2.25830078125,-0.3662109076976776,1.4648436307907104
33670,0.021240234375,-0.0677490234375,1.061279296875,-2.38037109375,-0.7324218153953552,1.4648436307907104
33704,0.014404296875,-0.0709228515625,1.0208740234375,-3.112792730331421,-0.1831054538488388,1.6479490995407104
33720,0.0159912109375,-0.0709228515625,1.045166015625,-3.295898199081421,-0.0610351525247097,1.6479490995407104
33737,0.0159912109375,-0.065185546875,1.05126953125,-3.479003667831421,-0.2441406100988388,1.5258787870407104
33754,0.0150146484375,-0.06103515625,1.04833984375,-3.417968511581421,-0.30517578125,1.5258787870407104
33770,0.0150146484375,-0.0657958984375,1.0489501953125,-3.173827886581421,-0.2441406100988388,1.6479490995407104
33820,0.0184326171875,-0.0562744140625,1.0906982421875,-2.685546636581421,0.6103515625,1.4648436307907104
33837,0.0211181640625,-0.0501708984375,1.097900390625,-1.9531248807907104,0.6713866591453552,1.3427733182907104
33848,0.022216796875,-0.04833984375,1.0980224609375,-1.5258787870407104,0.6713866591453552,1.3427733182907104
33878,0.017578125,-0.0494384765625,1.0439453125,-0.54931640625,0.54931640625,1.3427733182907104
33895,0.0177001953125,-0.04443359375,1.02392578125,-0.3662109076976776,0.9155272841453552,1.0986328125
33911,0.023193359375,-0.0367431640625,1.0216064453125,-0.3662109076976776,1.220703125,1.03759765625
33948,0.0255126953125,-0.0372314453125,1.0281982421875,-0.0610351525247097,1.4648436307907104,1.220703125
33964,0.0418701171875,-0.067138671875,1.2508544921875,0.1220703050494194,1.3427733182907104,1.15966796875
33981,0.0758056640625,-0.1046142578125,1.6541748046875,1.8310545682907104,-2.685546636581421,0.6103515625
33998,0.037109375,-0.08056640625,1.1474609375,-0.3662109076976776,-5.981444835662842,0.2441406100988388
34014,-0.0382080078125,-0.0247802734375,0.6053466796875,-1.8310545682907104,-2.563476324081421,0.1220703050494194
34031,0.0218505859375,-0.0367431640625,0.9095458984375,-2.929687261581421,3.417968511581421,0.4272460639476776
34062,0.0230712890625,-0.052001953125,1.27197265625,-0.1220703050494194,-1.7089842557907104,0.30517578125
34084,0.0147705078125,-0.0364990234375,1.04833984375,-0.3662109076976776,-1.6479490995407104,0.1831054538488388
34100,0.009033203125,-0.0230712890625,0.8372802734375,-0.7324218153953552,0.3662109076976776,0.3662109076976776
34117,0.0240478515625,-0.0340576171875,1.0941162109375,-0.2441406100988388,0.4272460639476776,0.3662109076976776
34134,0.0281982421875,-0.0472412109375,1.093505859375,-0.3662109076976776,-1.0986328125,0.3662109076976776
34150,0.02294921875,-0.0447998046875,0.981689453125,-0.9765624403953552,-0.9155272841453552,0.2441406100988388
34184,0.015625,-0.0462646484375,1.0609130859375,-2.3193359375,-0.7324218153953552,0.30517578125
34232,0.023193359375,-0.0401611328125,1.0545654296875,-3.417968511581421,-0.30517578125,0.4272460639476776
34254,0.0203857421875,-0.0333251953125,1.0062255859375,-3.845214605331421,-0.4272460639476776,0.30517578125
34266,0.017822265625,-0.02978515625,1.0098876953125,-3.845214605331421,-0.0610351525247097,0.3662109076976776
34299,0.0196533203125,-0.0250244140625,1.0277099609375,-3.845214605331421,-0.1831054538488388,0.4272460639476776
34316,0.022216796875,-0.0247802734375,1.0274658203125,-3.784179449081421,-0.1220703050494194,0.54931640625
34333,0.019775390625,-0.0277099609375,1.02783203125,-3.845214605331421,-0.0610351525247097,0.54931640625
34370,0.017578125,-0.0223388671875,1.029296875,-4.39453125,0.30517578125,0.4272460639476776
34382,0.0194091796875,-0.0233154296875,1.0223388671875,-4.39453125,0.30517578125,0.4882812201976776
34398,0.0196533203125,-0.0242919921875,1.0257568359375,-4.57763671875,0.30517578125,0.3662109076976776
34415,0.0208740234375,-0.0189208984375,1.028076171875,-4.8828125,0.2441406100988388,0.4272460639476776
34434,0.0218505859375,-0.0166015625,1.026611328125,-5.065917491912842,0.1831054538488388,0.4272460639476776
34450,0.021728515625,-0.0133056640625,1.023193359375,-5.0048828125,0.1831054538488388,0.4882812201976776
34486,0.02099609375,-0.00634765625,1.025634765625,-4.94384765625,0.2441406100988388,0.4272460639476776
34502,0.0213623046875,-0.0068359375,1.0245361328125,-4.7607421875,0.30517578125,0.4272460639476776
34519,0.0228271484375,-0.0064697265625,1.0267333984375,-4.57763671875,0.30517578125,0.4272460639476776
34535,0.0211181640625,-0.008056640625,1.02490234375,-4.57763671875,0.2441406100988388,0.4882812201976776
34552,0.0206298828125,-0.01025390625,1.0279541015625,-4.8828125,0.30517578125,0.4882812201976776
34569,0.0211181640625,-0.0118408203125,1.025634765625,-5.493163585662842,0.3662109076976776,0.4272460639476776
34604,0.019287109375,-0.006591796875,1.02392578125,-6.164550304412842,0.4882812201976776,0.4272460639476776
34620,0.0224609375,0.0006103515625,1.0283203125,-6.408690929412842,0.4882812201976776,0.3662109076976776
34637,0.0224609375,0.0013427734375,1.0244140625,-6.408690929412842,0.4882812201976776,0.4272460639476776
34654,0.0233154296875,0.0059814453125,1.0262451171875,-6.408690929412842,0.54931640625,0.4272460639476776
34720,0.02294921875,0.01953125,1.02490234375,-5.432128429412842,0.4272460639476776,0.4882812201976776
34741,0.0234375,0.0198974609375,1.0240478515625,-5.065917491912842,0.4272460639476776,0.4272460639476776
34757,0.025146484375,0.0186767578125,1.02587890625,-4.94384765625,0.3662109076976776,0.4882812201976776
34774,0.0235595703125,0.0189208984375,1.0225830078125,-4.69970703125,0.2441406100988388,0.4272460639476776
34793,0.02392578125,0.0218505859375,1.0238037109375,-4.45556640625,0.1831054538488388,0.3662109076976776
34810,0.0260009765625,0.02294921875,1.0263671875,-4.21142578125,0.30517578125,0.3662109076976776
34843,0.02197265625,0.026611328125,1.0257568359375,-4.0283203125,0.1831054538488388,0.4272460639476776
34859,0.0225830078125,0.033203125,1.0238037109375,-3.784179449081421,0.1831054538488388,0.30517578125
34876,0.02685546875,0.0340576171875,1.0245361328125,-3.295898199081421,0.1220703050494194,0.3662109076976776
34897,0.027587890625,0.036376953125,1.027587890625,-2.990722417831421,0.0610351525247097,0.3662109076976776
34914,0.0264892578125,0.0372314453125,1.024658203125,-2.38037109375,-0.1220703050494194,0.4272460639476776
34931,0.02587890625,0.0367431640625,1.023681640625,-1.9531248807907104,-0.2441406100988388,0.30517578125
34968,0.0244140625,0.0380859375,1.025634765625,-1.0986328125,-0.2441406100988388,0.30517578125
34985,0.0255126953125,0.0416259765625,1.0281982421875,-0.9155272841453552,-0.2441406100988388,0.30517578125
35002,0.025146484375,0.044677734375,1.0255126953125,-0.30517578125,-0.3662109076976776,0.30517578125
35019,0.0244140625,0.0428466796875,1.0216064453125,0.3662109076976776,-0.3662109076976776,0.3662109076976776
35036,0.0252685546875,0.0401611328125,1.0264892578125,0.6713866591453552,-0.3662109076976776,0.30517578125
35048,0.0264892578125,0.0394287109375,1.026611328125,1.220703125,-0.2441406100988388,0.1831054538488388
35078,0.0225830078125,0.039306640625,1.026123046875,1.8920897245407104,-0.4272460639476776,0.2441406100988388
35095,0.024658203125,0.0355224609375,1.0240478515625,2.0751953125,-0.4272460639476776,0.2441406100988388
35111,0.0263671875,0.0333251953125,1.024658203125,2.3193359375,-0.4272460639476776,0.30517578125
35139,0.0228271484375,0.0303955078125,1.0255126953125,2.38037109375,-0.6103515625,0.2441406100988388
35161,0.0211181640625,0.0264892578125,1.0242919921875,2.0751953125,-0.54931640625,0.2441406100988388
35177,0.0240478515625,0.0196533203125,1.024658203125,1.8920897245407104,-0.4882812201976776,0.30517578125
35194,0.0244140625,0.018798828125,1.02587890625,1.3427733182907104,-0.3662109076976776,0.1831054538488388
35213,0.022705078125,0.02587890625,1.0269775390625,1.03759765625,-0.3662109076976776,0.1220703050494194
35230,0.023681640625,0.033447265625,1.025390625,1.0986328125,-0.4272460639476776,0.2441406100988388
35259,0.024169921875,0.028076171875,1.0234375,1.220703125,-0.54931640625,0.30517578125
35275,0.022216796875,0.0234375,1.0252685546875,1.0986328125,-0.4882812201976776,0.2441406100988388
35291,0.021728515625,0.025634765625,1.0245361328125,0.7934569716453552,-0.3662109076976776,0.2441406100988388
35329,0.022705078125,0.0244140625,1.0264892578125,0.1831054538488388,-0.1831054538488388,0.2441406100988388
35345,0.02392578125,0.028564453125,1.0245361328125,0.2441406100988388,-0.2441406100988388,0.1831054538488388
35362,0.0250244140625,0.0382080078125,1.022705078125,0.4882812201976776,-0.4882812201976776,0.2441406100988388
35379,0.023193359375,0.0364990234375,1.025390625,0.7324218153953552,-0.3662109076976776,0.30517578125
35394,0.021728515625,0.036376953125,1.0269775390625,1.2817381620407104,-0.30517578125,0.2441406100988388
35411,0.0223388671875,0.0341796875,1.024169921875,1.7700194120407104,-0.30517578125,0.2441406100988388
35445,0.02685546875,0.0350341796875,1.0269775390625,2.38037109375,-0.4272460639476776,0.1831054538488388
35464,0.0223388671875,0.0374755859375,1.0255126953125,2.868652105331421,-0.4882812201976776,0.1220703050494194
35480,0.023193359375,0.03955078125,1.0247802734375,3.234863042831421,-0.4882812201976776,0.1220703050494194
35497,0.0247802734375,0.0347900390625,1.0240478515625,4.0283203125,-0.6103515625,0.1831054538488388
35514,0.0242919921875,0.031982421875,1.0245361328125,4.57763671875,-0.7324218153953552,0.1831054538488388
35530,0.0224609375,0.0245361328125,1.0255126953125,4.7607421875,-0.7324218153953552,0.1831054538488388
35559,0.0216064453125,0.0179443359375,1.0244140625,4.57763671875,-0.6103515625,0.1831054538488388
35575,0.021484375,0.0157470703125,1.0247802734375,4.45556640625,-0.54931640625,0.1220703050494194
35592,0.022216796875,0.016845703125,1.02783203125,4.2724609375,-0.54931640625,0.1220703050494194
35613,0.021484375,0.0167236328125,1.0264892578125,4.150390625,-0.6713866591453552,0.1831054538488388
35632,0.0174560546875,0.0089111328125,1.0220947265625,4.08935546875,-0.7324218153953552,0.2441406100988388
35648,0.0201416015625,0.00439453125,1.0255126953125,3.601073980331421,-0.6713866591453552,0.1831054538488388
35681,0.0247802734375,0.013671875,1.0228271484375,2.624511480331421,-0.4882812201976776,0.1220703050494194
35730,0.01904296875,0.00439453125,1.02587890625,2.01416015625,-0.30517578125,0.30517578125
35750,0.0208740234375,0.0015869140625,1.025634765625,1.3427733182907104,-0.1220703050494194,0.1831054538488388
35798,0.020751953125,0.0111083984375,1.0262451171875,0.54931640625,-0.1220703050494194,0.30517578125
35817,0.0208740234375,0.00927734375,1.0284423828125,0.3662109076976776,-0.1831054538488388,0.3662109076976776
35838,0.020263671875,0.0050048828125,1.0250244140625,-0.0610351525247097,-0.1831054538488388,0.30517578125
35854,0.0191650390625,0.00390625,1.02392578125,-0.54931640625,-0.0610351525247097,0.2441406100988388
35871,0.0189208984375,0.009765625,1.0252685546875,-0.7934569716453552,-0.0610351525247097,0.30517578125
35888,0.0213623046875,0.0113525390625,1.026123046875,-1.0986328125,0.0610351525247097,0.2441406100988388
35918,0.0189208984375,0.01171875,1.0244140625,-1.3427733182907104,0.1831054538488388,0.30517578125
35935,0.02001953125,0.0107421875,1.02392578125,-1.4648436307907104,0.1831054538488388,0.30517578125
35950,0.0228271484375,0.0103759765625,1.02587890625,-1.7700194120407104,0.1220703050494194,0.30517578125
35970,0.0224609375,0.0150146484375,1.0260009765625,-1.8310545682907104,0.1220703050494194,0.30517578125
35984,0.0216064453125,0.0205078125,1.024169921875,-1.8310545682907104,0.1220703050494194,0.30517578125
36001,0.022705078125,0.021240234375,1.02490234375,-1.7700194120407104,0.1220703050494194,0.3662109076976776
36034,0.0225830078125,0.02099609375,1.0277099609375,-1.4648436307907104,0.2441406100988388,0.2441406100988388
36053,0.0224609375,0.022705078125,1.026123046875,-1.2817381620407104,0.2441406100988388,0.3662109076976776
36069,0.022216796875,0.0267333984375,1.0238037109375,-1.15966796875,0.30517578125,0.30517578125
36090,0.0224609375,0.0269775390625,1.0233154296875,-0.7934569716453552,0.3662109076976776,0.2441406100988388
36108,0.022705078125,0.0263671875,1.025634765625,-0.4882812201976776,0.3662109076976776,0.30517578125
36124,0.022216796875,0.0262451171875,1.02490234375,-0.30517578125,0.30517578125,0.1831054538488388
36157,0.0252685546875,0.03076171875,1.026123046875,0.1831054538488388,0.1831054538488388,0.2441406100988388
36174,0.025634765625,0.0335693359375,1.024169921875,0.7324218153953552,0.0,0.2441406100988388
36191,0.023681640625,0.0333251953125,1.024169921875,1.3427733182907104,0.0,0.2441406100988388
36207,0.023681640625,0.0333251953125,1.02490234375,1.7700194120407104,-0.0610351525247097,0.2441406100988388
36228,0.0250244140625,0.0352783203125,1.02587890625,2.563476324081421,-0.1220703050494194,0.1831054538488388
36244,0.022705078125,0.0341796875,1.0225830078125,3.295898199081421,-0.30517578125,0.1220703050494194
36261,0.025390625,0.03857421875,1.025146484375,4.2724609375,-0.3662109076976776,0.1220703050494194
36278,0.027587890625,0.036865234375,1.0244140625,4.7607421875,-0.3662109076976776,0.1831054538488388
36295,0.0269775390625,0.0311279296875,1.0250244140625,5.554198741912842,-0.4272460639476776,0.30517578125
36314,0.021240234375,0.017578125,1.027099609375,5.981444835662842,-0.54931640625,0.1831054538488388
36330,0.0194091796875,0.0111083984375,1.027099609375,6.042479991912842,-0.54931640625,0.1831054538488388
36349,0.0211181640625,0.0084228515625,1.0263671875,5.920409679412842,-0.6103515625,0.0610351525247097
36366,0.022705078125,0.0133056640625,1.0255126953125,5.859374523162842,-0.54931640625,0.0610351525247097
36398,0.0235595703125,0.0062255859375,1.02734375,5.859374523162842,-0.54931640625,0.1220703050494194
36415,0.0224609375,0.000244140625,1.0277099609375,5.554198741912842,-0.4882812201976776,0.1220703050494194
36436,0.0196533203125,-0.00146484375,1.0247802734375,4.94384765625,-0.4272460639476776,0.2441406100988388
36452,0.020751953125,-0.003173828125,1.0240478515625,4.57763671875,-0.4272460639476776,0.2441406100988388
36466,0.0220947265625,0.0010986328125,1.025146484375,3.967284917831421,-0.3662109076976776,0.1220703050494194
36483,0.0225830078125,-0.0040283203125,1.028076171875,3.723144292831421,-0.4272460639476776,0.1831054538488388
36516,0.019775390625,-0.0059814453125,1.024169921875,2.746581792831421,-0.0610351525247097,0.1220703050494194
36535,0.01953125,0.0001220703125,1.02001953125,2.50244140625,0.1220703050494194,0.1220703050494194
36551,0.0179443359375,0.0047607421875,1.025390625,2.624511480331421,0.7934569716453552,0.0610351525247097
36583,0.0301513671875,0.0223388671875,1.049560546875,3.417968511581421,2.25830078125,-0.1220703050494194
36600,0.035400390625,0.025634765625,1.05615234375,4.0283203125,2.44140625,0.1220703050494194
36620,0.03466796875,0.0155029296875,1.059326171875,5.310058116912842,2.929687261581421,0.0
36636,0.039794921875,0.0203857421875,1.191162109375,6.530761241912842,2.01416015625,0.0
36653,0.0382080078125,0.020751953125,1.3525390625,7.385253429412842,0.9155272841453552,-0.2441406100988388
36670,0.0491943359375,0.0113525390625,1.4205322265625,8.60595703125,-0.3662109076976776,-0.1220703050494194
36703,0.05322265625,-0.0107421875,1.3621826171875,9.46044921875,-1.7089842557907104,-0.7324218153953552
36719,0.0513916015625,0.00244140625,1.354248046875,9.46044921875,-1.6479490995407104,-0.7934569716453552
36735,0.0478515625,0.0145263671875,1.3677978515625,9.21630859375,-1.5869139432907104,-0.4272460639476776
36752,0.0384521484375,0.0186767578125,1.389892578125,8.97216796875,-2.13623046875,-0.2441406100988388
36777,0.03125,-0.0013427734375,1.3814697265625,8.9111328125,-2.197265625,-0.1220703050494194
36793,0.036865234375,-0.010009765625,1.3974609375,8.97216796875,-2.25830078125,-0.1220703050494194
36805,0.0361328125,-0.0203857421875,1.3934326171875,9.033203125,-2.624511480331421,-0.2441406100988388
36826,0.0335693359375,-0.0164794921875,1.3916015625,8.9111328125,-2.50244140625,-0.2441406100988388
36842,0.027587890625,-0.008056640625,1.416259765625,8.60595703125,-2.563476324081421,-0.4272460639476776
36859,0.0220947265625,-0.0015869140625,1.4166259765625,8.23974609375,-2.990722417831421,-0.3662109076976776
36876,0.0155029296875,0.0145263671875,1.396728515625,8.48388671875,-3.173827886581421,-0.3662109076976776
36895,0.0233154296875,0.0157470703125,1.397216796875,8.72802734375,-3.295898199081421,-0.1220703050494194
36916,0.0240478515625,-0.0057373046875,1.364013671875,8.72802734375,-3.662109136581421,-0.0610351525247097
36932,0.01416015625,-0.026611328125,1.279541015625,7.934569835662842,-4.0283203125,0.0610351525247097
36951,0.0106201171875,-0.0321044921875,1.2550048828125,6.469726085662842,-3.356933355331421,0.0
36967,0.0023193359375,-0.0361328125,1.227783203125,4.8828125,-2.624511480331421,0.0610351525247097
36999,0.0023193359375,-0.0311279296875,1.209716796875,3.112792730331421,-2.197265625,0.3662109076976776
37015,0.00537109375,-0.0382080078125,1.1796875,2.13623046875,-2.01416015625,0.54931640625
37032,0.0081787109375,-0.048828125,1.1368408203125,1.5869139432907104,-1.7700194120407104,0.54931640625
37052,0.012451171875,-0.0509033203125,1.132568359375,0.6103515625,-1.03759765625,0.54931640625
37070,0.017333984375,-0.0623779296875,1.138916015625,-0.2441406100988388,-0.9155272841453552,0.6713866591453552
37087,0.0126953125,-0.068603515625,1.130615234375,-0.6713866591453552,-0.9155272841453552,0.6103515625
37119,0.00341796875,-0.062744140625,1.0439453125,-1.7089842557907104,-1.5258787870407104,0.4272460639476776
37135,-0.000732421875,-0.0552978515625,0.9569091796875,-1.8920897245407104,-1.3427733182907104,0.3662109076976776
37152,-0.0006103515625,-0.0513916015625,0.919677734375,-2.01416015625,-1.220703125,0.4882812201976776
37173,-0.004150390625,-0.0528564453125,0.8358154296875,-2.563476324081421,-0.9155272841453552,0.4272460639476776
37191,-0.008056640625,-0.053466796875,0.7630615234375,-3.295898199081421,-0.30517578125,0.4272460639476776
37207,-0.00732421875,-0.0572509765625,0.716796875,-3.662109136581421,-0.0610351525247097,0.4272460639476776
37240,-0.0006103515625,-0.0450439453125,0.6865234375,-4.08935546875,0.4272460639476776,0.1831054538488388
37257,0.0030517578125,-0.0321044921875,0.6392822265625,-3.662109136581421,0.0610351525247097,0.2441406100988388
37274,-0.0015869140625,-0.0216064453125,0.557373046875,-3.295898199081421,0.0,0.3662109076976776
37290,-0.0064697265625,-0.0247802734375,0.5205078125,-3.051757574081421,0.2441406100988388,0.4272460639476776
37310,-0.013671875,-0.03466796875,0.486328125,-2.624511480331421,0.6713866591453552,0.2441406100988388
37332,-0.0128173828125,-0.0408935546875,0.479248046875,-2.44140625,0.7934569716453552,0.1220703050494194
37348,-0.0028076171875,-0.03564453125,0.4822998046875,-2.197265625,0.9765624403953552,-0.0610351525247097
37367,0.0064697265625,-0.0386962890625,0.4952392578125,-2.01416015625,1.03759765625,-0.0610351525247097
37384,0.0078125,-0.0426025390625,0.5255126953125,-1.5869139432907104,1.0986328125,-0.0610351525247097
37417,0.0003662109375,-0.0477294921875,0.59765625,-0.7934569716453552,1.4038084745407104,0.0
37434,0.0040283203125,-0.0557861328125,0.6785888671875,-0.54931640625,1.4038084745407104,-0.0610351525247097
37450,0.0047607421875,-0.0584716796875,0.71923828125,-0.3662109076976776,1.220703125,-0.0610351525247097
37486,0.0106201171875,-0.0345458984375,0.85302734375,0.3662109076976776,1.15966796875,-0.1831054538488388
37502,0.013916015625,-0.0284423828125,0.8875732421875,1.15966796875,1.2817381620407104,0.0
37519,0.0159912109375,-0.0284423828125,0.95947265625,1.9531248807907104,1.2817381620407104,0.2441406100988388
37535,0.016357421875,-0.0360107421875,1.021240234375,2.197265625,1.15966796875,0.2441406100988388
37554,0.017822265625,-0.03271484375,1.056396484375,3.234863042831421,0.54931640625,0.30517578125
37571,0.01953125,-0.0277099609375,1.061279296875,3.723144292831421,0.2441406100988388,0.2441406100988388
37609,0.024658203125,-0.02880859375,1.0252685546875,4.82177734375,-0.30517578125,0.6713866591453552
37625,0.0250244140625,-0.0413818359375,1.0357666015625,4.7607421875,-0.4272460639476776,0.7324218153953552
37657,0.0211181640625,-0.0504150390625,1.0128173828125,4.21142578125,-0.9765624403953552,0.7324218153953552
37674,0.021484375,-0.0455322265625,1.0384521484375,3.845214605331421,-0.8544921278953552,0.7934569716453552
37690,0.0206298828125,-0.044677734375,1.0577392578125,3.662109136581421,-1.3427733182907104,0.8544921278953552
37720,0.0162353515625,-0.048095703125,1.0496826171875,3.479003667831421,-2.3193359375,1.0986328125
37741,0.0123291015625,-0.0548095703125,1.0347900390625,3.295898199081421,-2.44140625,1.03759765625
37758,0.010986328125,-0.053955078125,1.0545654296875,3.173827886581421,-2.38037109375,1.03759765625
37775,0.010009765625,-0.0498046875,1.0797119140625,2.990722417831421,-2.807616949081421,0.9155272841453552
37794,0.008544921875,-0.050537109375,1.076171875,3.112792730331421,-3.479003667831421,1.03759765625
37810,0.0068359375,-0.0513916015625,1.0606689453125,3.295898199081421,-3.662109136581421,0.9155272841453552
37845,0.0035400390625,-0.0562744140625,1.0509033203125,3.173827886581421,-3.906249761581421,0.7934569716453552
37861,-0.0009765625,-0.0618896484375,1.03369140625,2.868652105331421,-3.967284917831421,0.7324218153953552
37878,-0.00634765625,-0.06396484375,1.0037841796875,2.685546636581421,-3.906249761581421,0.6713866591453552
37895,-0.0087890625,-0.0665283203125,0.996337890625,2.38037109375,-3.356933355331421,0.4882812201976776
37914,-0.0069580078125,-0.0614013671875,1.0029296875,2.0751953125,-2.990722417831421,0.3662109076976776
37930,-0.0068359375,-0.0611572265625,0.98681640625,1.8310545682907104,-2.563476324081421,0.2441406100988388
37964,-0.0067138671875,-0.0670166015625,0.980224609375,1.7089842557907104,-1.5258787870407104,0.0610351525247097
37985,-0.0047607421875,-0.064697265625,0.9947509765625,1.5869139432907104,-1.0986328125,0.0
38001,0.0,-0.05859375,1.00244140625,1.5258787870407104,-0.7324218153953552,-0.1831054538488388
38017,0.0054931640625,-0.0526123046875,1.0140380859375,1.5258787870407104,-0.6103515625,-0.1831054538488388
38033,0.006591796875,-0.053955078125,1.0147705078125,1.5869139432907104,-0.4272460639476776,-0.1831054538488388
38050,0.010009765625,-0.054931640625,1.0286865234375,1.7089842557907104,-0.3662109076976776,-0.1220703050494194
38084,0.012939453125,-0.0546875,1.0325927734375,1.5869139432907104,-0.3662109076976776,-0.2441406100988388
38104,0.0101318359375,-0.0543212890625,1.02783203125,1.7089842557907104,-0.1831054538488388,-0.2441406100988388
38121,0.009765625,-0.052490234375,1.0281982421875,1.7700194120407104,-0.2441406100988388,-0.2441406100988388
38138,0.0087890625,-0.0552978515625,1.0159912109375,1.7700194120407104,-0.3662109076976776,-0.2441406100988388
38154,0.007568359375,-0.055908203125,1.001708984375,1.7089842557907104,-0.30517578125,-0.30517578125
38171,0.0074462890625,-0.0533447265625,0.99609375,1.5258787870407104,0.0610351525247097,-0.4882812201976776
38204,0.0106201171875,-0.048583984375,1.0174560546875,1.220703125,0.0,-0.3662109076976776
38221,0.008544921875,-0.0513916015625,1.0135498046875,0.8544921278953552,-0.0610351525247097,-0.3662109076976776
38236,0.00634765625,-0.0504150390625,1.0118408203125,0.6713866591453552,0.0,-0.3662109076976776
38253,0.005615234375,-0.050537109375,1.01318359375,0.3662109076976776,0.0,-0.30517578125
38272,0.0052490234375,-0.0511474609375,1.016357421875,0.1220703050494194,-0.0610351525247097,-0.3662109076976776
38289,0.004638671875,-0.0479736328125,1.0145263671875,-0.0610351525247097,0.0610351525247097,-0.3662109076976776
38319,0.004638671875,-0.048583984375,1.0147705078125,0.0,0.0610351525247097,-0.30517578125
38339,0.0030517578125,-0.0535888671875,1.010009765625,0.0,0.0610351525247097,-0.30517578125
38355,0.0023193359375,-0.0537109375,1.006591796875,0.0610351525247097,0.0610351525247097,-0.30517578125
38372,0.002197265625,-0.053955078125,0.9974365234375,0.0610351525247097,0.0,-0.2441406100988388
38391,0.0037841796875,-0.05712890625,0.98876953125,-0.0610351525247097,0.0610351525247097,-0.2441406100988388
38408,0.0042724609375,-0.0643310546875,0.984619140625,-0.2441406100988388,0.0610351525247097,-0.30517578125
38440,0.0042724609375,-0.0645751953125,0.9898681640625,-0.1220703050494194,-0.1220703050494194,-0.3662109076976776
38456,0.00341796875,-0.0682373046875,0.9781494140625,-0.1220703050494194,-0.3662109076976776,-0.30517578125
38471,0.0020751953125,-0.07177734375,0.963623046875,-0.1220703050494194,-0.7324218153953552,-0.30517578125
38490,-0.0015869140625,-0.07666015625,0.9390869140625,-0.2441406100988388,-0.7324218153953552,-0.2441406100988388
38509,-0.0028076171875,-0.080810546875,0.9273681640625,-0.4272460639476776,-0.6713866591453552,-0.2441406100988388
38525,-0.00439453125,-0.08642578125,0.920166015625,-0.6713866591453552,-0.4272460639476776,-0.30517578125
38558,-0.0067138671875,-0.074462890625,0.9371337890625,-0.6713866591453552,-0.1831054538488388,-0.54931640625
38574,-0.00732421875,-0.0723876953125,0.935302734375,-0.4882812201976776,-0.1220703050494194,-0.6103515625
38591,-0.0059814453125,-0.0723876953125,0.9188232421875,-0.2441406100988388,-0.0610351525247097,-0.6103515625
38623,0.00146484375,-0.0811767578125,0.8988037109375,-0.54931640625,0.54931640625,-0.6713866591453552
38644,0.0068359375,-0.0775146484375,0.921875,-0.8544921278953552,0.7324218153953552,-0.6713866591453552
38661,0.007568359375,-0.0682373046875,0.940673828125,-0.9155272841453552,0.7324218153953552,-0.6713866591453552
38677,0.0015869140625,-0.068603515625,0.916748046875,-0.7934569716453552,0.30517578125,-0.7324218153953552
38694,-0.0040283203125,-0.0704345703125,0.8702392578125,-0.7934569716453552,0.0,-0.6103515625
38711,-0.006591796875,-0.0814208984375,0.8197021484375,-1.4038084745407104,1.15966796875,-0.6713866591453552
38744,0.0093994140625,-0.0718994140625,0.92236328125,-2.25830078125,1.7700194120407104,-0.7934569716453552
38765,0.0133056640625,-0.05517578125,0.9600830078125,-2.44140625,0.7324218153953552,-0.8544921278953552
38781,0.0064697265625,-0.05712890625,0.8914794921875,-2.50244140625,0.1220703050494194,-0.6713866591453552
38798,0.0013427734375,-0.0648193359375,0.838623046875,-2.990722417831421,0.1220703050494194,-0.54931640625
38815,0.00048828125,-0.072998046875,0.817138671875,-3.967284917831421,1.6479490995407104,-0.6713866591453552
38831,0.013916015625,-0.0579833984375,0.9422607421875,-4.2724609375,2.197265625,-0.7324218153953552
38864,0.0308837890625,-0.0103759765625,1.156005859375,-2.868652105331421,0.1831054538488388,-0.4882812201976776
38881,0.024169921875,-0.01025390625,1.0921630859375,-1.220703125,-1.5869139432907104,-0.1831054538488388
38902,0.018310546875,-0.0167236328125,1.025146484375,-0.6713866591453552,-1.9531248807907104,-0.0610351525247097
38916,0.006591796875,-0.0355224609375,0.8753662109375,-0.7934569716453552,-1.7700194120407104,-0.0610351525247097
38932,-0.004150390625,-0.0401611328125,0.7645263671875,-1.220703125,-1.0986328125,-0.0610351525247097
38949,0.000732421875,-0.0330810546875,0.8516845703125,-2.0751953125,1.4038084745407104,0.0
38982,0.0196533203125,0.0191650390625,1.150634765625,-0.6713866591453552,2.01416015625,0.1220703050494194
38999,0.0167236328125,0.0238037109375,1.16357421875,1.15966796875,0.0610351525247097,0.6713866591453552
39015,0.01318359375,0.017578125,1.1195068359375,2.0751953125,-0.30517578125,0.7934569716453552
39032,0.0045166015625,-0.0059814453125,0.99072265625,2.807616949081421,-0.2441406100988388,0.9155272841453552
39052,-0.0013427734375,-0.01611328125,0.8773193359375,2.746581792831421,0.0,0.9155272841453552
39064,-0.0020751953125,-0.0164794921875,0.828125,1.8920897245407104,0.7934569716453552,0.9765624403953552
39080,0.002685546875,-0.0101318359375,0.7947998046875,1.3427733182907104,1.4648436307907104,1.03759765625
39097,0.0086669921875,-0.007568359375,0.8326416015625,0.4882812201976776,2.990722417831421,1.2817381620407104
39114,0.0203857421875,0.0028076171875,0.9735107421875,-0.1220703050494194,3.540038824081421,1.4648436307907104
39131,0.0264892578125,0.011962890625,1.1087646484375,0.30517578125,2.746581792831421,1.7700194120407104
39147,0.0272216796875,0.01171875,1.1331787109375,0.6713866591453552,1.6479490995407104,1.8310545682907104
39168,0.012939453125,0.00390625,1.0277099609375,1.4038084745407104,0.6103515625,1.8920897245407104
39184,-0.0013427734375,-0.01025390625,0.89599609375,1.3427733182907104,1.7089842557907104,2.01416015625
39201,-0.004638671875,-0.0172119140625,0.8770751953125,0.54931640625,3.356933355331421,2.0751953125
39218,-0.0030517578125,-0.0233154296875,0.9122314453125,0.1220703050494194,3.906249761581421,2.0751953125
39234,0.0045166015625,-0.020751953125,1.0015869140625,-0.54931640625,3.967284917831421,2.01416015625
39251,0.0052490234375,-0.0152587890625,1.064697265625,-0.4272460639476776,3.540038824081421,2.01416015625
39272,0.00732421875,-0.0103759765625,1.077392578125,-0.2441406100988388,3.112792730331421,2.13623046875
39332,0.0106201171875,-0.02734375,0.945556640625,-1.0986328125,4.08935546875,2.197265625
39356,0.01171875,-0.02392578125,0.9996337890625,-1.6479490995407104,4.69970703125,2.13623046875
39373,0.019775390625,-0.02001953125,1.0587158203125,-1.5869139432907104,4.638671875,2.0751953125
39389,0.025634765625,-0.017822265625,1.0888671875,-1.4648436307907104,4.0283203125,1.7700194120407104
39409,0.0311279296875,-0.0107421875,1.0469970703125,-1.3427733182907104,2.990722417831421,1.7089842557907104
39426,0.03466796875,-0.000732421875,1.0323486328125,-1.4648436307907104,3.112792730331421,1.7089842557907104
39442,0.0391845703125,0.0069580078125,1.04638671875,-1.7089842557907104,3.417968511581421,1.8310545682907104
39459,0.0404052734375,0.007080078125,1.0694580078125,-1.7700194120407104,3.479003667831421,1.8920897245407104
39479,0.0418701171875,0.0,1.1263427734375,-1.5869139432907104,3.051757574081421,1.9531248807907104
39496,0.040771484375,-0.0087890625,1.165283203125,-1.0986328125,2.50244140625,1.7089842557907104
39513,0.0401611328125,-0.004150390625,1.151611328125,-0.7324218153953552,2.01416015625,1.5869139432907104
39532,0.0386962890625,0.0052490234375,1.115478515625,0.0610351525247097,1.6479490995407104,1.4648436307907104
39585,0.04150390625,-0.018310546875,1.1190185546875,0.4882812201976776,1.7700194120407104,1.6479490995407104
39601,0.041015625,-0.0181884765625,1.1356201171875,0.2441406100988388,1.8310545682907104,1.4648436307907104
39617,0.0413818359375,-0.008544921875,1.1529541015625,0.4882812201976776,1.8920897245407104,1.3427733182907104
39634,0.04345703125,-0.00146484375,1.196044921875,0.8544921278953552,1.7700194120407104,1.4648436307907104
39652,0.04248046875,-0.0140380859375,1.1812744140625,1.5258787870407104,1.0986328125,1.5258787870407104
39667,0.0408935546875,-0.0185546875,1.1683349609375,1.8920897245407104,0.8544921278953552,1.2817381620407104
39700,0.033447265625,-0.01513671875,1.14404296875,1.6479490995407104,1.4038084745407104,1.0986328125
39720,0.037841796875,-0.0130615234375,1.1759033203125,1.5869139432907104,1.5258787870407104,1.0986328125
39736,0.044189453125,-0.0089111328125,1.22119140625,1.8920897245407104,0.7934569716453552,0.9765624403953552
39753,0.04833984375,-0.008056640625,1.209228515625,2.13623046875,0.30517578125,0.9765624403953552
39772,0.0469970703125,-0.0120849609375,1.1771240234375,2.44140625,-0.4882812201976776,1.0986328125
39789,0.0421142578125,-0.0184326171875,1.1123046875,2.38037109375,-0.1831054538488388,1.03759765625
39819,0.0430908203125,-0.0137939453125,1.1341552734375,2.197265625,0.7934569716453552,0.8544921278953552
39835,0.0477294921875,-0.0159912109375,1.17529296875,2.0751953125,0.6103515625,0.7934569716453552
39851,0.0491943359375,-0.031494140625,1.19140625,2.0751953125,-0.0610351525247097,0.7934569716453552
39887,0.038818359375,-0.0322265625,1.08740234375,1.5258787870407104,-1.2817381620407104,0.1831054538488388
39903,0.037353515625,-0.0257568359375,1.0687255859375,1.4038084745407104,-0.9765624403953552,0.1220703050494194
39919,0.038330078125,-0.0252685546875,1.08056640625,1.0986328125,-0.7934569716453552,0.1220703050494194
39936,0.039306640625,-0.0338134765625,1.0948486328125,0.9765624403953552,-1.03759765625,0.0610351525247097
39952,0.0343017578125,-0.043212890625,1.0587158203125,0.6103515625,-1.7089842557907104,-0.1831054538488388
39968,0.030517578125,-0.0478515625,1.0316162109375,0.0,-1.6479490995407104,-0.3662109076976776
40001,0.0640869140625,-0.0477294921875,1.4000244140625,-0.7324218153953552,-0.7324218153953552,-0.54931640625
40017,0.134765625,-0.0616455078125,1.959716796875,-1.8920897245407104,-5.615233898162842,-0.7324218153953552
40038,0.071044921875,-0.0458984375,1.2557373046875,-3.967284917831421,-11.779784202575684,-0.7324218153953552
40054,-0.02197265625,-0.0262451171875,0.733154296875,-4.0283203125,-10.437010765075684,-0.7934569716453552
40120,-0.001220703125,-0.0283203125,0.9840087890625,-5.126952648162842,-6.896972179412842,-0.4882812201976776
40137,-0.0098876953125,-0.0108642578125,0.902587890625,-4.638671875,-5.859374523162842,-0.3662109076976776
40153,-0.0257568359375,-0.006103515625,0.6075439453125,-3.051757574081421,3.173827886581421,-0.1220703050494194
40193,0.0469970703125,0.00048828125,1.18701171875,-5.0048828125,5.859374523162842,0.30517578125
40209,0.1475830078125,-0.016357421875,1.961181640625,-8.72802734375,-4.57763671875,0.6713866591453552
40226,-0.0137939453125,-0.0174560546875,0.3553466796875,-9.46044921875,-5.920409679412842,0.6713866591453552
40247,-0.0369873046875,-0.0108642578125,0.3358154296875,-7.995604991912842,3.540038824081421,0.4882812201976776
40263,0.053466796875,-0.006103515625,1.4302978515625,-8.1787109375,0.6103515625,0.54931640625
40280,0.0328369140625,-0.0277099609375,0.931640625,-9.21630859375,-2.0751953125,0.7324218153953552
40297,0.0013427734375,0.0164794921875,0.94140625,-8.544921875,1.5258787870407104,0.4272460639476776
40316,0.0264892578125,0.0164794921875,1.141845703125,-8.85009765625,-0.30517578125,0.7324218153953552
40336,0.0352783203125,0.0081787109375,0.9215087890625,-8.60595703125,-0.3662109076976776,0.7934569716453552
40352,0.0267333984375,0.01025390625,1.057861328125,-8.30078125,0.6103515625,0.54931640625
40371,0.0126953125,0.0135498046875,1.0103759765625,-8.36181640625,0.30517578125,0.3662109076976776
40388,0.0252685546875,0.0355224609375,1.017822265625,-8.11767578125,0.54931640625,0.2441406100988388
40418,0.0345458984375,0.048583984375,1.0069580078125,-5.432128429412842,-0.2441406100988388,0.54931640625
40435,0.0225830078125,0.03955078125,1.0283203125,-3.845214605331421,-0.30517578125,0.3662109076976776
40451,0.0191650390625,0.0487060546875,1.040771484375,-3.112792730331421,-0.3662109076976776,0.3662109076976776
40484,0.028076171875,0.05126953125,1.021240234375,-0.7324218153953552,-0.2441406100988388,0.2441406100988388
40505,0.03076171875,0.0467529296875,1.033203125,0.8544921278953552,-0.30517578125,0.2441406100988388
40521,0.0316162109375,0.05126953125,1.0189208984375,2.3193359375,-0.54931640625,0.2441406100988388
40538,0.0218505859375,0.0457763671875,1.0299072265625,3.112792730331421,-0.54931640625,0.30517578125
40555,0.02294921875,0.0472412109375,1.023681640625,4.5166015625,-0.9155272841453552,0.1220703050494194
40571,0.0255126953125,0.0345458984375,1.020751953125,5.737304210662842,-1.15966796875,0.30517578125
40606,0.0211181640625,0.01025390625,1.0286865234375,5.554198741912842,-0.9765624403953552,0.0610351525247097
40652,0.0255126953125,0.0189208984375,1.02587890625,5.065917491912842,-1.03759765625,0.0610351525247097
40731,0.02001953125,0.00634765625,1.0185546875,4.638671875,-0.6713866591453552,0.1220703050494194
40748,0.022705078125,0.006103515625,1.030029296875,4.5166015625,-0.6103515625,0.0610351525247097
40780,0.0191650390625,0.01318359375,1.023681640625,4.57763671875,-0.7324218153953552,0.1220703050494194
40796,0.0185546875,0.0113525390625,1.024658203125,4.94384765625,-0.7324218153953552,0.1831054538488388
40813,0.0201416015625,0.006103515625,1.027099609375,5.126952648162842,-0.7324218153953552,0.1220703050494194
40854,0.0208740234375,0.00244140625,1.020751953125,5.310058116912842,-0.9155272841453552,0.1220703050494194
40871,0.0174560546875,-0.001708984375,1.027099609375,4.94384765625,-0.7934569716453552,0.1831054538488388
40888,0.0166015625,-0.0078125,1.0240478515625,4.7607421875,-0.7324218153953552,0.1220703050494194
40908,0.0203857421875,-0.0068359375,1.030029296875,4.21142578125,-0.54931640625,0.0610351525247097
40925,0.019287109375,-0.0078125,1.0235595703125,3.845214605331421,-0.6103515625,0.1220703050494194
40942,0.017578125,-0.0089111328125,1.023681640625,3.540038824081421,-0.54931640625,0.1220703050494194
40959,0.0155029296875,-0.0068359375,1.021484375,3.173827886581421,-0.4882812201976776,0.2441406100988388
40980,0.0184326171875,-0.0084228515625,1.0284423828125,2.990722417831421,-0.3662109076976776,0.1831054538488388
40996,0.0225830078125,-0.008544921875,1.0228271484375,2.685546636581421,-0.3662109076976776,0.1220703050494194
41008,0.022216796875,-0.0089111328125,1.0255126953125,2.50244140625,-0.30517578125,0.1831054538488388
41028,0.0203857421875,-0.007568359375,1.0257568359375,2.44140625,-0.2441406100988388,0.1831054538488388
41045,0.01220703125,-0.0067138671875,1.0230712890625,2.38037109375,-0.3662109076976776,0.2441406100988388
41062,0.0120849609375,-0.010009765625,1.0235595703125,2.3193359375,-0.30517578125,0.2441406100988388
41079,0.021240234375,-0.02001953125,1.02685546875,1.7700194120407104,-0.4272460639476776,0.2441406100988388
41100,0.0234375,-0.009033203125,1.0272216796875,1.3427733182907104,-0.4272460639476776,0.1220703050494194
41116,0.012939453125,0.00341796875,1.0242919921875,1.2817381620407104,-0.4272460639476776,0.1220703050494194
41133,0.0128173828125,0.0048828125,1.029296875,1.8310545682907104,-0.4882812201976776,0.1831054538488388
41199,0.0205078125,-0.0023193359375,1.0233154296875,3.662109136581421,-0.54931640625,0.1831054538488388
41216,0.02001953125,-0.0023193359375,1.0245361328125,3.906249761581421,-0.54931640625,0.1831054538488388
41232,0.01611328125,-0.001708984375,1.0252685546875,4.21142578125,-0.4882812201976776,0.1831054538488388
41257,0.016357421875,-0.0159912109375,1.0279541015625,4.5166015625,-0.6103515625,0.30517578125
41274,0.0177001953125,-0.0211181640625,1.0283203125,4.45556640625,-0.6713866591453552,0.1831054538488388
41290,0.0184326171875,-0.013916015625,1.0238037109375,4.638671875,-0.7324218153953552,0.0
41324,0.019287109375,0.001953125,1.0274658203125,5.798339366912842,-0.8544921278953552,0.1831054538488388
41344,0.0186767578125,-0.01611328125,1.021484375,6.164550304412842,-0.7934569716453552,0.1220703050494194
41360,0.01806640625,-0.0233154296875,1.0308837890625,6.103515148162842,-0.7934569716453552,0.0610351525247097
41377,0.0150146484375,-0.031982421875,1.0228271484375,6.103515148162842,-0.9155272841453552,0.1831054538488388
41394,0.01416015625,-0.0274658203125,1.023193359375,5.798339366912842,-0.7934569716453552,0.0610351525247097
41410,0.0137939453125,-0.023193359375,1.0244140625,5.737304210662842,-0.6713866591453552,0.0610351525247097
41444,0.01611328125,-0.0340576171875,1.0264892578125,5.249022960662842,-0.54931640625,0.1831054538488388
41461,0.01611328125,-0.0374755859375,1.027587890625,4.638671875,-0.8544921278953552,0.1220703050494194
41496,0.012451171875,-0.0277099609375,1.023681640625,4.0283203125,-0.9765624403953552,-0.0610351525247097
41508,0.012451171875,-0.037109375,1.02392578125,3.784179449081421,-0.6713866591453552,0.2441406100988388
41524,0.0128173828125,-0.0445556640625,1.0242919921875,3.479003667831421,-0.54931640625,0.1831054538488388
41558,0.0145263671875,-0.0465087890625,1.0244140625,1.5258787870407104,-0.4272460639476776,0.2441406100988388
41574,0.0150146484375,-0.0418701171875,1.0272216796875,1.15966796875,-0.4272460639476776,0.30517578125
41595,0.0106201171875,-0.0457763671875,1.0238037109375,0.3662109076976776,-0.3662109076976776,0.1831054538488388
41612,0.011474609375,-0.0452880859375,1.0263671875,0.0610351525247097,-0.1831054538488388,0.30517578125
41680,0.0135498046875,-0.044189453125,1.0281982421875,-4.7607421875,0.4882812201976776,0.4882812201976776
41696,0.01416015625,-0.04345703125,1.027587890625,-5.310058116912842,0.54931640625,0.4272460639476776
41713,0.0145263671875,-0.03662109375,1.02294921875,-6.103515148162842,0.6103515625,0.3662109076976776
41734,0.0147705078125,-0.023193359375,1.027587890625,-6.347655773162842,0.7324218153953552,0.3662109076976776
41750,0.0157470703125,-0.0208740234375,1.0264892578125,-6.347655773162842,0.7934569716453552,0.4882812201976776
41800,0.018310546875,0.005615234375,1.0262451171875,-5.065917491912842,0.3662109076976776,0.30517578125
41817,0.0181884765625,0.0111083984375,1.02587890625,-3.356933355331421,0.2441406100988388,0.2441406100988388
41834,0.0224609375,0.0224609375,1.0272216796875,-0.9765624403953552,-0.1220703050494194,0.30517578125
41875,0.018310546875,0.0076904296875,1.02734375,3.112792730331421,-0.4882812201976776,0.30517578125
41891,0.0184326171875,-0.0101318359375,1.025146484375,3.662109136581421,-0.54931640625,0.30517578125
41903,0.0181884765625,-0.010498046875,1.0244140625,4.39453125,-0.54931640625,0.1220703050494194
41917,0.01708984375,-0.0133056640625,1.0281982421875,4.57763671875,-0.54931640625,0.1220703050494194
41934,0.016845703125,-0.011474609375,1.026123046875,5.065917491912842,-0.7324218153953552,0.0610351525247097
41950,0.0167236328125,-0.0125732421875,1.026611328125,5.676269054412842,-0.7324218153953552,0.1831054538488388
41980,0.015869140625,-0.017822265625,1.02392578125,6.164550304412842,-0.8544921278953552,0.1831054538488388
42001,0.0155029296875,-0.0267333984375,1.0269775390625,6.225585460662842,-0.7934569716453552,0.1220703050494194
42018,0.0155029296875,-0.0291748046875,1.027099609375,6.103515148162842,-0.7934569716453552,0.1220703050494194
42035,0.0146484375,-0.033203125,1.025146484375,5.798339366912842,-0.7324218153953552,0.0610351525247097
42053,0.0152587890625,-0.0281982421875,1.0247802734375,5.737304210662842,-0.7324218153953552,0.0610351525247097
42069,0.015869140625,-0.027587890625,1.02880859375,5.859374523162842,-0.7934569716453552,0.0610351525247097
42102,0.0135498046875,-0.037841796875,1.0250244140625,5.859374523162842,-0.8544921278953552,0.1220703050494194
42150,0.0133056640625,-0.0404052734375,1.0238037109375,5.065917491912842,-0.8544921278953552,0.1831054538488388
42170,0.012451171875,-0.047607421875,1.022705078125,4.57763671875,-0.6713866591453552,0.0610351525247097
42192,0.014892578125,-0.0465087890625,1.02490234375,4.33349609375,-0.6103515625,0.0610351525247097
42208,0.0145263671875,-0.0501708984375,1.025390625,3.723144292831421,-0.4882812201976776,0.1831054538488388
42227,0.0103759765625,-0.048583984375,1.0250244140625,3.112792730331421,-0.4272460639476776,0.1220703050494194
42244,0.0120849609375,-0.0506591796875,1.025146484375,2.868652105331421,-0.30517578125,0.1831054538488388
42277,0.0130615234375,-0.0545654296875,1.0230712890625,1.6479490995407104,-0.2441406100988388,0.2441406100988388
42294,0.0106201171875,-0.0501708984375,1.0269775390625,1.220703125,-0.1831054538488388,0.1831054538488388
42332,0.0140380859375,-0.0474853515625,1.025634765625,0.6103515625,-0.1220703050494194,0.2441406100988388
42350,0.012451171875,-0.0489501953125,1.0263671875,0.1831054538488388,-0.1220703050494194,0.2441406100988388
42366,0.011474609375,-0.0489501953125,1.02490234375,-0.1831054538488388,-0.0610351525247097,0.3662109076976776
42399,0.013916015625,-0.044921875,1.0242919921875,-0.6713866591453552,0.0610351525247097,0.1831054538488388
42416,0.013671875,-0.04345703125,1.0242919921875,-0.7934569716453552,0.0610351525247097,0.30517578125
42433,0.0146484375,-0.0396728515625,1.02490234375,-0.7934569716453552,-0.0610351525247097,0.30517578125
42475,0.012451171875,-0.0419921875,1.025390625,-0.6713866591453552,0.0,0.3662109076976776
42491,0.013671875,-0.039306640625,1.02587890625,-0.6713866591453552,0.0,0.30517578125
42503,0.015380859375,-0.038818359375,1.0264892578125,-0.7324218153953552,-0.0610351525247097,0.30517578125
42517,0.0159912109375,-0.037841796875,1.026611328125,-0.6713866591453552,-0.1220703050494194,0.30517578125
42534,0.01220703125,-0.0364990234375,1.025634765625,-0.6103515625,-0.0610351525247097,0.30517578125
42550,0.0128173828125,-0.03955078125,1.025390625,-0.6103515625,-0.0610351525247097,0.30517578125
42584,0.014404296875,-0.0390625,1.0255126953125,-0.7324218153953552,-0.0610351525247097,0.30517578125
42605,0.0128173828125,-0.036865234375,1.02490234375,-0.6713866591453552,-0.0610351525247097,0.2441406100988388
42621,0.0152587890625,-0.0343017578125,1.025390625,-0.6103515625,-0.1220703050494194,0.30517578125
42638,0.015380859375,-0.0333251953125,1.0269775390625,-0.4882812201976776,-0.0610351525247097,0.30517578125
42655,0.0147705078125,-0.0340576171875,1.024658203125,-0.4272460639476776,-0.0610351525247097,0.30517578125
42675,0.0135498046875,-0.035400390625,1.0264892578125,-0.2441406100988388,-0.0610351525247097,0.2441406100988388
42692,0.0146484375,-0.0333251953125,1.0263671875,-0.1220703050494194,-0.1831054538488388,0.2441406100988388
42710,0.014404296875,-0.033935546875,1.0240478515625,-0.0610351525247097,-0.1831054538488388,0.2441406100988388
42725,0.0137939453125,-0.0328369140625,1.0250244140625,0.0,-0.1220703050494194,0.2441406100988388
42746,0.013916015625,-0.03369140625,1.027587890625,0.0610351525247097,-0.0610351525247097,0.2441406100988388
42766,0.015380859375,-0.031494140625,1.025390625,0.1831054538488388,-0.1220703050494194,0.1831054538488388
42782,0.01611328125,-0.0338134765625,1.0240478515625,0.4272460639476776,-0.1220703050494194,0.2441406100988388
42799,0.014892578125,-0.033447265625,1.0242919921875,0.4882812201976776,-0.0610351525247097,0.1831054538488388
42816,0.013916015625,-0.032470703125,1.0252685546875,0.4882812201976776,-0.0610351525247097,0.1831054538488388
42832,0.01416015625,-0.0311279296875,1.026123046875,0.6713866591453552,-0.1831054538488388,0.2441406100988388
42848,0.01416015625,-0.0335693359375,1.0257568359375,0.8544921278953552,-0.1220703050494194,0.2441406100988388
42882,0.0150146484375,-0.0352783203125,1.0235595703125,0.9765624403953552,-0.1220703050494194,0.2441406100988388
42902,0.0145263671875,-0.033935546875,1.025634765625,0.9765624403953552,-0.1220703050494194,0.2441406100988388
42919,0.013671875,-0.037109375,1.02392578125,0.9155272841453552,-0.1220703050494194,0.2441406100988388
42936,0.0152587890625,-0.03759765625,1.02587890625,0.9155272841453552,-0.0610351525247097,0.2441406100988388
43005,0.0126953125,-0.0435791015625,1.0238037109375,0.4882812201976776,0.1220703050494194,0.2441406100988388
43021,0.012939453125,-0.043212890625,1.0247802734375,0.0610351525247097,0.30517578125,0.2441406100988388
43038,0.0125732421875,-0.037109375,1.0252685546875,-0.1831054538488388,0.30517578125,0.2441406100988388
43055,0.0184326171875,-0.031494140625,1.0279541015625,-0.1220703050494194,0.1831054538488388,0.2441406100988388
43073,0.0198974609375,-0.037109375,1.0263671875,-0.0610351525247097,-0.0610351525247097,0.30517578125
43089,0.0172119140625,-0.037353515625,1.0257568359375,-0.30517578125,0.0,0.30517578125
43122,0.013916015625,-0.0377197265625,1.0252685546875,-0.7934569716453552,0.0610351525247097,0.30517578125
43139,0.0157470703125,-0.03564453125,1.02490234375,-0.8544921278953552,0.2441406100988388,0.30517578125
43160,0.0179443359375,-0.0269775390625,1.0257568359375,-0.8544921278953552,0.30517578125,0.1831054538488388
43176,0.016357421875,-0.022705078125,1.025634765625,-0.6713866591453552,0.30517578125,0.2441406100988388
43188,0.0137939453125,-0.0279541015625,1.025146484375,-0.30517578125,0.30517578125,0.4272460639476776
43205,0.013427734375,-0.0323486328125,1.0240478515625,-0.1220703050494194,0.3662109076976776,0.4272460639476776
43238,0.0191650390625,-0.0272216796875,1.023193359375,0.2441406100988388,0.7324218153953552,0.3662109076976776
43255,0.01904296875,-0.0269775390625,1.0267333984375,0.3662109076976776,0.6713866591453552,0.3662109076976776
43271,0.0166015625,-0.0260009765625,1.0284423828125,0.4272460639476776,0.6103515625,0.3662109076976776
43300,0.015625,-0.0406494140625,1.0286865234375,0.3662109076976776,0.7324218153953552,0.6103515625
43322,0.015380859375,-0.0438232421875,1.0264892578125,-0.30517578125,1.03759765625,0.3662109076976776
43338,0.015869140625,-0.0445556640625,1.0230712890625,-0.9155272841453552,1.7089842557907104,0.0
43355,0.0208740234375,-0.0146484375,1.0379638671875,-1.03759765625,2.0751953125,-0.0610351525247097
43372,0.01806640625,-0.009033203125,1.0372314453125,-0.1831054538488388,2.197265625,0.0610351525247097
43435,0.031494140625,-0.005615234375,1.3341064453125,7.873534679412842,0.3662109076976776,-0.0610351525247097
43495,0.058837890625,-0.0047607421875,1.4794921875,11.718749046325684,-0.54931640625,-0.54931640625
43512,0.0504150390625,-0.0093994140625,1.4600830078125,12.939452171325684,-1.5869139432907104,-0.6103515625
43529,0.0418701171875,0.0,1.4266357421875,13.488768577575684,-1.5869139432907104,-0.7934569716453552
43549,0.04052734375,-0.017822265625,1.422607421875,14.648436546325684,-1.7700194120407104,-0.6103515625
43566,0.0426025390625,-0.0458984375,1.4024658203125,14.404295921325684,-2.44140625,-0.6103515625
43583,0.0408935546875,-0.0570068359375,1.3680419921875,13.854979515075684,-2.624511480331421,-0.6103515625
43600,0.0399169921875,-0.0662841796875,1.2974853515625,12.268065452575684,-2.01416015625,-0.4882812201976776
43621,0.039306640625,-0.070068359375,1.291015625,11.047362327575684,-1.3427733182907104,-0.6103515625
43638,0.03173828125,-0.064453125,1.322998046875,10.620116233825684,-1.2817381620407104,-0.54931640625
43655,0.0220947265625,-0.06884765625,1.31201171875,10.131834983825684,-1.7089842557907104,-0.4882812201976776
43674,0.0238037109375,-0.080078125,1.3203125,9.6435546875,-1.4648436307907104,-0.3662109076976776
43690,0.0341796875,-0.1060791015625,1.3262939453125,8.60595703125,-1.5869139432907104,-0.4882812201976776
43723,0.0401611328125,-0.1141357421875,1.3084716796875,5.371093273162842,-1.7700194120407104,-0.7934569716453552
43740,0.0325927734375,-0.096435546875,1.27880859375,3.479003667831421,-1.7089842557907104,-0.7324218153953552
43761,0.0274658203125,-0.08349609375,1.2593994140625,2.0751953125,-1.6479490995407104,-0.6103515625
43776,0.0272216796875,-0.09521484375,1.2508544921875,1.4648436307907104,-1.5869139432907104,-0.4882812201976776
43788,0.0277099609375,-0.10107421875,1.2401123046875,-0.0610351525247097,-1.8920897245407104,-0.4272460639476776
43804,0.022705078125,-0.1141357421875,1.1820068359375,-0.9765624403953552,-2.13623046875,-0.4272460639476776
43838,0.011474609375,-0.10546875,1.106201171875,-5.493163585662842,-1.0986328125,-0.3662109076976776
43855,0.0093994140625,-0.0965576171875,1.1070556640625,-6.225585460662842,-0.7934569716453552,-0.30517578125
43876,0.007568359375,-0.094482421875,1.1094970703125,-7.019042491912842,-0.54931640625,-0.0610351525247097
43892,0.0050048828125,-0.1009521484375,1.09423828125,-7.141112804412842,-0.7934569716453552,-0.1220703050494194
43911,0.006103515625,-0.0955810546875,1.0335693359375,-7.446288585662842,-1.03759765625,-0.0610351525247097
43928,0.0064697265625,-0.0838623046875,0.9439697265625,-7.751464366912842,-1.03759765625,0.0
43958,0.002685546875,-0.070556640625,0.8447265625,-8.7890625,-0.0610351525247097,0.1831054538488388
43975,0.0013427734375,-0.0572509765625,0.8126220703125,-9.033203125,0.0610351525247097,0.1831054538488388
43991,0.0029296875,-0.0484619140625,0.80126953125,-8.9111328125,-0.1831054538488388,0.2441406100988388
44012,0.0,-0.0335693359375,0.7265625,-8.544921875,-0.30517578125,0.3662109076976776
44031,-0.001953125,-0.0269775390625,0.66845703125,-8.4228515625,-0.1831054538488388,0.3662109076976776
44047,-0.0015869140625,-0.0213623046875,0.6412353515625,-7.995604991912842,0.1220703050494194,0.4272460639476776
44080,-0.007080078125,-0.0120849609375,0.562255859375,-6.896972179412842,0.1220703050494194,0.54931640625
44146,-0.0120849609375,-0.0164794921875,0.4486083984375,-3.356933355331421,1.9531248807907104,0.4272460639476776
44211,-0.002685546875,-0.0120849609375,0.5716552734375,1.15966796875,2.807616949081421,0.30517578125
44228,0.002197265625,-0.015625,0.636474609375,2.197265625,2.929687261581421,0.30517578125
44261,0.0107421875,-0.045654296875,0.79443359375,6.286620616912842,2.929687261581421,0.1220703050494194
44278,0.0228271484375,-0.0264892578125,0.8837890625,8.72802734375,2.38037109375,-0.0610351525247097
44295,0.0299072265625,-0.0157470703125,0.9290771484375,10.375975608825684,2.0751953125,0.0
44312,0.0350341796875,-0.009765625,1.011474609375,13.977049827575684,1.2817381620407104,0.3662109076976776
44336,0.0283203125,-0.0341796875,1.0576171875,17.4560546875,-0.0610351525247097,0.54931640625
44353,0.020751953125,-0.0445556640625,1.0499267578125,20.507810592651367,-0.8544921278953552,0.54931640625
44370,0.0208740234375,-0.061279296875,1.0496826171875,21.606443405151367,-1.0986328125,0.6713866591453552
44388,0.023681640625,-0.0919189453125,1.0703125,23.254392623901367,-1.6479490995407104,0.8544921278953552
44404,0.022705078125,-0.10693359375,1.0731201171875,24.108884811401367,-2.38037109375,0.7934569716453552
44437,0.0223388671875,-0.119140625,1.1011962890625,25.024412155151367,-4.0283203125,0.7324218153953552
44454,0.0208740234375,-0.1241455078125,1.1036376953125,24.902341842651367,-4.5166015625,0.7324218153953552
44475,0.018310546875,-0.1470947265625,1.0697021484375,24.047849655151367,-5.432128429412842,0.6103515625
44491,0.0185546875,-0.153076171875,1.0223388671875,23.254392623901367,-5.615233898162842,0.54931640625
44509,0.0120849609375,-0.1617431640625,1.00439453125,21.057126998901367,-5.493163585662842,0.6103515625
44526,0.0074462890625,-0.165771484375,1.0067138671875,19.4091796875,-5.493163585662842,0.4882812201976776
44559,-0.0120849609375,-0.1722412109375,0.969482421875,15.991209983825684,-4.7607421875,-0.1220703050494194
44576,-0.0133056640625,-0.1727294921875,0.9727783203125,14.770506858825684,-4.39453125,-0.1220703050494194
44592,-0.0146484375,-0.1800537109375,0.9854736328125,12.329100608825684,-3.967284917831421,-0.1220703050494194
44630,-0.019775390625,-0.186767578125,0.9747314453125,8.30078125,-3.112792730331421,-0.30517578125
44677,-0.016357421875,-0.1822509765625,1.02001953125,2.13623046875,-1.8310545682907104,-0.4272460639476776
44694,-0.017333984375,-0.1827392578125,1.0162353515625,-0.1220703050494194,-1.8310545682907104,-0.54931640625
44711,-0.01708984375,-0.18115234375,1.0037841796875,-2.13623046875,-1.4038084745407104,-0.6713866591453552
44744,-0.01220703125,-0.1837158203125,1.0194091796875,-4.69970703125,-0.9765624403953552,-0.8544921278953552
44765,-0.00927734375,-0.1793212890625,1.0189208984375,-6.347655773162842,-0.9765624403953552,-0.9765624403953552
44781,-0.0089111328125,-0.169921875,1.0028076171875,-7.019042491912842,-0.9155272841453552,-1.03759765625
44798,-0.0081787109375,-0.1680908203125,0.9951171875,-8.36181640625,-0.6103515625,-1.0986328125
44815,-0.0062255859375,-0.1669921875,0.9923095703125,-9.70458984375,-0.3662109076976776,-1.2817381620407104
44831,-0.0048828125,-0.162353515625,0.9869384765625,-10.253905296325684,-0.2441406100988388,-1.2817381620407104
44869,0.00244140625,-0.1427001953125,1.0240478515625,-11.169432640075684,0.0610351525247097,-1.4038084745407104
44885,0.0035400390625,-0.139404296875,1.02734375,-11.047362327575684,-0.0610351525247097,-1.4648436307907104
44902,0.005859375,-0.134521484375,1.0277099609375,-10.559081077575684,-0.1220703050494194,-1.5869139432907104
44923,0.005859375,-0.1270751953125,1.0220947265625,-10.253905296325684,-0.1831054538488388,-1.6479490995407104
44939,0.00537109375,-0.1202392578125,1.0155029296875,-9.3994140625,-0.30517578125,-1.6479490995407104
44956,0.005615234375,-0.115234375,1.016845703125,-8.30078125,-0.2441406100988388,-1.8310545682907104
44972,0.007080078125,-0.1094970703125,1.02294921875,-7.751464366912842,-0.3662109076976776,-1.8310545682907104
44989,0.0057373046875,-0.10693359375,1.004638671875,-6.469726085662842,-0.6103515625,-1.9531248807907104
45005,0.0050048828125,-0.1051025390625,0.99609375,-5.065917491912842,-0.6103515625,-2.01416015625
45037,0.002685546875,-0.106689453125,0.959228515625,-2.929687261581421,-0.6103515625,-2.01416015625
45061,0.0023193359375,-0.1126708984375,0.939208984375,-1.7089842557907104,-0.6713866591453552,-2.13623046875
45077,0.002197265625,-0.1181640625,0.9124755859375,-0.4882812201976776,-0.6713866591453552,-2.13623046875
45094,0.0035400390625,-0.118408203125,0.9005126953125,0.2441406100988388,-0.6103515625,-2.197265625
45112,0.0040283203125,-0.1209716796875,0.902099609375,1.7089842557907104,-0.54931640625,-2.25830078125
45129,0.0020751953125,-0.123046875,0.8994140625,3.051757574081421,-0.6713866591453552,-2.25830078125
45162,-0.00146484375,-0.13720703125,0.877685546875,5.065917491912842,-1.0986328125,-2.0751953125
45178,-0.0037841796875,-0.138916015625,0.8660888671875,5.249022960662842,-1.03759765625,-2.13623046875
45195,-0.00732421875,-0.1429443359375,0.8446044921875,5.249022960662842,-0.6103515625,-2.13623046875
45216,-0.010986328125,-0.140380859375,0.8443603515625,4.94384765625,-0.1831054538488388,-2.0751953125
45232,-0.013916015625,-0.140380859375,0.855224609375,4.7607421875,-0.0610351525247097,-1.9531248807907104
45249,-0.0146484375,-0.1356201171875,0.8592529296875,4.0283203125,0.1831054538488388,-1.8920897245407104
45282,-0.013427734375,-0.1357421875,0.84619140625,2.44140625,0.7324218153953552,-1.6479490995407104
45299,-0.010498046875,-0.1326904296875,0.8609619140625,1.220703125,1.2817381620407104,-1.4648436307907104
45332,-0.0152587890625,-0.1268310546875,0.8907470703125,-0.7324218153953552,2.01416015625,-1.03759765625
45352,-0.0157470703125,-0.13134765625,0.9012451171875,-1.7700194120407104,1.8920897245407104,-0.8544921278953552
45374,-0.0135498046875,-0.132080078125,0.8868408203125,-2.44140625,2.0751953125,-0.8544921278953552
45390,-0.001708984375,-0.132568359375,0.9151611328125,-3.906249761581421,2.868652105331421,-0.7324218153953552
45404,0.001220703125,-0.12841796875,0.9375,-5.249022960662842,3.051757574081421,-0.6713866591453552
45453,0.0076904296875,-0.0950927734375,0.9222412109375,-8.23974609375,2.01416015625,-0.4272460639476776
45476,0.01513671875,-0.081787109375,0.8896484375,-9.82666015625,2.13623046875,-0.0610351525247097
45488,0.019775390625,-0.0848388671875,0.89599609375,-10.681151390075684,2.25830078125,0.1831054538488388
45521,0.0177001953125,-0.081298828125,0.9737548828125,-12.329100608825684,2.746581792831421,0.4272460639476776
45538,0.0185546875,-0.0728759765625,1.02294921875,-11.962889671325684,2.38037109375,0.2441406100988388
45555,0.014404296875,-0.05810546875,1.037841796875,-10.864256858825684,0.7934569716453552,0.30517578125
45571,0.0047607421875,-0.046875,0.9271240234375,-10.192870140075684,0.6103515625,0.4882812201976776
45592,0.001708984375,-0.0543212890625,0.8724365234375,-10.253905296325684,1.8310545682907104,0.4882812201976776
45611,-0.000732421875,-0.0555419921875,0.8909912109375,-10.498045921325684,2.38037109375,0.4882812201976776
45628,0.001220703125,-0.0509033203125,0.932861328125,-10.253905296325684,3.356933355331421,0.2441406100988388
45647,0.0157470703125,-0.02099609375,1.025634765625,-9.09423828125,2.929687261581421,0.1831054538488388
45664,0.0269775390625,-0.0076904296875,1.0399169921875,-7.263183116912842,1.7700194120407104,0.3662109076976776
45680,0.0206298828125,-0.0179443359375,0.969970703125,-6.530761241912842,1.4648436307907104,0.4882812201976776
45697,0.0172119140625,-0.02783203125,0.9483642578125,-5.432128429412842,1.7089842557907104,0.6103515625
45714,0.014892578125,-0.0379638671875,0.947265625,-4.94384765625,2.13623046875,0.4882812201976776
45735,0.0146484375,-0.034423828125,0.9537353515625,-4.69970703125,2.25830078125,0.3662109076976776
45751,0.0174560546875,-0.01806640625,0.9757080078125,-3.784179449081421,2.44140625,0.4272460639476776
45814,0.0216064453125,-0.0203857421875,1.031982421875,1.6479490995407104,2.25830078125,0.6103515625
45832,0.02392578125,-0.0142822265625,1.0404052734375,3.112792730331421,2.13623046875,0.6713866591453552
45848,0.0244140625,-0.014892578125,1.0450439453125,3.906249761581421,2.25830078125,0.8544921278953552
45880,0.02685546875,-0.0296630859375,1.106689453125,6.286620616912842,1.8920897245407104,1.03759765625
45902,0.0255126953125,-0.05029296875,1.0938720703125,7.446288585662842,1.15966796875,0.9155272841453552
45918,0.02099609375,-0.052001953125,1.0313720703125,8.056640625,1.3427733182907104,0.7934569716453552
45935,0.0252685546875,-0.04931640625,1.021240234375,8.056640625,1.7700194120407104,0.8544921278953552
45952,0.0294189453125,-0.0521240234375,1.044677734375,8.056640625,2.624511480331421,0.9765624403953552
45968,0.04052734375,-0.0479736328125,1.1348876953125,8.48388671875,2.624511480331421,0.9155272841453552
45999,0.037109375,-0.0535888671875,1.1878662109375,10.192870140075684,1.15966796875,0.8544921278953552
46015,0.0330810546875,-0.05419921875,1.162353515625,10.925292015075684,0.4272460639476776,0.9155272841453552
46032,0.0284423828125,-0.06005859375,1.12646484375,10.986327171325684,0.30517578125,1.03759765625
46053,0.0247802734375,-0.072509765625,1.0814208984375,10.314940452575684,0.9765624403953552,1.0986328125
46071,0.0308837890625,-0.08349609375,1.1214599609375,9.58251953125,1.7700194120407104,1.15966796875
46087,0.042724609375,-0.08642578125,1.2158203125,9.27734375,1.7089842557907104,1.0986328125
46118,0.0350341796875,-0.08642578125,1.1871337890625,8.97216796875,-0.30517578125,1.03759765625
46134,0.029296875,-0.0826416015625,1.131591796875,8.23974609375,-0.1831054538488388,1.2817381620407104
46151,0.0289306640625,-0.08935546875,1.1163330078125,7.690429210662842,0.0610351525247097,1.4038084745407104
46183,0.04296875,-0.0986328125,1.1793212890625,5.676269054412842,0.3662109076976776,1.4038084745407104
46200,0.0443115234375,-0.1007080078125,1.19873046875,5.493163585662842,0.0,1.4038084745407104
46221,0.03759765625,-0.1072998046875,1.172119140625,5.126952648162842,-0.7934569716453552,1.3427733182907104
46237,0.0306396484375,-0.1129150390625,1.1099853515625,4.638671875,-0.7324218153953552,1.2817381620407104
46249,0.0283203125,-0.114013671875,1.1182861328125,3.601073980331421,-0.0610351525247097,1.4038084745407104
46298,0.0328369140625,-0.116943359375,1.1414794921875,1.15966796875,-0.7324218153953552,1.4648436307907104
46315,0.026611328125,-0.1121826171875,1.0888671875,0.3662109076976776,-0.54931640625,1.5869139432907104
46334,0.0223388671875,-0.11376953125,1.0614013671875,-0.1831054538488388,-0.1831054538488388,1.5869139432907104
46350,0.019775390625,-0.1136474609375,1.0631103515625,-1.4038084745407104,0.9155272841453552,1.7089842557907104
46368,0.02197265625,-0.1136474609375,1.0904541015625,-2.3193359375,0.8544921278953552,1.7089842557907104
46385,0.0203857421875,-0.100341796875,1.06640625,-2.685546636581421,0.6713866591453552,1.7089842557907104
46418,0.016845703125,-0.0960693359375,1.0269775390625,-3.479003667831421,1.4648436307907104,1.7700194120407104
46435,0.01904296875,-0.099365234375,1.046142578125,-3.479003667831421,1.8920897245407104,1.7089842557907104
46451,0.022216796875,-0.099609375,1.0655517578125,-3.479003667831421,1.9531248807907104,1.7089842557907104
46483,0.0255126953125,-0.0841064453125,1.0482177734375,-2.746581792831421,1.5258787870407104,1.5258787870407104
46499,0.0269775390625,-0.0843505859375,1.0513916015625,-2.01416015625,1.7089842557907104,1.5869139432907104
46515,0.029296875,-0.0831298828125,1.05029296875,-1.3427733182907104,1.5869139432907104,1.5869139432907104
46532,0.0296630859375,-0.0859375,1.04541015625,-1.0986328125,1.7700194120407104,1.5258787870407104
46552,0.0367431640625,-0.0775146484375,1.0792236328125,-0.1831054538488388,1.8920897245407104,1.3427733182907104
46564,0.0364990234375,-0.07421875,1.085693359375,0.30517578125,1.4648436307907104,1.220703125
46580,0.0341796875,-0.0689697265625,1.070068359375,1.2817381620407104,0.8544921278953552,1.15966796875
46597,0.1165771484375,-0.1824951171875,1.96484375,1.7700194120407104,-4.57763671875,0.6713866591453552
46662,0.0076904296875,-0.0528564453125,0.930908203125,-0.7934569716453552,-6.835937023162842,0.0610351525247097
46684,0.0081787109375,-0.0504150390625,0.9742431640625,-0.1831054538488388,-8.11767578125,0.1220703050494194
46700,0.02099609375,-0.0703125,0.9896240234375,2.990722417831421,-8.48388671875,0.0
46717,0.13427734375,-0.1697998046875,1.3984375,6.469726085662842,-9.765625,-0.30517578125
46733,0.1109619140625,-0.1365966796875,1.23095703125,8.11767578125,-15.136717796325684,-1.0986328125
46750,-0.1058349609375,-0.0281982421875,0.397216796875,7.568358898162842,-3.601073980331421,0.1831054538488388
46781,0.016845703125,-0.183349609375,1.425537109375,5.737304210662842,-1.2817381620407104,0.0
46802,0.0145263671875,-0.0960693359375,0.62646484375,4.94384765625,-2.13623046875,-0.7324218153953552
46818,0.007568359375,-0.08740234375,1.2735595703125,4.82177734375,0.3662109076976776,-0.4882812201976776
46835,-0.003173828125,-0.121337890625,1.275146484375,4.45556640625,-1.15966796875,0.4272460639476776
46852,0.0206298828125,-0.05126953125,0.8294677734375,4.7607421875,-1.2817381620407104,0.0
46868,0.002197265625,-0.130126953125,1.1258544921875,5.065917491912842,-0.7934569716453552,0.4272460639476776
46902,0.0081787109375,-0.1246337890625,0.9844970703125,3.540038824081421,-1.220703125,0.0610351525247097
46919,0.0111083984375,-0.1158447265625,1.03271484375,2.685546636581421,-0.7324218153953552,0.1220703050494194
46938,0.00390625,-0.1201171875,1.0087890625,2.25830078125,-0.6713866591453552,0.1831054538488388
46954,0.0047607421875,-0.1214599609375,1.0277099609375,1.3427733182907104,-0.4882812201976776,0.30517578125
46971,0.0028076171875,-0.127197265625,1.0101318359375,0.4882812201976776,-0.30517578125,0.1831054538488388
46988,0.00830078125,-0.111083984375,1.0260009765625,0.1220703050494194,-0.2441406100988388,0.1220703050494194
47021,0.006103515625,-0.097900390625,1.0216064453125,0.3662109076976776,-0.4882812201976776,0.1831054538488388
47038,0.0040283203125,-0.1085205078125,1.0128173828125,0.6713866591453552,-0.4272460639476776,0.3662109076976776
47054,0.0054931640625,-0.111328125,1.0072021484375,0.54931640625,-0.3662109076976776,0.30517578125
47071,0.0089111328125,-0.11767578125,1.0347900390625,0.2441406100988388,-0.3662109076976776,0.2441406100988388
47094,0.00830078125,-0.107666015625,1.0069580078125,0.0610351525247097,-0.2441406100988388,0.1831054538488388
47111,0.006591796875,-0.112060546875,1.0289306640625,-0.1220703050494194,-0.4272460639476776,0.2441406100988388
47128,0.0048828125,-0.1153564453125,1.015625,-0.30517578125,-0.4882812201976776,0.30517578125
47148,0.00244140625,-0.124755859375,1.0147705078125,-1.4648436307907104,-0.0610351525247097,0.30517578125
47165,0.005615234375,-0.1240234375,1.022216796875,-2.01416015625,-0.0610351525247097,0.3662109076976776
47182,0.01025390625,-0.1207275390625,1.0264892578125,-3.112792730331421,-0.0610351525247097,0.2441406100988388
47198,0.005859375,-0.111328125,1.013916015625,-3.479003667831421,-0.0610351525247097,0.2441406100988388
47215,0.0030517578125,-0.110595703125,1.0169677734375,-4.0283203125,-0.1220703050494194,0.30517578125
47286,0.0064697265625,-0.104248046875,1.0230712890625,-6.042479991912842,0.4882812201976776,0.4882812201976776
47330,0.0087890625,-0.08349609375,1.0230712890625,-6.469726085662842,0.7324218153953552,0.3662109076976776
47341,0.0089111328125,-0.0806884765625,1.0225830078125,-6.164550304412842,0.4882812201976776,0.4272460639476776
47375,0.01025390625,-0.080078125,1.0235595703125,-5.371093273162842,0.1220703050494194,0.4882812201976776
47394,0.0084228515625,-0.0831298828125,1.02392578125,-4.94384765625,0.3662109076976776,0.4882812201976776
47410,0.008544921875,-0.0771484375,1.0189208984375,-4.69970703125,0.4882812201976776,0.3662109076976776
47442,0.0113525390625,-0.0721435546875,1.023681640625,-4.08935546875,0.1831054538488388,0.3662109076976776
47459,0.009765625,-0.0732421875,1.0234375,-3.662109136581421,0.1220703050494194,0.4272460639476776
47475,0.008544921875,-0.0738525390625,1.0224609375,-3.479003667831421,0.0610351525247097,0.3662109076976776
47492,0.008544921875,-0.0726318359375,1.019287109375,-3.234863042831421,0.0610351525247097,0.3662109076976776
47511,0.0126953125,-0.0689697265625,1.0264892578125,-2.868652105331421,0.30517578125,0.30517578125
47528,0.01416015625,-0.0621337890625,1.02392578125,-2.01416015625,0.1831054538488388,0.30517578125
47559,0.0101318359375,-0.062744140625,1.0242919921875,-0.8544921278953552,-0.1220703050494194,0.3662109076976776
47581,0.01123046875,-0.06494140625,1.0269775390625,-0.4882812201976776,-0.1831054538488388,0.3662109076976776
47597,0.0120849609375,-0.06640625,1.0238037109375,0.0,-0.1831054538488388,0.2441406100988388
47611,0.0118408203125,-0.0672607421875,1.0228271484375,0.3662109076976776,-0.2441406100988388,0.30517578125
47631,0.01171875,-0.0703125,1.02099609375,0.4882812201976776,-0.3662109076976776,0.2441406100988388
47648,0.0091552734375,-0.0706787109375,1.0260009765625,0.8544921278953552,-0.1831054538488388,0.1831054538488388
47679,0.0111083984375,-0.0640869140625,1.0250244140625,1.4648436307907104,-0.2441406100988388,0.1831054538488388
47701,0.0125732421875,-0.0645751953125,1.0264892578125,1.7700194120407104,-0.3662109076976776,0.2441406100988388
47717,0.011962890625,-0.070556640625,1.02197265625,2.25830078125,-0.4882812201976776,0.2441406100988388
47734,0.0108642578125,-0.0704345703125,1.022705078125,2.563476324081421,-0.6103515625,0.1220703050494194
47753,0.010986328125,-0.072998046875,1.0235595703125,2.685546636581421,-0.6103515625,0.1831054538488388
47770,0.0106201171875,-0.06787109375,1.02197265625,3.234863042831421,-0.4882812201976776,0.1831054538488388
47803,0.0106201171875,-0.065185546875,1.023681640625,4.0283203125,-0.6103515625,0.1220703050494194
47820,0.010986328125,-0.073486328125,1.021240234375,4.5166015625,-0.7324218153953552,0.1831054538488388
47836,0.010498046875,-0.076171875,1.0234375,4.69970703125,-0.7324218153953552,0.1831054538488388
47848,0.0076904296875,-0.0802001953125,1.0234375,4.7607421875,-0.6713866591453552,0.1831054538488388
47868,0.00732421875,-0.0811767578125,1.0203857421875,4.69970703125,-0.54931640625,0.1220703050494194
47885,0.010009765625,-0.0810546875,1.0260009765625,4.8828125,-0.6103515625,0.1220703050494194
47902,0.01025390625,-0.07958984375,1.02197265625,5.065917491912842,-0.6713866591453552,0.1220703050494194
47919,0.008544921875,-0.084716796875,1.0203857421875,5.187987804412842,-0.7324218153953552,0.1220703050494194
47938,0.0067138671875,-0.087890625,1.0213623046875,5.249022960662842,-0.7324218153953552,0.1220703050494194
47955,0.006591796875,-0.0914306640625,1.022216796875,5.065917491912842,-0.6713866591453552,0.1220703050494194
47972,0.0091552734375,-0.094970703125,1.0244140625,4.8828125,-0.6713866591453552,0.1220703050494194
47989,0.0074462890625,-0.0958251953125,1.020263671875,4.5166015625,-0.6713866591453552,0.1220703050494194
48005,0.00537109375,-0.0943603515625,1.021484375,4.21142578125,-0.6103515625,0.1831054538488388
48037,0.0069580078125,-0.0987548828125,1.0205078125,3.723144292831421,-0.54931640625,0.0610351525247097
48060,0.0087890625,-0.0960693359375,1.0205078125,3.479003667831421,-0.6103515625,0.0610351525247097
48076,0.0068359375,-0.0987548828125,1.0233154296875,3.234863042831421,-0.54931640625,0.0610351525247097
48093,0.007080078125,-0.09765625,1.019775390625,3.112792730331421,-0.4882812201976776,0.0610351525247097
48160,0.00634765625,-0.0982666015625,1.02197265625,1.8920897245407104,-0.2441406100988388,0.1831054538488388
48175,0.0057373046875,-0.09814453125,1.0211181640625,1.8920897245407104,-0.30517578125,0.1831054538488388
48195,0.0067138671875,-0.0994873046875,1.0234375,1.7700194120407104,-0.30517578125,0.30517578125
48211,0.0072021484375,-0.1014404296875,1.021240234375,1.7089842557907104,-0.30517578125,0.2441406100988388
48230,0.007080078125,-0.10009765625,1.02099609375,1.5258787870407104,-0.30517578125,0.1831054538488388
48247,0.0067138671875,-0.0994873046875,1.0211181640625,1.4038084745407104,-0.30517578125,0.1831054538488388
48279,0.0069580078125,-0.0997314453125,1.0194091796875,1.220703125,-0.1831054538488388,0.2441406100988388
48295,0.007568359375,-0.098876953125,1.0223388671875,1.2817381620407104,-0.2441406100988388,0.1220703050494194
48312,0.00634765625,-0.0965576171875,1.023193359375,1.4038084745407104,-0.2441406100988388,0.1220703050494194
48333,0.0069580078125,-0.0947265625,1.0223388671875,1.5869139432907104,-0.2441406100988388,0.1220703050494194
48352,0.008056640625,-0.0916748046875,1.020751953125,2.01416015625,-0.2441406100988388,0.1220703050494194
48367,0.0059814453125,-0.0859375,1.022216796875,2.868652105331421,-0.1831054538488388,0.1220703050494194
48400,0.011474609375,-0.088134765625,1.0181884765625,4.45556640625,-0.30517578125,0.30517578125
48417,0.008544921875,-0.0931396484375,1.0211181640625,5.249022960662842,-0.3662109076976776,0.2441406100988388
48434,0.00390625,-0.1044921875,1.024169921875,5.554198741912842,-0.4882812201976776,0.30517578125
48450,0.007568359375,-0.1116943359375,1.01806640625,5.554198741912842,-0.4882812201976776,0.1831054538488388
48468,0.007080078125,-0.1104736328125,1.0186767578125,5.493163585662842,-0.4882812201976776,0.1220703050494194
48490,0.005859375,-0.107177734375,1.02099609375,5.554198741912842,-0.4272460639476776,0.1220703050494194
48506,0.0067138671875,-0.1031494140625,1.0230712890625,5.615233898162842,-0.30517578125,0.30517578125
48527,0.006103515625,-0.11865234375,1.0211181640625,5.249022960662842,-0.30517578125,0.2441406100988388
48544,0.0068359375,-0.1300048828125,1.01611328125,4.8828125,-0.2441406100988388,0.30517578125
48560,0.006103515625,-0.1309814453125,1.0198974609375,3.784179449081421,-0.1220703050494194,0.30517578125
48577,0.0045166015625,-0.1295166015625,1.01708984375,2.685546636581421,-0.1220703050494194,0.30517578125
48594,0.0015869140625,-0.12646484375,1.0125732421875,1.8920897245407104,0.0,0.30517578125
48610,0.0076904296875,-0.1256103515625,1.0223388671875,1.4648436307907104,0.1831054538488388,0.30517578125
48648,0.0069580078125,-0.1219482421875,1.0196533203125,0.1220703050494194,0.4882812201976776,0.3662109076976776
48663,0.0048828125,-0.1187744140625,1.0194091796875,-0.1220703050494194,0.4272460639476776,0.3662109076976776
48680,0.004638671875,-0.1171875,1.0196533203125,-0.30517578125,0.3662109076976776,0.30517578125
48697,0.0069580078125,-0.1104736328125,1.019287109375,-0.1831054538488388,0.1831054538488388,0.1831054538488388
48713,0.010498046875,-0.1077880859375,1.01806640625,0.0610351525247097,0.1220703050494194,0.1831054538488388
48730,0.0115966796875,-0.106201171875,1.020751953125,0.7324218153953552,0.30517578125,0.2441406100988388
48764,0.0040283203125,-0.086181640625,1.0189208984375,3.234863042831421,1.5258787870407104,0.2441406100988388
48780,0.00537109375,-0.079345703125,1.0245361328125,4.21142578125,1.7089842557907104,0.3662109076976776
48797,0.0084228515625,-0.0849609375,1.0440673828125,6.408690929412842,1.5869139432907104,0.4882812201976776
48812,0.0113525390625,-0.0919189453125,1.043212890625,7.446288585662842,1.8310545682907104,0.54931640625
48832,0.028564453125,-0.1190185546875,1.1712646484375,8.9111328125,2.44140625,0.6103515625
48880,0.034912109375,-0.1480712890625,1.359619140625,12.573241233825684,-1.8310545682907104,0.2441406100988388
48902,0.036376953125,-0.1861572265625,1.41748046875,14.709471702575684,-2.25830078125,0.0610351525247097
48918,0.03662109375,-0.22998046875,1.51171875,16.29638671875,-4.69970703125,-0.54931640625
48930,0.0205078125,-0.2130126953125,1.41943359375,16.78466796875,-5.981444835662842,-1.15966796875
48950,0.0126953125,-0.1885986328125,1.3604736328125,17.51708984375,-6.835937023162842,-1.6479490995407104
48967,0.0035400390625,-0.158203125,1.2894287109375,17.39501953125,-6.408690929412842,-1.5869139432907104
49000,-0.0050048828125,-0.1539306640625,1.23486328125,15.808104515075684,-5.920409679412842,-0.9765624403953552
49020,-0.0106201171875,-0.1573486328125,1.2095947265625,14.770506858825684,-4.45556640625,-0.54931640625
49036,-0.0054931640625,-0.172607421875,1.2691650390625,14.282225608825684,-3.845214605331421,-0.3662109076976776
49048,-0.00439453125,-0.205322265625,1.3157958984375,13.366698265075684,-3.356933355331421,-0.2441406100988388
49068,-0.0057373046875,-0.205322265625,1.3070068359375,12.329100608825684,-3.540038824081421,-0.4882812201976776
49085,-0.011962890625,-0.197265625,1.2752685546875,11.535643577575684,-2.990722417831421,-0.6103515625
49102,-0.0113525390625,-0.1893310546875,1.27783203125,11.169432640075684,-2.746581792831421,-0.6713866591453552
49118,-0.0084228515625,-0.1807861328125,1.283203125,10.437010765075684,-2.563476324081421,-0.4272460639476776
49139,-0.0057373046875,-0.181884765625,1.27197265625,9.3994140625,-2.563476324081421,-0.1831054538488388
49155,-0.01220703125,-0.197265625,1.223388671875,8.72802734375,-2.44140625,-0.1220703050494194
49171,-0.014404296875,-0.1932373046875,1.2088623046875,6.958007335662842,-1.4038084745407104,-0.1220703050494194
49191,-0.017822265625,-0.193359375,1.2176513671875,5.310058116912842,-0.6103515625,0.2441406100988388
49208,-0.017822265625,-0.19580078125,1.2176513671875,3.723144292831421,-0.1220703050494194,0.3662109076976776
49240,-0.01025390625,-0.2056884765625,1.1722412109375,1.0986328125,0.7934569716453552,0.6103515625
49261,-0.0079345703125,-0.2095947265625,1.142578125,-1.0986328125,1.3427733182907104,0.9155272841453552
49277,-0.0067138671875,-0.2060546875,1.1158447265625,-2.13623046875,1.6479490995407104,0.9765624403953552
49294,-0.0054931640625,-0.2093505859375,1.113525390625,-4.5166015625,2.44140625,1.220703125
49313,-0.0052490234375,-0.2049560546875,1.1051025390625,-6.896972179412842,2.624511480331421,1.3427733182907104
49330,-0.0086669921875,-0.2012939453125,1.068603515625,-8.9111328125,2.685546636581421,1.5869139432907104
49363,-0.0025634765625,-0.1881103515625,1.00439453125,-11.474608421325684,3.356933355331421,1.6479490995407104
49380,-0.00146484375,-0.176025390625,0.9793701171875,-12.817381858825684,3.356933355331421,1.7700194120407104
49396,-0.004638671875,-0.17529296875,0.9110107421875,-13.488768577575684,3.234863042831421,1.8920897245407104
49411,-0.0067138671875,-0.1597900390625,0.862060546875,-14.953612327575684,3.295898199081421,1.8310545682907104
49431,-0.0072021484375,-0.1551513671875,0.8038330078125,-16.11328125,3.601073980331421,2.01416015625
49447,-0.00732421875,-0.1412353515625,0.753662109375,-17.08984375,3.967284917831421,1.9531248807907104
49480,0.0,-0.12451171875,0.6993408203125,-17.7001953125,3.662109136581421,2.0751953125
49501,0.004150390625,-0.1162109375,0.6593017578125,-17.822265625,3.662109136581421,1.9531248807907104
49517,0.0087890625,-0.0975341796875,0.638671875,-17.63916015625,3.601073980331421,1.9531248807907104
49534,0.0087890625,-0.09423828125,0.6336669921875,-16.9677734375,3.417968511581421,2.0751953125
49552,0.002685546875,-0.085205078125,0.605712890625,-16.05224609375,2.868652105331421,2.25830078125
49569,-0.004150390625,-0.095947265625,0.565673828125,-14.953612327575684,2.807616949081421,2.13623046875
49602,-0.0035400390625,-0.1014404296875,0.5545654296875,-13.305663108825684,2.868652105331421,1.9531248807907104
49619,-0.005859375,-0.1009521484375,0.548583984375,-12.023924827575684,2.685546636581421,1.8920897245407104
49640,-0.0126953125,-0.103759765625,0.5443115234375,-10.498045921325684,2.990722417831421,1.7700194120407104
49660,-0.016357421875,-0.1092529296875,0.5859375,-8.6669921875,3.356933355331421,1.5869139432907104
49675,-0.0142822265625,-0.1046142578125,0.6424560546875,-7.507323741912842,3.417968511581421,1.4648436307907104
49691,-0.010009765625,-0.1046142578125,0.6817626953125,-4.638671875,3.295898199081421,1.2817381620407104
49728,0.0074462890625,-0.0928955078125,0.8082275390625,2.990722417831421,2.01416015625,0.7934569716453552
49745,0.0189208984375,-0.0869140625,0.890380859375,5.126952648162842,1.8310545682907104,0.7324218153953552
49761,0.0228271484375,-0.088623046875,0.92626953125,9.3994140625,0.9155272841453552,0.6103515625
49778,0.022705078125,-0.0926513671875,0.9752197265625,13.732909202575684,-0.1220703050494194,0.4272460639476776
49801,0.023681640625,-0.1004638671875,1.0333251953125,18.1884765625,-0.9765624403953552,0.2441406100988388
49817,0.02099609375,-0.1123046875,1.07080078125,20.324705123901367,-1.6479490995407104,0.2441406100988388
49834,0.0179443359375,-0.1185302734375,1.068603515625,24.047849655151367,-3.051757574081421,0.0
49853,0.0135498046875,-0.129638671875,1.0443115234375,26.855466842651367,-3.784179449081421,-0.1831054538488388
49870,0.010498046875,-0.13916015625,1.029296875,28.747556686401367,-3.967284917831421,-0.4272460639476776
49903,0.0125732421875,-0.1517333984375,1.02783203125,30.151365280151367,-4.7607421875,-0.6713866591453552
49920,0.0091552734375,-0.163330078125,1.0076904296875,30.395505905151367,-4.94384765625,-0.7934569716453552
49941,0.012451171875,-0.17138671875,1.0091552734375,29.968259811401367,-5.310058116912842,-0.9765624403953552
49957,0.0096435546875,-0.183837890625,1.005126953125,29.602048873901367,-5.493163585662842,-1.03759765625
49969,0.0084228515625,-0.1898193359375,1.001708984375,28.503416061401367,-5.676269054412842,-1.03759765625
49985,0.00732421875,-0.203857421875,0.998779296875,27.770994186401367,-5.615233898162842,-1.03759765625
50019,0.00341796875,-0.2213134765625,1.0032958984375,23.986814498901367,-5.920409679412842,-1.4038084745407104
50036,-0.00048828125,-0.2276611328125,0.9945068359375,22.888181686401367,-5.798339366912842,-1.4648436307907104
50057,-0.0023193359375,-0.233154296875,0.9971923828125,20.507810592651367,-5.432128429412842,-1.4648436307907104
50073,-0.0020751953125,-0.24169921875,1.022705078125,18.12744140625,-5.126952648162842,-1.5258787870407104
50087,-0.0037841796875,-0.253173828125,1.0323486328125,15.563963890075684,-5.126952648162842,-1.5869139432907104
50104,-0.0054931640625,-0.256103515625,1.0245361328125,14.160155296325684,-5.126952648162842,-1.7089842557907104
50135,-0.0089111328125,-0.2642822265625,0.9903564453125,10.009765625,-4.33349609375,-1.7089842557907104
50200,-0.006103515625,-0.2646484375,0.9564208984375,0.1831054538488388,-2.746581792831421,-1.7089842557907104
50222,-0.009765625,-0.2606201171875,0.9420166015625,-2.44140625,-2.0751953125,-1.7700194120407104
50238,-0.0101318359375,-0.256103515625,0.93115234375,-3.723144292831421,-1.7700194120407104,-1.7089842557907104
50255,-0.0087890625,-0.25341796875,0.9256591796875,-6.225585460662842,-1.15966796875,-1.5869139432907104
50272,-0.0057373046875,-0.2501220703125,0.9234619140625,-8.30078125,-0.4272460639476776,-1.4648436307907104
50288,-0.00341796875,-0.2491455078125,0.94384765625,-9.09423828125,-0.0610351525247097,-1.4038084745407104
50320,-0.0037841796875,-0.253173828125,0.9674072265625,-10.681151390075684,0.30517578125,-1.3427733182907104
50337,-0.00830078125,-0.2513427734375,0.9468994140625,-10.681151390075684,0.30517578125,-1.4038084745407104
50358,-0.0093994140625,-0.2506103515625,0.9334716796875,-10.375975608825684,0.4882812201976776,-1.4648436307907104
50374,-0.01123046875,-0.24755859375,0.8946533203125,-9.82666015625,0.54931640625,-1.4038084745407104
50391,-0.0137939453125,-0.2459716796875,0.866455078125,-9.46044921875,0.7934569716453552,-1.4648436307907104
50408,-0.0125732421875,-0.2464599609375,0.8604736328125,-8.85009765625,1.3427733182907104,-1.5869139432907104
50441,-0.008544921875,-0.2344970703125,0.854248046875,-7.141112804412842,1.2817381620407104,-1.7700194120407104
50458,-0.007080078125,-0.2264404296875,0.83203125,-6.164550304412842,1.2817381620407104,-1.7700194120407104
50475,-0.0067138671875,-0.2298583984375,0.830078125,-5.676269054412842,1.4648436307907104,-1.7700194120407104
50496,-0.0045166015625,-0.2303466796875,0.8485107421875,-4.57763671875,1.6479490995407104,-1.8920897245407104
50513,-0.001708984375,-0.2265625,0.8804931640625,-3.051757574081421,1.5869139432907104,-2.01416015625
50530,0.0010986328125,-0.2158203125,0.89013671875,-2.197265625,1.3427733182907104,-2.0751953125
50567,-0.0001220703125,-0.2010498046875,0.802001953125,0.6713866591453552,0.8544921278953552,-2.25830078125
