tMillis,ax,ay,az,gx,gy,gz
393932,0.009521484375,-0.35205078125,0.962646484375,0.7934569716453552,-0.1831054538488388,0.30517578125
393954,0.0091552734375,-0.3521728515625,0.9617919921875,0.7934569716453552,-0.1831054538488388,0.3662109076976776
393970,0.0091552734375,-0.352294921875,0.9615478515625,0.7324218153953552,-0.2441406100988388,0.30517578125
393987,0.0106201171875,-0.352783203125,0.9609375,0.7324218153953552,-0.2441406100988388,0.30517578125
394004,0.0107421875,-0.35205078125,0.9610595703125,0.7324218153953552,-0.1831054538488388,0.30517578125
394020,0.0107421875,-0.3525390625,0.9619140625,0.7934569716453552,-0.1831054538488388,0.30517578125
394039,0.009765625,-0.351806640625,0.961181640625,0.7934569716453552,-0.30517578125,0.30517578125
394058,0.0096435546875,-0.3515625,0.960693359375,0.8544921278953552,-0.30517578125,0.30517578125
394077,0.0096435546875,-0.352783203125,0.9619140625,0.7934569716453552,-0.2441406100988388,0.2441406100988388
394102,0.010498046875,-0.352294921875,0.962890625,0.7324218153953552,-0.2441406100988388,0.2441406100988388
394117,0.0096435546875,-0.3515625,0.9622802734375,0.7324218153953552,-0.2441406100988388,0.2441406100988388
394134,0.0103759765625,-0.3524169921875,0.962890625,0.7934569716453552,-0.2441406100988388,0.30517578125
394153,0.01123046875,-0.352783203125,0.9617919921875,0.7324218153953552,-0.1831054538488388,0.30517578125
394171,0.009521484375,-0.3525390625,0.9613037109375,0.7324218153953552,-0.1831054538488388,0.2441406100988388
394190,0.009765625,-0.352294921875,0.9619140625,0.7934569716453552,-0.1831054538488388,0.3662109076976776
394208,0.0093994140625,-0.3531494140625,0.9615478515625,0.7324218153953552,-0.2441406100988388,0.3662109076976776
394227,0.01025390625,-0.3525390625,0.96240234375,0.7324218153953552,-0.1831054538488388,0.30517578125
394252,0.0103759765625,-0.3516845703125,0.9615478515625,0.7934569716453552,-0.1831054538488388,0.2441406100988388
394268,0.0106201171875,-0.351806640625,0.9622802734375,0.7934569716453552,-0.1831054538488388,0.30517578125
394285,0.0103759765625,-0.35205078125,0.96240234375,0.7934569716453552,-0.1831054538488388,0.30517578125
394302,0.009765625,-0.352294921875,0.9609375,0.7324218153953552,-0.2441406100988388,0.3662109076976776
394320,0.010498046875,-0.3526611328125,0.9617919921875,0.7324218153953552,-0.2441406100988388,0.30517578125
394338,0.0107421875,-0.353271484375,0.961669921875,0.7324218153953552,-0.2441406100988388,0.30517578125
394356,0.0093994140625,-0.352783203125,0.9615478515625,0.7934569716453552,-0.1220703050494194,0.30517578125
394380,0.01025390625,-0.3529052734375,0.960693359375,0.7324218153953552,-0.1220703050494194,0.30517578125
394396,0.0107421875,-0.3514404296875,0.9598388671875,0.7324218153953552,-0.1831054538488388,0.30517578125
394413,0.010986328125,-0.3515625,0.9610595703125,0.7934569716453552,-0.1831054538488388,0.30517578125
394432,0.009765625,-0.3525390625,0.96142578125,0.7934569716453552,-0.1831054538488388,0.3662109076976776
394451,0.009765625,-0.352294921875,0.9619140625,0.7934569716453552,-0.1831054538488388,0.3662109076976776
394470,0.0096435546875,-0.352783203125,0.96240234375,0.7324218153953552,-0.1831054538488388,0.30517578125
394489,0.0101318359375,-0.353515625,0.9608154296875,0.6713866591453552,-0.1831054538488388,0.2441406100988388
394514,0.0103759765625,-0.352783203125,0.9610595703125,0.7324218153953552,-0.2441406100988388,0.30517578125
394530,0.0096435546875,-0.35302734375,0.9619140625,0.7324218153953552,-0.2441406100988388,0.30517578125
394542,0.009765625,-0.3529052734375,0.9603271484375,0.7324218153953552,-0.2441406100988388,0.30517578125
394561,0.0098876953125,-0.3531494140625,0.9615478515625,0.7324218153953552,-0.2441406100988388,0.30517578125
394580,0.01025390625,-0.352783203125,0.9630126953125,0.7934569716453552,-0.2441406100988388,0.2441406100988388
394597,0.0098876953125,-0.3525390625,0.9613037109375,0.7324218153953552,-0.2441406100988388,0.2441406100988388
394614,0.0096435546875,-0.3526611328125,0.960693359375,0.7324218153953552,-0.2441406100988388,0.30517578125
394635,0.010009765625,-0.3531494140625,0.959716796875,0.7324218153953552,-0.1831054538488388,0.30517578125
394654,0.010009765625,-0.352783203125,0.963134765625,0.7934569716453552,-0.1831054538488388,0.30517578125
394674,0.0107421875,-0.353271484375,0.9630126953125,0.7934569716453552,-0.1831054538488388,0.3662109076976776
394694,0.01025390625,-0.35400390625,0.9613037109375,0.7934569716453552,-0.1831054538488388,0.30517578125
394711,0.0107421875,-0.3536376953125,0.959228515625,0.7934569716453552,-0.2441406100988388,0.2441406100988388
394728,0.010986328125,-0.353271484375,0.96044921875,0.7934569716453552,-0.2441406100988388,0.30517578125
394749,0.010986328125,-0.3531494140625,0.9615478515625,0.7934569716453552,-0.2441406100988388,0.30517578125
394768,0.0108642578125,-0.352783203125,0.9617919921875,0.7324218153953552,-0.2441406100988388,0.2441406100988388
394784,0.009033203125,-0.3525390625,0.9609375,0.7324218153953552,-0.2441406100988388,0.30517578125
394804,0.0096435546875,-0.3533935546875,0.9617919921875,0.7934569716453552,-0.2441406100988388,0.3662109076976776
394825,0.0096435546875,-0.3526611328125,0.9620361328125,0.7934569716453552,-0.2441406100988388,0.30517578125
394842,0.0106201171875,-0.3533935546875,0.95947265625,0.7934569716453552,-0.2441406100988388,0.30517578125
394859,0.0106201171875,-0.3533935546875,0.9619140625,0.7934569716453552,-0.30517578125,0.30517578125
394878,0.01025390625,-0.3529052734375,0.962890625,0.7934569716453552,-0.2441406100988388,0.2441406100988388
394898,0.0101318359375,-0.353515625,0.9630126953125,0.7934569716453552,-0.1831054538488388,0.2441406100988388
394914,0.0101318359375,-0.3538818359375,0.962158203125,0.7324218153953552,-0.2441406100988388,0.30517578125
394935,0.0106201171875,-0.353271484375,0.9615478515625,0.7324218153953552,-0.2441406100988388,0.30517578125
394953,0.0096435546875,-0.3529052734375,0.9595947265625,0.7324218153953552,-0.1831054538488388,0.30517578125
394970,0.01123046875,-0.353271484375,0.9620361328125,0.7324218153953552,-0.2441406100988388,0.1831054538488388
394986,0.010986328125,-0.3536376953125,0.96142578125,0.7324218153953552,-0.2441406100988388,0.1831054538488388
395003,0.0091552734375,-0.3533935546875,0.960693359375,0.7324218153953552,-0.30517578125,0.30517578125
395023,0.008544921875,-0.353271484375,0.9620361328125,0.7934569716453552,-0.30517578125,0.30517578125
395040,0.0106201171875,-0.3538818359375,0.95947265625,0.7324218153953552,-0.30517578125,0.2441406100988388
395052,0.0107421875,-0.354248046875,0.9605712890625,0.7934569716453552,-0.2441406100988388,0.30517578125
395072,0.0098876953125,-0.3531494140625,0.961669921875,0.7934569716453552,-0.2441406100988388,0.30517578125
395090,0.0091552734375,-0.35302734375,0.9598388671875,0.7934569716453552,-0.1831054538488388,0.30517578125
395107,0.0096435546875,-0.3541259765625,0.9620361328125,0.8544921278953552,-0.1831054538488388,0.30517578125
395126,0.0098876953125,-0.3538818359375,0.960693359375,0.7934569716453552,-0.2441406100988388,0.3662109076976776
395144,0.0101318359375,-0.355712890625,0.9625244140625,0.7324218153953552,-0.1831054538488388,0.30517578125
395163,0.009765625,-0.3536376953125,0.960205078125,0.7324218153953552,-0.1831054538488388,0.3662109076976776
395179,0.010009765625,-0.3543701171875,0.960693359375,0.7324218153953552,-0.1831054538488388,0.2441406100988388
395196,0.0098876953125,-0.354248046875,0.96142578125,0.7324218153953552,-0.1831054538488388,0.2441406100988388
395234,0.00927734375,-0.354736328125,0.9630126953125,0.7324218153953552,-0.2441406100988388,0.30517578125
395249,0.010009765625,-0.35498046875,0.96142578125,0.7324218153953552,-0.2441406100988388,0.30517578125
395266,0.0103759765625,-0.35400390625,0.95947265625,0.7934569716453552,-0.1831054538488388,0.30517578125
395283,0.010498046875,-0.3541259765625,0.9622802734375,0.7934569716453552,-0.1831054538488388,0.30517578125
395302,0.009765625,-0.3536376953125,0.960693359375,0.7324218153953552,-0.1831054538488388,0.30517578125
395318,0.00927734375,-0.3529052734375,0.9593505859375,0.6713866591453552,-0.1831054538488388,0.3662109076976776
395349,0.0103759765625,-0.3546142578125,0.962158203125,0.7324218153953552,-0.1831054538488388,0.2441406100988388
395370,0.010009765625,-0.354736328125,0.9627685546875,0.7324218153953552,-0.1831054538488388,0.30517578125
395386,0.0096435546875,-0.354248046875,0.963134765625,0.7324218153953552,-0.1831054538488388,0.2441406100988388
395403,0.00927734375,-0.354248046875,0.959228515625,0.7324218153953552,-0.1831054538488388,0.2441406100988388
395422,0.009521484375,-0.353515625,0.958251953125,0.7324218153953552,-0.1831054538488388,0.30517578125
395439,0.0098876953125,-0.354736328125,0.9620361328125,0.7324218153953552,-0.1220703050494194,0.30517578125
395468,0.01025390625,-0.3538818359375,0.9605712890625,0.7324218153953552,-0.2441406100988388,0.30517578125
395484,0.0096435546875,-0.353515625,0.9603271484375,0.7324218153953552,-0.2441406100988388,0.3662109076976776
395501,0.0093994140625,-0.3541259765625,0.960693359375,0.6713866591453552,-0.1831054538488388,0.30517578125
395522,0.010498046875,-0.3541259765625,0.9608154296875,0.6103515625,-0.1220703050494194,0.30517578125
395541,0.010009765625,-0.354248046875,0.9609375,0.7324218153953552,-0.1220703050494194,0.30517578125
395557,0.0096435546875,-0.3548583984375,0.9617919921875,0.7324218153953552,-0.2441406100988388,0.3662109076976776
395590,0.01123046875,-0.3541259765625,0.9638671875,0.7324218153953552,-0.1831054538488388,0.3662109076976776
395606,0.0111083984375,-0.3544921875,0.9627685546875,0.7934569716453552,-0.2441406100988388,0.30517578125
395657,0.010986328125,-0.3541259765625,0.96142578125,0.7324218153953552,-0.1831054538488388,0.2441406100988388
395679,0.01123046875,-0.3558349609375,0.963134765625,0.7324218153953552,-0.1220703050494194,0.30517578125
395695,0.0108642578125,-0.35400390625,0.96142578125,0.7934569716453552,-0.1831054538488388,0.3662109076976776
395711,0.01025390625,-0.3551025390625,0.962890625,0.7934569716453552,-0.1831054538488388,0.3662109076976776
395727,0.0103759765625,-0.355224609375,0.9619140625,0.7324218153953552,-0.1831054538488388,0.3662109076976776
395744,0.0103759765625,-0.3546142578125,0.9615478515625,0.7324218153953552,-0.2441406100988388,0.30517578125
395761,0.0098876953125,-0.353759765625,0.9610595703125,0.8544921278953552,-0.2441406100988388,0.30517578125
395781,0.0101318359375,-0.3538818359375,0.961669921875,0.7934569716453552,-0.1831054538488388,0.30517578125
395803,0.01025390625,-0.3533935546875,0.9622802734375,0.7324218153953552,-0.1831054538488388,0.2441406100988388
395819,0.0106201171875,-0.3538818359375,0.9600830078125,0.7934569716453552,-0.2441406100988388,0.30517578125
395838,0.010009765625,-0.3546142578125,0.9600830078125,0.7934569716453552,-0.1831054538488388,0.30517578125
395855,0.01025390625,-0.3544921875,0.9581298828125,0.7934569716453552,-0.1831054538488388,0.2441406100988388
395888,0.0101318359375,-0.3551025390625,0.961181640625,0.8544921278953552,-0.1831054538488388,0.30517578125
395904,0.010498046875,-0.35546875,0.95849609375,0.7934569716453552,-0.1831054538488388,0.30517578125
395956,0.0093994140625,-0.3541259765625,0.9599609375,0.7324218153953552,-0.1831054538488388,0.30517578125
395972,0.009521484375,-0.355224609375,0.9608154296875,0.7324218153953552,-0.1831054538488388,0.30517578125
395989,0.010009765625,-0.35595703125,0.9625244140625,0.7934569716453552,-0.2441406100988388,0.30517578125
396006,0.0103759765625,-0.3553466796875,0.963623046875,0.7934569716453552,-0.2441406100988388,0.30517578125
396022,0.0103759765625,-0.3544921875,0.9591064453125,0.7324218153953552,-0.2441406100988388,0.30517578125
396038,0.0101318359375,-0.353759765625,0.95751953125,0.7934569716453552,-0.30517578125,0.30517578125
396071,0.01025390625,-0.355712890625,0.962646484375,0.7934569716453552,-0.2441406100988388,0.2441406100988388
396123,0.0108642578125,-0.3555908203125,0.9605712890625,0.7324218153953552,-0.1831054538488388,0.3662109076976776
396156,0.009765625,-0.3546142578125,0.9599609375,0.7934569716453552,-0.2441406100988388,0.3662109076976776
396205,0.0101318359375,-0.3555908203125,0.962158203125,0.7934569716453552,-0.30517578125,0.3662109076976776
396222,0.01025390625,-0.35595703125,0.96142578125,0.7324218153953552,-0.1831054538488388,0.2441406100988388
396239,0.009765625,-0.35498046875,0.9599609375,0.6713866591453552,-0.1831054538488388,0.2441406100988388
396259,0.0107421875,-0.3543701171875,0.9605712890625,0.7324218153953552,-0.2441406100988388,0.2441406100988388
396276,0.010498046875,-0.3563232421875,0.9603271484375,0.7324218153953552,-0.1831054538488388,0.30517578125
396309,0.010498046875,-0.355712890625,0.9610595703125,0.6713866591453552,-0.1831054538488388,0.3662109076976776
396331,0.0106201171875,-0.3551025390625,0.961181640625,0.7324218153953552,-0.1831054538488388,0.3662109076976776
396347,0.0103759765625,-0.3543701171875,0.9593505859375,0.7324218153953552,-0.1831054538488388,0.30517578125
396364,0.009765625,-0.35595703125,0.959716796875,0.7324218153953552,-0.1831054538488388,0.30517578125
396381,0.009033203125,-0.355712890625,0.9600830078125,0.6713866591453552,-0.2441406100988388,0.30517578125
396397,0.0103759765625,-0.3543701171875,0.9615478515625,0.7324218153953552,-0.2441406100988388,0.30517578125
396428,0.0101318359375,-0.355224609375,0.9599609375,0.6713866591453552,-0.1831054538488388,0.30517578125
396450,0.0098876953125,-0.35498046875,0.960205078125,0.6713866591453552,-0.1831054538488388,0.3662109076976776
396466,0.0093994140625,-0.3544921875,0.96044921875,0.6713866591453552,-0.1831054538488388,0.30517578125
396483,0.010498046875,-0.35546875,0.96044921875,0.7324218153953552,-0.1831054538488388,0.30517578125
396501,0.0101318359375,-0.3558349609375,0.9603271484375,0.7324218153953552,-0.1831054538488388,0.3662109076976776
396518,0.0098876953125,-0.35498046875,0.9610595703125,0.7324218153953552,-0.1831054538488388,0.3662109076976776
396548,0.010498046875,-0.3541259765625,0.9608154296875,0.7324218153953552,-0.2441406100988388,0.30517578125
396570,0.0111083984375,-0.354736328125,0.959716796875,0.6713866591453552,-0.1831054538488388,0.30517578125
396586,0.01025390625,-0.35498046875,0.9608154296875,0.6713866591453552,-0.2441406100988388,0.2441406100988388
396603,0.0093994140625,-0.355224609375,0.96142578125,0.6713866591453552,-0.2441406100988388,0.30517578125
396621,0.0089111328125,-0.3560791015625,0.9613037109375,0.6713866591453552,-0.1831054538488388,0.2441406100988388
396638,0.010009765625,-0.355224609375,0.9595947265625,0.6103515625,-0.1831054538488388,0.30517578125
396670,0.0096435546875,-0.355224609375,0.9622802734375,0.6713866591453552,-0.1831054538488388,0.2441406100988388
396686,0.00927734375,-0.3558349609375,0.9610595703125,0.6103515625,-0.2441406100988388,0.30517578125
396706,0.00927734375,-0.3558349609375,0.9595947265625,0.6713866591453552,-0.2441406100988388,0.30517578125
396722,0.00927734375,-0.3548583984375,0.9583740234375,0.7324218153953552,-0.2441406100988388,0.3662109076976776
396784,0.009521484375,-0.3558349609375,0.9605712890625,0.6103515625,-0.2441406100988388,0.3662109076976776
396878,0.0098876953125,-0.355712890625,0.959716796875,0.6713866591453552,-0.1220703050494194,0.2441406100988388
396923,0.0096435546875,-0.3548583984375,0.961181640625,0.7324218153953552,-0.2441406100988388,0.30517578125
396935,0.00927734375,-0.3563232421875,0.961669921875,0.7324218153953552,-0.1831054538488388,0.30517578125
396965,0.009521484375,-0.3543701171875,0.958251953125,0.6713866591453552,-0.1831054538488388,0.30517578125
396985,0.009765625,-0.355224609375,0.9615478515625,0.7324218153953552,-0.2441406100988388,0.30517578125
397001,0.0093994140625,-0.35498046875,0.9619140625,0.6713866591453552,-0.2441406100988388,0.3662109076976776
397037,0.010498046875,-0.35546875,0.9580078125,0.6713866591453552,-0.2441406100988388,0.30517578125
397052,0.0106201171875,-0.3555908203125,0.9600830078125,0.7324218153953552,-0.2441406100988388,0.3662109076976776
397069,0.01123046875,-0.3553466796875,0.960693359375,0.7324218153953552,-0.2441406100988388,0.3662109076976776
397085,0.0101318359375,-0.3538818359375,0.9600830078125,0.6713866591453552,-0.2441406100988388,0.30517578125
397102,0.009521484375,-0.354248046875,0.960205078125,0.7934569716453552,-0.30517578125,0.2441406100988388
397119,0.0098876953125,-0.354736328125,0.9599609375,0.7324218153953552,-0.2441406100988388,0.2441406100988388
397157,0.009521484375,-0.354736328125,0.96044921875,0.6713866591453552,-0.2441406100988388,0.30517578125
397173,0.010009765625,-0.3543701171875,0.95947265625,0.7324218153953552,-0.2441406100988388,0.30517578125
397185,0.0096435546875,-0.355224609375,0.958740234375,0.7324218153953552,-0.2441406100988388,0.30517578125
397202,0.01025390625,-0.3555908203125,0.960693359375,0.7324218153953552,-0.1831054538488388,0.30517578125
397220,0.010009765625,-0.35498046875,0.9599609375,0.7324218153953552,-0.1220703050494194,0.30517578125
397236,0.0086669921875,-0.35595703125,0.9620361328125,0.7324218153953552,-0.2441406100988388,0.3662109076976776
397269,0.011474609375,-0.3565673828125,0.9635009765625,0.7324218153953552,-0.1831054538488388,0.30517578125
397290,0.0101318359375,-0.3525390625,0.9508056640625,0.7934569716453552,-0.1831054538488388,0.30517578125
397306,0.0089111328125,-0.35546875,0.959716796875,0.7934569716453552,-0.1220703050494194,0.30517578125
397318,0.010009765625,-0.3563232421875,0.9625244140625,0.7324218153953552,-0.1831054538488388,0.2441406100988388
397339,0.0111083984375,-0.35546875,0.9630126953125,0.7324218153953552,-0.1831054538488388,0.2441406100988388
397355,0.010009765625,-0.35498046875,0.9586181640625,0.6713866591453552,-0.1831054538488388,0.30517578125
397372,0.0101318359375,-0.3544921875,0.9560546875,0.7324218153953552,-0.1220703050494194,0.30517578125
397386,0.0101318359375,-0.3568115234375,0.9635009765625,0.7324218153953552,-0.1220703050494194,0.30517578125
397450,0.009765625,-0.3558349609375,0.9613037109375,0.7324218153953552,-0.1220703050494194,0.2441406100988388
397517,0.010498046875,-0.3551025390625,0.9566650390625,0.7324218153953552,-0.2441406100988388,0.30517578125
397533,0.0106201171875,-0.354736328125,0.955810546875,0.7324218153953552,-0.1831054538488388,0.30517578125
397566,0.0111083984375,-0.3582763671875,0.9654541015625,0.8544921278953552,-0.2441406100988388,0.2441406100988388
397599,0.0096435546875,-0.3541259765625,0.9554443359375,0.7934569716453552,-0.2441406100988388,0.2441406100988388
397645,0.009765625,-0.3548583984375,0.9591064453125,0.7934569716453552,-0.2441406100988388,0.2441406100988388
397661,0.0087890625,-0.3570556640625,0.9578857421875,0.7934569716453552,-0.30517578125,0.30517578125
397678,0.0106201171875,-0.3555908203125,0.9576416015625,0.7934569716453552,-0.30517578125,0.2441406100988388
397698,0.0091552734375,-0.3565673828125,0.9603271484375,0.7934569716453552,-0.1831054538488388,0.2441406100988388
397715,0.00927734375,-0.3558349609375,0.959228515625,0.7934569716453552,-0.2441406100988388,0.2441406100988388
397731,0.0111083984375,-0.355712890625,0.9588623046875,0.8544921278953552,-0.2441406100988388,0.30517578125
397748,0.010009765625,-0.3583984375,0.9676513671875,0.7934569716453552,-0.2441406100988388,0.30517578125
397765,0.009033203125,-0.355712890625,0.960693359375,0.7324218153953552,-0.1831054538488388,0.30517578125
397780,0.0098876953125,-0.35546875,0.9569091796875,0.7934569716453552,-0.1220703050494194,0.30517578125
397797,0.010498046875,-0.35595703125,0.9593505859375,0.8544921278953552,-0.2441406100988388,0.30517578125
397865,0.009765625,-0.3558349609375,0.958740234375,0.7324218153953552,-0.1831054538488388,0.30517578125
398000,0.009521484375,-0.356689453125,0.9556884765625,0.7324218153953552,-0.2441406100988388,0.3662109076976776
398012,0.009521484375,-0.359130859375,0.963623046875,0.6713866591453552,-0.1831054538488388,0.2441406100988388
398044,0.010009765625,-0.3572998046875,0.9595947265625,0.6713866591453552,-0.1831054538488388,0.2441406100988388
398063,0.010498046875,-0.3541259765625,0.9547119140625,0.6713866591453552,-0.1831054538488388,0.30517578125
398079,0.010986328125,-0.3563232421875,0.96142578125,0.6713866591453552,-0.2441406100988388,0.30517578125
398115,0.009033203125,-0.357421875,0.962158203125,0.7324218153953552,-0.2441406100988388,0.30517578125
398127,0.0103759765625,-0.3560791015625,0.9566650390625,0.7324218153953552,-0.2441406100988388,0.3662109076976776
398143,0.0103759765625,-0.3570556640625,0.957275390625,0.6713866591453552,-0.1831054538488388,0.2441406100988388
398160,0.0096435546875,-0.3582763671875,0.9635009765625,0.7324218153953552,-0.1831054538488388,0.3662109076976776
398179,0.009521484375,-0.357177734375,0.958984375,0.7324218153953552,-0.2441406100988388,0.3662109076976776
398196,0.0098876953125,-0.357666015625,0.9583740234375,0.6713866591453552,-0.2441406100988388,0.3662109076976776
398217,0.0103759765625,-0.3568115234375,0.957763671875,0.6713866591453552,-0.1831054538488388,0.30517578125
398236,0.0098876953125,-0.357421875,0.9595947265625,0.6713866591453552,-0.1220703050494194,0.2441406100988388
398252,0.00927734375,-0.3575439453125,0.961181640625,0.6713866591453552,-0.1831054538488388,0.2441406100988388
398285,0.009765625,-0.3565673828125,0.9581298828125,0.6713866591453552,-0.2441406100988388,0.30517578125
398351,0.0093994140625,-0.3580322265625,0.9605712890625,0.6103515625,-0.1831054538488388,0.30517578125
398373,0.01025390625,-0.3565673828125,0.959228515625,0.6713866591453552,-0.1831054538488388,0.2441406100988388
398389,0.0101318359375,-0.357421875,0.960205078125,0.7934569716453552,-0.2441406100988388,0.2441406100988388
398406,0.0096435546875,-0.3570556640625,0.960205078125,0.7324218153953552,-0.30517578125,0.30517578125
398422,0.0096435546875,-0.3560791015625,0.96044921875,0.6713866591453552,-0.2441406100988388,0.30517578125
398439,0.009521484375,-0.3563232421875,0.9595947265625,0.6713866591453552,-0.1831054538488388,0.2441406100988388
398469,0.010498046875,-0.357666015625,0.9605712890625,0.7324218153953552,-0.30517578125,0.30517578125
398490,0.0091552734375,-0.35693359375,0.9603271484375,0.7324218153953552,-0.30517578125,0.30517578125
398507,0.009033203125,-0.356201171875,0.9600830078125,0.7324218153953552,-0.2441406100988388,0.30517578125
398523,0.009765625,-0.356689453125,0.9608154296875,0.7324218153953552,-0.2441406100988388,0.3662109076976776
398543,0.010009765625,-0.3568115234375,0.960205078125,0.7324218153953552,-0.1831054538488388,0.30517578125
398588,0.011474609375,-0.3475341796875,0.960693359375,1.5258787870407104,-0.1831054538488388,0.2441406100988388
398657,0.006103515625,-0.349853515625,0.955322265625,3.601073980331421,0.9765624403953552,0.6713866591453552
398721,-0.0201416015625,-0.38232421875,1.1134033203125,7.568358898162842,6.286620616912842,2.624511480331421
398738,-0.004150390625,-0.47216796875,1.3038330078125,8.48388671875,4.69970703125,1.6479490995407104
398771,-0.0250244140625,-0.506103515625,1.628173828125,9.6435546875,0.9155272841453552,0.2441406100988388
398788,-0.0343017578125,-0.5711669921875,1.6148681640625,11.962889671325684,0.0,0.6103515625
398805,-0.0238037109375,-0.5726318359375,1.567138671875,10.742186546325684,-0.1831054538488388,-0.1831054538488388
398821,-0.0081787109375,-0.5919189453125,1.4659423828125,9.21630859375,-0.54931640625,-0.7324218153953552
398841,0.0050048828125,-0.512939453125,1.3714599609375,6.103515148162842,0.30517578125,-0.2441406100988388
398863,0.01123046875,-0.5150146484375,1.3443603515625,5.126952648162842,0.9155272841453552,-0.0610351525247097
398879,0.0281982421875,-0.517333984375,1.39013671875,2.13623046875,1.7700194120407104,0.4882812201976776
398898,0.0306396484375,-0.564697265625,1.456298828125,0.0610351525247097,1.4038084745407104,0.2441406100988388
398915,0.0242919921875,-0.580322265625,1.43310546875,-0.9155272841453552,0.9155272841453552,0.1220703050494194
398948,0.0325927734375,-0.5604248046875,1.4119873046875,-3.601073980331421,1.15966796875,-0.30517578125
398965,0.0457763671875,-0.5419921875,1.4031982421875,-5.0048828125,0.9155272841453552,-0.6713866591453552
398981,0.0499267578125,-0.5101318359375,1.3353271484375,-5.249022960662842,0.7324218153953552,-0.6713866591453552
399001,0.04833984375,-0.4818115234375,1.3204345703125,-6.286620616912842,1.220703125,-0.6713866591453552
399021,0.043701171875,-0.498291015625,1.31982421875,-6.103515148162842,1.15966796875,-0.54931640625
399043,0.043701171875,-0.4912109375,1.306640625,-6.225585460662842,0.30517578125,-0.9155272841453552
399059,0.04296875,-0.4749755859375,1.2342529296875,-5.798339366912842,-0.6713866591453552,-1.4038084745407104
399077,0.04248046875,-0.435791015625,1.136474609375,-6.103515148162842,-1.220703125,-1.6479490995407104
399094,0.0406494140625,-0.4014892578125,1.0382080078125,-6.225585460662842,-1.5869139432907104,-1.8310545682907104
399127,0.0296630859375,-0.3511962890625,0.873291015625,-7.141112804412842,-2.929687261581421,-2.38037109375
399144,0.02880859375,-0.3043212890625,0.78466796875,-7.324218273162842,-3.540038824081421,-2.685546636581421
399161,0.0279541015625,-0.2904052734375,0.741455078125,-7.690429210662842,-3.845214605331421,-2.746581792831421
399180,0.0283203125,-0.25146484375,0.6689453125,-7.873534679412842,-4.7607421875,-2.929687261581421
399201,0.0220947265625,-0.2237548828125,0.5728759765625,-8.056640625,-5.249022960662842,-3.112792730331421
399213,0.016357421875,-0.1861572265625,0.491455078125,-8.36181640625,-5.737304210662842,-3.295898199081421
399246,0.0125732421875,-0.1461181640625,0.385498046875,-8.6669921875,-5.737304210662842,-3.112792730331421
399263,0.006591796875,-0.127685546875,0.3201904296875,-8.6669921875,-5.310058116912842,-2.990722417831421
399279,0.004638671875,-0.122314453125,0.3031005859375,-8.72802734375,-5.065917491912842,-2.868652105331421
399312,0.0003662109375,-0.1246337890625,0.2750244140625,-8.97216796875,-4.21142578125,-2.624511480331421
399332,-0.0003662109375,-0.13671875,0.272705078125,-9.09423828125,-3.662109136581421,-2.44140625
399348,0.000732421875,-0.1448974609375,0.3006591796875,-9.033203125,-3.173827886581421,-2.197265625
399365,-0.0028076171875,-0.1595458984375,0.326171875,-8.97216796875,-3.051757574081421,-2.0751953125
399382,-0.0052490234375,-0.1668701171875,0.33984375,-8.9111328125,-2.624511480331421,-1.8920897245407104
399398,-0.007568359375,-0.201416015625,0.404296875,-8.72802734375,-1.6479490995407104,-1.7089842557907104
399428,-0.005859375,-0.239501953125,0.6016845703125,-8.11767578125,-0.4272460639476776,-1.6479490995407104
399445,0.003662109375,-0.2620849609375,0.798828125,-6.835937023162842,-0.54931640625,-1.5869139432907104
399461,0.00927734375,-0.27587890625,0.884765625,-5.920409679412842,-0.9155272841453552,-1.4038084745407104
399478,0.02001953125,-0.309326171875,1.0150146484375,-3.723144292831421,-1.6479490995407104,-1.4038084745407104
399499,0.0211181640625,-0.3265380859375,1.0877685546875,-1.6479490995407104,-2.44140625,-1.4038084745407104
399515,0.0174560546875,-0.3343505859375,1.1063232421875,-0.6103515625,-2.990722417831421,-1.4038084745407104
399532,0.0133056640625,-0.3424072265625,1.08203125,0.7934569716453552,-3.601073980331421,-1.2817381620407104
399549,0.0081787109375,-0.3480224609375,1.0230712890625,1.5869139432907104,-3.662109136581421,-1.2817381620407104
399566,0.0025634765625,-0.3480224609375,0.97021484375,1.5869139432907104,-3.540038824081421,-1.3427733182907104
399603,-0.006591796875,-0.3162841796875,0.8563232421875,1.03759765625,-2.563476324081421,-1.2817381620407104
399622,-0.008544921875,-0.3023681640625,0.8558349609375,0.54931640625,-1.8920897245407104,-1.03759765625
399639,-0.0135498046875,-0.3057861328125,0.8602294921875,0.3662109076976776,-1.5869139432907104,-0.9155272841453552
399672,-0.0159912109375,-0.3033447265625,0.875732421875,0.2441406100988388,-0.6103515625,-0.9155272841453552
399689,-0.016357421875,-0.295654296875,0.9073486328125,0.54931640625,0.0,-0.6713866591453552
399705,-0.013671875,-0.306396484375,0.9578857421875,1.0986328125,0.1220703050494194,-0.54931640625
399722,-0.0152587890625,-0.3115234375,0.9691162109375,1.4648436307907104,0.1831054538488388,-0.54931640625
399745,-0.018798828125,-0.31591796875,0.9925537109375,2.25830078125,0.6103515625,-0.54931640625
399778,-0.01611328125,-0.32421875,0.9957275390625,3.601073980331421,0.6103515625,-0.2441406100988388
399798,-0.0155029296875,-0.3294677734375,0.975341796875,4.150390625,0.9155272841453552,-0.1220703050494194
399815,-0.0189208984375,-0.325927734375,0.9505615234375,4.57763671875,1.5869139432907104,0.1220703050494194
399832,-0.01904296875,-0.3260498046875,0.946533203125,4.69970703125,1.8310545682907104,0.1831054538488388
399848,-0.0155029296875,-0.3248291015625,0.9427490234375,4.69970703125,2.13623046875,0.4272460639476776
399870,-0.011962890625,-0.3212890625,0.926513671875,4.57763671875,2.44140625,0.7324218153953552
399886,-0.0106201171875,-0.3228759765625,0.91943359375,4.39453125,2.563476324081421,0.8544921278953552
399903,-0.010498046875,-0.325927734375,0.91796875,3.906249761581421,2.929687261581421,1.03759765625
399922,-0.0087890625,-0.326416015625,0.927978515625,3.417968511581421,3.173827886581421,1.15966796875
399939,-0.0089111328125,-0.317626953125,0.9334716796875,3.173827886581421,3.295898199081421,1.2817381620407104
399972,-0.0048828125,-0.31982421875,0.9801025390625,3.234863042831421,3.234863042831421,1.5258787870407104
399989,-0.0030517578125,-0.320556640625,0.9945068359375,3.356933355331421,2.685546636581421,1.5258787870407104
400026,-0.0008544921875,-0.326171875,0.990478515625,3.601073980331421,2.50244140625,1.6479490995407104
400043,0.0001220703125,-0.32958984375,0.9984130859375,3.784179449081421,2.13623046875,1.7089842557907104
400059,0.00146484375,-0.330810546875,0.99560546875,3.845214605331421,1.7700194120407104,1.6479490995407104
400093,-0.0006103515625,-0.3291015625,0.947265625,3.784179449081421,1.03759765625,1.6479490995407104
400108,0.000732421875,-0.3297119140625,0.945556640625,3.662109136581421,0.9765624403953552,1.5869139432907104
400128,-0.0008544921875,-0.3236083984375,0.9305419921875,3.601073980331421,0.7324218153953552,1.5869139432907104
400144,-0.00244140625,-0.320556640625,0.915771484375,3.356933355331421,0.4882812201976776,1.5869139432907104
400161,-0.0030517578125,-0.317138671875,0.90087890625,2.990722417831421,0.54931640625,1.5258787870407104
400178,-0.00146484375,-0.3194580078125,0.906494140625,2.868652105331421,0.4882812201976776,1.5869139432907104
400211,-0.0001220703125,-0.3212890625,0.9029541015625,1.8310545682907104,-0.0610351525247097,1.4648436307907104
400228,0.0006103515625,-0.3218994140625,0.8958740234375,1.2817381620407104,-0.0610351525247097,1.4038084745407104
400244,0.0015869140625,-0.3226318359375,0.8994140625,1.03759765625,-0.0610351525247097,1.4038084745407104
400260,0.0025634765625,-0.324951171875,0.9071044921875,0.54931640625,-0.1831054538488388,1.4038084745407104
400278,0.001708984375,-0.3275146484375,0.906005859375,0.0,-0.30517578125,1.4038084745407104
400300,0.004638671875,-0.3280029296875,0.91259765625,-0.30517578125,-0.4272460639476776,1.3427733182907104
400316,0.0042724609375,-0.3255615234375,0.9012451171875,-1.03759765625,-0.7934569716453552,1.220703125
400330,0.0040283203125,-0.323974609375,0.900634765625,-1.8920897245407104,-0.7324218153953552,1.3427733182907104
400380,-0.0030517578125,-0.3238525390625,0.8905029296875,-4.150390625,-1.2817381620407104,1.15966796875
400401,-0.00390625,-0.310791015625,0.855224609375,-5.371093273162842,-1.03759765625,1.220703125
400417,-0.0015869140625,-0.309814453125,0.851318359375,-6.591796398162842,-0.4272460639476776,1.4648436307907104
400454,0.001220703125,-0.3218994140625,0.910400390625,-8.36181640625,-0.1831054538488388,1.5258787870407104
400470,0.0015869140625,-0.31494140625,0.9251708984375,-8.6669921875,-0.30517578125,1.4648436307907104
400487,0.001220703125,-0.299560546875,0.9051513671875,-9.09423828125,-0.6713866591453552,1.4648436307907104
400504,-0.0001220703125,-0.2900390625,0.879638671875,-9.46044921875,-0.4882812201976776,1.5869139432907104
400523,0.0035400390625,-0.2904052734375,0.884521484375,-10.131834983825684,0.1220703050494194,1.8920897245407104
400539,0.0052490234375,-0.29736328125,0.92333984375,-10.498045921325684,0.3662109076976776,1.9531248807907104
400569,0.0079345703125,-0.30078125,0.96240234375,-10.375975608825684,-0.30517578125,1.7700194120407104
400588,0.0078125,-0.294921875,0.9510498046875,-10.253905296325684,-0.6713866591453552,1.7089842557907104
400604,0.00634765625,-0.27880859375,0.8880615234375,-10.375975608825684,-0.6103515625,1.7700194120407104
400616,0.00634765625,-0.274658203125,0.862548828125,-10.559081077575684,-0.2441406100988388,1.8920897245407104
400635,0.007568359375,-0.2823486328125,0.8819580078125,-10.925292015075684,0.6713866591453552,2.13623046875
400652,0.0106201171875,-0.298095703125,0.9652099609375,-10.864256858825684,0.3662109076976776,2.01416015625
400685,0.00927734375,-0.280517578125,0.96337890625,-10.009765625,-0.9155272841453552,1.3427733182907104
400708,0.008544921875,-0.255126953125,0.904052734375,-9.46044921875,-0.7324218153953552,1.4648436307907104
400724,0.0123291015625,-0.2503662109375,0.900146484375,-9.27734375,-0.2441406100988388,1.6479490995407104
400741,0.0135498046875,-0.263916015625,0.931396484375,-9.1552734375,-0.2441406100988388,1.6479490995407104
400760,0.0130615234375,-0.2698974609375,0.95751953125,-8.72802734375,-0.6103515625,1.4648436307907104
400777,0.0140380859375,-0.26025390625,0.9669189453125,-7.934569835662842,-0.9765624403953552,1.0986328125
400808,0.0146484375,-0.2562255859375,0.9837646484375,-5.493163585662842,-0.9155272841453552,0.8544921278953552
400830,0.014892578125,-0.2586669921875,1.001708984375,-4.69970703125,-0.9765624403953552,0.7934569716453552
400846,0.0118408203125,-0.2672119140625,1.0361328125,-3.173827886581421,-1.5258787870407104,0.3662109076976776
400863,0.01123046875,-0.2623291015625,1.016845703125,-1.7089842557907104,-2.25830078125,0.1220703050494194
400881,0.0093994140625,-0.2452392578125,0.9656982421875,-1.15966796875,-2.38037109375,0.0
400898,0.00439453125,-0.242431640625,0.9296875,0.1220703050494194,-1.7700194120407104,0.0
400928,0.001708984375,-0.2457275390625,0.931884765625,0.8544921278953552,-1.15966796875,0.0
400950,0.0045166015625,-0.24609375,0.94189453125,1.15966796875,-0.9765624403953552,-0.0610351525247097
400966,0.00537109375,-0.2437744140625,0.95458984375,1.8310545682907104,-0.9155272841453552,-0.1220703050494194
400983,-0.0020751953125,-0.24169921875,0.965576171875,2.624511480331421,-0.6103515625,-0.2441406100988388
401001,-0.0047607421875,-0.2435302734375,0.96484375,2.990722417831421,-0.4882812201976776,-0.1831054538488388
401018,-0.000244140625,-0.246826171875,0.9951171875,3.906249761581421,0.0,-0.30517578125
401049,0.0030517578125,-0.251708984375,1.004150390625,5.554198741912842,0.1220703050494194,-0.3662109076976776
401071,0.00048828125,-0.252197265625,1.0018310546875,5.859374523162842,0.2441406100988388,-0.3662109076976776
401087,-0.0010986328125,-0.2528076171875,1.0029296875,6.408690929412842,0.30517578125,-0.4882812201976776
401104,0.000244140625,-0.2503662109375,0.9927978515625,6.774901866912842,0.4882812201976776,-0.4272460639476776
401121,0.001953125,-0.2474365234375,0.989013671875,6.835937023162842,0.54931640625,-0.4882812201976776
401137,0.0015869140625,-0.24853515625,0.9888916015625,7.019042491912842,0.8544921278953552,-0.30517578125
401168,0.0,-0.2685546875,1.031005859375,7.202147960662842,1.03759765625,-0.1831054538488388
401190,0.0018310546875,-0.27197265625,1.0379638671875,7.446288585662842,0.8544921278953552,-0.3662109076976776
401207,0.0008544921875,-0.2662353515625,1.0169677734375,7.507323741912842,0.4272460639476776,-0.4882812201976776
401224,-0.00341796875,-0.260986328125,0.9742431640625,7.385253429412842,0.4272460639476776,-0.4272460639476776
401242,-0.0052490234375,-0.2647705078125,0.96240234375,7.019042491912842,0.9765624403953552,-0.30517578125
401257,-0.0087890625,-0.27783203125,0.977294921875,6.469726085662842,1.3427733182907104,-0.2441406100988388
401289,-0.006103515625,-0.288330078125,1.0303955078125,5.859374523162842,1.4648436307907104,-0.3662109076976776
401309,-0.0078125,-0.2904052734375,1.03466796875,5.859374523162842,1.220703125,-0.30517578125
401325,-0.01171875,-0.2916259765625,1.0343017578125,5.798339366912842,1.2817381620407104,-0.2441406100988388
401342,-0.0128173828125,-0.2906494140625,1.01904296875,5.737304210662842,1.2817381620407104,-0.2441406100988388
401361,-0.0123291015625,-0.2933349609375,1.0159912109375,5.432128429412842,1.5869139432907104,-0.1831054538488388
401377,-0.008056640625,-0.3013916015625,1.0289306640625,5.065917491912842,1.5869139432907104,-0.1831054538488388
401408,-0.0062255859375,-0.3004150390625,1.0133056640625,4.150390625,1.8310545682907104,-0.1220703050494194
401425,-0.0042724609375,-0.3050537109375,1.0234375,3.601073980331421,2.197265625,0.0610351525247097
401442,0.0029296875,-0.3175048828125,1.068603515625,3.295898199081421,2.197265625,0.0610351525247097
401459,0.0018310546875,-0.319580078125,1.0673828125,3.173827886581421,1.7700194120407104,0.0
401479,-0.0003662109375,-0.3192138671875,1.063232421875,2.990722417831421,1.5258787870407104,-0.1220703050494194
401496,-0.0003662109375,-0.31982421875,1.0556640625,2.990722417831421,1.4038084745407104,0.0610351525247097
401513,0.0050048828125,-0.3179931640625,1.0496826171875,2.624511480331421,1.4038084745407104,0.0610351525247097
401534,0.0064697265625,-0.3170166015625,1.0302734375,2.44140625,1.3427733182907104,0.0610351525247097
401550,0.0059814453125,-0.3165283203125,1.0257568359375,2.13623046875,1.4038084745407104,0.1220703050494194
401567,0.0054931640625,-0.3199462890625,1.02294921875,1.7089842557907104,1.4648436307907104,0.3662109076976776
401584,0.005615234375,-0.32177734375,1.0220947265625,1.5258787870407104,1.4648436307907104,0.3662109076976776
401602,0.0106201171875,-0.3323974609375,1.04052734375,1.03759765625,1.5258787870407104,0.4272460639476776
401618,0.014892578125,-0.33251953125,1.054931640625,0.7934569716453552,1.2817381620407104,0.30517578125
401648,0.0155029296875,-0.318359375,1.0447998046875,0.7324218153953552,0.8544921278953552,0.1831054538488388
401669,0.015869140625,-0.3189697265625,1.0382080078125,0.9155272841453552,0.6103515625,0.2441406100988388
401702,0.020263671875,-0.3236083984375,1.0220947265625,0.7934569716453552,0.4882812201976776,0.4272460639476776
401720,0.02294921875,-0.3236083984375,1.029541015625,0.4882812201976776,0.4272460639476776,0.4272460639476776
401737,0.025146484375,-0.3228759765625,1.0355224609375,0.4272460639476776,0.0,0.3662109076976776
401768,0.024658203125,-0.3173828125,1.0313720703125,0.2441406100988388,-0.30517578125,0.4272460639476776
401789,0.0267333984375,-0.31982421875,1.033935546875,0.0610351525247097,-0.3662109076976776,0.54931640625
401805,0.0257568359375,-0.318115234375,1.0364990234375,0.0,-0.54931640625,0.54931640625
401822,0.0198974609375,-0.3128662109375,1.0185546875,0.0610351525247097,-0.6713866591453552,0.6103515625
401841,0.0191650390625,-0.3092041015625,1.0103759765625,-0.1220703050494194,-0.54931640625,0.9155272841453552
401858,0.0166015625,-0.3089599609375,1.0050048828125,-0.1831054538488388,-0.2441406100988388,1.0986328125
401888,0.0213623046875,-0.3111572265625,1.03125,-0.0610351525247097,-0.1831054538488388,1.2817381620407104
401910,0.021484375,-0.3060302734375,1.0257568359375,0.1220703050494194,-0.4272460639476776,1.4648436307907104
401926,0.0186767578125,-0.298095703125,0.9976806640625,0.3662109076976776,-0.1831054538488388,1.7089842557907104
401943,0.017333984375,-0.29638671875,0.996826171875,0.4272460639476776,0.0610351525247097,1.8310545682907104
401962,0.0159912109375,-0.29931640625,0.9920654296875,0.3662109076976776,0.2441406100988388,2.0751953125
401979,0.0185546875,-0.2989501953125,0.9962158203125,0.3662109076976776,0.3662109076976776,2.25830078125
402010,0.0172119140625,-0.293212890625,0.9979248046875,0.7324218153953552,0.7324218153953552,2.563476324081421
402027,0.0174560546875,-0.294921875,1.0020751953125,0.9765624403953552,0.7934569716453552,2.807616949081421
402048,0.0185546875,-0.29833984375,1.0068359375,1.4038084745407104,0.9155272841453552,2.929687261581421
402064,0.0208740234375,-0.30078125,1.0087890625,1.5258787870407104,0.8544921278953552,2.990722417831421
402081,0.0206298828125,-0.2978515625,1.0006103515625,1.9531248807907104,0.8544921278953552,3.051757574081421
402098,0.02099609375,-0.3004150390625,1.0008544921875,2.197265625,0.8544921278953552,3.234863042831421
402127,0.0208740234375,-0.3056640625,1.0035400390625,2.685546636581421,1.03759765625,3.356933355331421
402144,0.0235595703125,-0.305908203125,1.0162353515625,2.990722417831421,0.7324218153953552,3.356933355331421
402161,0.0230712890625,-0.3026123046875,1.010498046875,3.234863042831421,0.6713866591453552,3.295898199081421
402182,0.024658203125,-0.304931640625,1.0159912109375,3.601073980331421,0.54931640625,3.417968511581421
402201,0.0244140625,-0.313232421875,1.01513671875,3.845214605331421,0.0610351525247097,3.295898199081421
402217,0.0263671875,-0.3138427734375,0.9989013671875,3.784179449081421,-0.1220703050494194,3.173827886581421
402250,0.0286865234375,-0.3148193359375,0.9903564453125,3.662109136581421,-0.4272460639476776,2.929687261581421
402267,0.0267333984375,-0.3192138671875,0.9942626953125,3.540038824081421,-0.4272460639476776,2.868652105331421
402319,0.027099609375,-0.3193359375,0.9951171875,3.479003667831421,-1.220703125,2.13623046875
402341,0.021240234375,-0.315673828125,0.978759765625,3.295898199081421,-1.15966796875,2.13623046875
402357,0.0186767578125,-0.3182373046875,0.976806640625,3.173827886581421,-1.15966796875,2.13623046875
402377,0.0177001953125,-0.3216552734375,0.96533203125,2.868652105331421,-1.0986328125,1.8920897245407104
402394,0.016845703125,-0.31201171875,0.94775390625,2.44140625,-1.03759765625,1.7089842557907104
402427,0.05224609375,-0.51611328125,1.5068359375,3.784179449081421,-3.479003667831421,0.30517578125
402444,0.043212890625,-0.3861083984375,1.1656494140625,2.0751953125,-7.690429210662842,-1.3427733182907104
402460,0.0098876953125,-0.2646484375,0.8341064453125,2.44140625,-7.263183116912842,-1.3427733182907104
402493,-0.0352783203125,-0.25927734375,0.728515625,-2.01416015625,-0.30517578125,0.6713866591453552
402514,-0.00537109375,-0.2581787109375,0.801513671875,-4.8828125,4.39453125,1.9531248807907104
402529,0.0372314453125,-0.4849853515625,1.318603515625,-1.0986328125,0.7324218153953552,0.2441406100988388
402546,0.0467529296875,-0.37548828125,1.0643310546875,-1.2817381620407104,-2.0751953125,-0.9765624403953552
402562,0.0245361328125,-0.240478515625,0.786376953125,-0.4882812201976776,-3.112792730331421,-1.7089842557907104
402579,0.006103515625,-0.2080078125,0.9049072265625,1.220703125,0.0610351525247097,0.4882812201976776
402613,0.036865234375,-0.3319091796875,1.0069580078125,0.3662109076976776,-1.8310545682907104,0.3662109076976776
402634,0.0045166015625,-0.3287353515625,0.8704833984375,0.0610351525247097,-0.6103515625,0.1831054538488388
402650,0.00341796875,-0.36181640625,1.0533447265625,-1.6479490995407104,-0.8544921278953552,-0.1831054538488388
402666,0.01904296875,-0.2757568359375,0.9141845703125,-2.01416015625,-0.9765624403953552,-0.30517578125
402682,0.021240234375,-0.2789306640625,0.9705810546875,-1.4038084745407104,-0.54931640625,0.2441406100988388
402699,0.020263671875,-0.314697265625,1.0006103515625,-1.4038084745407104,-0.7934569716453552,0.3662109076976776
402731,0.0087890625,-0.3438720703125,0.9737548828125,-2.44140625,-0.4882812201976776,0.30517578125
402752,0.015380859375,-0.3184814453125,0.97607421875,-3.417968511581421,-0.30517578125,0.2441406100988388
402769,0.017578125,-0.2989501953125,0.9765625,-3.601073980331421,-0.2441406100988388,0.30517578125
402786,0.0133056640625,-0.30126953125,0.986083984375,-3.601073980331421,-0.2441406100988388,0.4272460639476776
402853,0.017333984375,-0.2930908203125,0.9840087890625,-4.39453125,-0.1220703050494194,0.30517578125
402874,0.015625,-0.2850341796875,0.978515625,-3.723144292831421,-0.1220703050494194,0.4882812201976776
402907,0.0150146484375,-0.2967529296875,0.9716796875,-3.051757574081421,-0.1220703050494194,0.4882812201976776
402923,0.0159912109375,-0.297119140625,0.9757080078125,-2.990722417831421,-0.1220703050494194,0.4272460639476776
402940,0.0166015625,-0.2960205078125,0.9857177734375,-2.990722417831421,-0.1220703050494194,0.3662109076976776
402974,0.011474609375,-0.28857421875,0.982421875,-2.563476324081421,0.0610351525247097,0.4882812201976776
402995,0.015869140625,-0.291259765625,0.986572265625,-2.38037109375,-0.0610351525247097,0.4882812201976776
403011,0.0181884765625,-0.29150390625,0.9791259765625,-2.25830078125,-0.1831054538488388,0.3662109076976776
403025,0.0147705078125,-0.28759765625,0.987548828125,-2.13623046875,-0.1831054538488388,0.30517578125
403042,0.01318359375,-0.282958984375,0.9840087890625,-1.8310545682907104,-0.0610351525247097,0.3662109076976776
403059,0.015380859375,-0.2777099609375,0.984619140625,-1.2817381620407104,-0.0610351525247097,0.4272460639476776
403091,0.0169677734375,-0.283447265625,0.9822998046875,-0.6713866591453552,-0.1831054538488388,0.3662109076976776
403107,0.0155029296875,-0.285400390625,0.98779296875,-0.3662109076976776,-0.2441406100988388,0.30517578125
403123,0.014892578125,-0.28076171875,0.987060546875,-0.1220703050494194,-0.30517578125,0.30517578125
403140,0.015625,-0.2799072265625,0.980712890625,0.2441406100988388,-0.30517578125,0.3662109076976776
403163,0.015869140625,-0.283935546875,0.9876708984375,0.54931640625,-0.2441406100988388,0.3662109076976776
403180,0.0155029296875,-0.2869873046875,0.98193359375,0.6713866591453552,-0.2441406100988388,0.30517578125
403217,0.015625,-0.282470703125,0.983642578125,0.9155272841453552,-0.1220703050494194,0.2441406100988388
403234,0.01513671875,-0.2808837890625,0.9837646484375,1.2817381620407104,-0.1831054538488388,0.2441406100988388
403251,0.0142822265625,-0.282470703125,0.9869384765625,1.6479490995407104,-0.30517578125,0.2441406100988388
403268,0.014892578125,-0.283203125,0.9820556640625,2.01416015625,-0.3662109076976776,0.2441406100988388
403318,0.0135498046875,-0.2852783203125,0.981689453125,2.50244140625,-0.30517578125,0.2441406100988388
403338,0.0147705078125,-0.287841796875,0.980224609375,2.624511480331421,-0.30517578125,0.2441406100988388
403355,0.0162353515625,-0.2901611328125,0.9825439453125,2.746581792831421,-0.30517578125,0.2441406100988388
403372,0.0167236328125,-0.29248046875,0.9825439453125,2.685546636581421,-0.4272460639476776,0.1831054538488388
403389,0.0137939453125,-0.29345703125,0.981689453125,2.50244140625,-0.30517578125,0.1831054538488388
403409,0.0126953125,-0.2928466796875,0.9815673828125,2.44140625,-0.30517578125,0.1831054538488388
403425,0.014892578125,-0.2940673828125,0.981201171875,2.3193359375,-0.30517578125,0.1831054538488388
403442,0.014892578125,-0.29443359375,0.9810791015625,2.13623046875,-0.30517578125,0.1831054538488388
403509,0.0150146484375,-0.2977294921875,0.9830322265625,1.3427733182907104,-0.30517578125,0.2441406100988388
403526,0.01416015625,-0.297607421875,0.978759765625,1.15966796875,-0.2441406100988388,0.30517578125
403547,0.0142822265625,-0.2994384765625,0.978271484375,0.7934569716453552,-0.1220703050494194,0.30517578125
403563,0.015869140625,-0.3006591796875,0.9810791015625,0.4272460639476776,-0.1220703050494194,0.30517578125
403580,0.013671875,-0.299560546875,0.9810791015625,0.2441406100988388,-0.1220703050494194,0.3662109076976776
403628,0.0162353515625,-0.2999267578125,0.980224609375,-0.9765624403953552,-0.0610351525247097,0.4272460639476776
403645,0.0157470703125,-0.2996826171875,0.981689453125,-1.220703125,-0.1220703050494194,0.4272460639476776
403661,0.012939453125,-0.298583984375,0.98095703125,-1.6479490995407104,-0.1220703050494194,0.4272460639476776
403699,0.015380859375,-0.2930908203125,0.9794921875,-2.25830078125,0.1220703050494194,0.54931640625
403715,0.0162353515625,-0.2919921875,0.98193359375,-2.50244140625,0.1831054538488388,0.4272460639476776
403732,0.013916015625,-0.290771484375,0.983642578125,-2.563476324081421,0.1220703050494194,0.4882812201976776
403747,0.0147705078125,-0.285888671875,0.981689453125,-2.563476324081421,0.0610351525247097,0.4882812201976776
403763,0.015625,-0.2869873046875,0.9832763671875,-2.50244140625,0.0610351525247097,0.54931640625
403812,0.0155029296875,-0.2833251953125,0.9825439453125,-2.44140625,0.0610351525247097,0.4272460639476776
403829,0.0157470703125,-0.284423828125,0.9854736328125,-2.38037109375,0.1831054538488388,0.4882812201976776
403845,0.014892578125,-0.2840576171875,0.985595703125,-2.38037109375,0.1831054538488388,0.54931640625
403892,0.0169677734375,-0.279541015625,0.985107421875,-2.38037109375,0.0610351525247097,0.54931640625
403945,0.0186767578125,-0.27392578125,0.9886474609375,-2.0751953125,0.3662109076976776,0.54931640625
403962,0.018310546875,-0.2745361328125,0.9876708984375,-1.8920897245407104,0.3662109076976776,0.54931640625
403979,0.018310546875,-0.2735595703125,0.9840087890625,-1.5869139432907104,0.3662109076976776,0.6103515625
403998,0.017822265625,-0.275390625,0.985107421875,-1.3427733182907104,0.7324218153953552,0.6713866591453552
404014,0.016845703125,-0.2734375,0.9822998046875,-1.2817381620407104,1.15966796875,0.7324218153953552
404031,0.0159912109375,-0.2764892578125,1.0018310546875,-1.15966796875,1.7700194120407104,0.8544921278953552
404048,0.015380859375,-0.271484375,1.004638671875,-1.0986328125,1.9531248807907104,0.9155272841453552
404069,0.0152587890625,-0.2705078125,0.984130859375,-0.7324218153953552,2.0751953125,1.03759765625
404085,0.018798828125,-0.2930908203125,1.04150390625,0.1831054538488388,2.868652105331421,1.220703125
404102,0.0338134765625,-0.3486328125,1.2215576171875,0.7934569716453552,2.50244140625,1.0986328125
404121,0.0516357421875,-0.3662109375,1.337646484375,2.3193359375,1.5258787870407104,0.54931640625
404138,0.0540771484375,-0.3748779296875,1.35595703125,4.94384765625,1.03759765625,0.4882812201976776
404170,0.058837890625,-0.4296875,1.4383544921875,9.94873046875,-0.4882812201976776,-0.1220703050494194
404222,0.0306396484375,-0.3734130859375,1.3876953125,13.610838890075684,-0.9765624403953552,-0.6103515625
404241,0.0247802734375,-0.3685302734375,1.371337890625,15.624999046325684,-1.8310545682907104,-0.6103515625
404258,0.019287109375,-0.36279296875,1.3741455078125,18.1884765625,-1.8920897245407104,-0.6713866591453552
404291,0.0250244140625,-0.3958740234375,1.4169921875,23.498533248901367,-3.723144292831421,-1.2817381620407104
404308,0.026123046875,-0.3970947265625,1.3973388671875,24.658201217651367,-4.08935546875,-1.4648436307907104
404325,0.0244140625,-0.3822021484375,1.341064453125,27.221677780151367,-4.21142578125,-1.5869139432907104
404346,0.0181884765625,-0.3865966796875,1.3155517578125,29.113767623901367,-4.0283203125,-1.5869139432907104
404362,0.0091552734375,-0.3907470703125,1.2811279296875,29.907224655151367,-4.08935546875,-1.5869139432907104
404374,0.0052490234375,-0.3902587890625,1.26171875,31.005857467651367,-3.967284917831421,-1.7089842557907104
404407,-0.002685546875,-0.3760986328125,1.211181640625,32.2265625,-3.601073980331421,-1.4648436307907104
404424,0.0,-0.3861083984375,1.1951904296875,32.71484375,-3.601073980331421,-1.2817381620407104
404441,-0.0009765625,-0.4039306640625,1.1455078125,32.5927734375,-3.723144292831421,-1.3427733182907104
404478,-0.004150390625,-0.4151611328125,1.0823974609375,31.249998092651367,-2.746581792831421,-1.15966796875
404494,-0.002197265625,-0.412109375,1.076171875,30.883787155151367,-2.685546636581421,-1.15966796875
404511,-0.0030517578125,-0.3994140625,1.0267333984375,30.151365280151367,-2.929687261581421,-1.15966796875
404527,-0.005126953125,-0.3857421875,0.974365234375,28.991697311401367,-3.417968511581421,-1.0986328125
404544,-0.0133056640625,-0.359619140625,0.8458251953125,27.343748092651367,-2.929687261581421,-0.7324218153953552
404560,-0.0140380859375,-0.34912109375,0.7825927734375,26.428220748901367,-2.38037109375,-0.4882812201976776
404590,-0.0076904296875,-0.3419189453125,0.73388671875,22.888181686401367,-1.3427733182907104,-0.0610351525247097
404612,-0.0045166015625,-0.3358154296875,0.722900390625,22.399900436401367,-1.15966796875,0.1831054538488388
404628,0.0001220703125,-0.347900390625,0.726806640625,21.911619186401367,-0.7934569716453552,0.30517578125
404645,0.0,-0.356689453125,0.7264404296875,21.911619186401367,-1.15966796875,0.2441406100988388
404662,-0.002685546875,-0.3294677734375,0.649169921875,21.972654342651367,-2.0751953125,-0.2441406100988388
404678,-0.0032958984375,-0.302734375,0.5960693359375,21.667478561401367,-2.44140625,-0.3662109076976776
404709,0.000244140625,-0.232177734375,0.468017578125,20.751951217651367,-1.8310545682907104,0.0
404726,-0.0001220703125,-0.227783203125,0.4552001953125,20.080564498901367,-1.6479490995407104,0.30517578125
404747,-0.000732421875,-0.2242431640625,0.4365234375,19.22607421875,-1.8310545682907104,0.3662109076976776
404763,-0.0029296875,-0.2237548828125,0.4085693359375,18.798828125,-1.7700194120407104,0.3662109076976776
404780,-0.002197265625,-0.2237548828125,0.4046630859375,18.00537109375,-1.9531248807907104,0.30517578125
404797,-0.0020751953125,-0.215576171875,0.3798828125,17.08984375,-1.8310545682907104,0.1831054538488388
404829,0.003662109375,-0.224853515625,0.40576171875,15.502928733825684,-1.3427733182907104,0.4882812201976776
404845,0.0089111328125,-0.253662109375,0.4625244140625,14.282225608825684,-1.4648436307907104,0.54931640625
404861,0.00537109375,-0.283203125,0.5040283203125,13.610838890075684,-1.5258787870407104,0.4882812201976776
404893,0.004150390625,-0.330078125,0.600830078125,10.070799827575684,-1.4648436307907104,1.15966796875
404909,0.00634765625,-0.3658447265625,0.6419677734375,9.09423828125,-1.4648436307907104,1.5869139432907104
404930,0.017578125,-0.46875,0.7421875,6.774901866912842,-1.6479490995407104,2.3193359375
404946,0.0208740234375,-0.603515625,0.8057861328125,5.371093273162842,-2.01416015625,2.807616949081421
404963,0.026123046875,-0.7784423828125,0.89453125,4.45556640625,-2.25830078125,3.112792730331421
404980,0.0208740234375,-0.8251953125,0.9246826171875,2.990722417831421,-2.868652105331421,2.25830078125
405017,-0.000244140625,-0.7408447265625,0.9373779296875,0.1220703050494194,-3.112792730331421,0.4882812201976776
405033,-0.0042724609375,-0.6160888671875,0.9683837890625,-0.6103515625,-2.624511480331421,1.03759765625
405049,-0.00537109375,-0.5784912109375,0.98681640625,0.1220703050494194,-2.685546636581421,1.4648436307907104
405066,-0.0052490234375,-0.5355224609375,0.9932861328125,0.54931640625,-3.479003667831421,1.7089842557907104
405089,-0.018310546875,-0.4970703125,0.9210205078125,1.3427733182907104,-3.601073980331421,1.7700194120407104
405105,-0.0211181640625,-0.4700927734375,0.86279296875,1.5258787870407104,-3.479003667831421,1.7700194120407104
405122,-0.02197265625,-0.4552001953125,0.829833984375,1.03759765625,-3.112792730331421,1.8310545682907104
405141,-0.0238037109375,-0.441650390625,0.7711181640625,0.7934569716453552,-2.563476324081421,2.13623046875
405157,-0.030029296875,-0.4552001953125,0.7471923828125,0.4272460639476776,-2.01416015625,2.25830078125
405190,-0.0352783203125,-0.489013671875,0.74072265625,0.1220703050494194,-0.9765624403953552,1.9531248807907104
405206,-0.0343017578125,-0.497802734375,0.762939453125,0.1831054538488388,-0.30517578125,1.8310545682907104
405222,-0.02587890625,-0.5087890625,0.8280029296875,0.3662109076976776,0.0,1.7089842557907104
405264,-0.0164794921875,-0.5269775390625,0.87744140625,1.7700194120407104,0.1831054538488388,1.5258787870407104
405279,-0.00732421875,-0.538330078125,0.9193115234375,2.685546636581421,0.2441406100988388,1.3427733182907104
405296,-0.0025634765625,-0.53955078125,0.9368896484375,3.234863042831421,0.2441406100988388,1.2817381620407104
405316,-0.0001220703125,-0.53955078125,0.9349365234375,4.08935546875,0.0610351525247097,1.2817381620407104
405333,0.009765625,-0.543701171875,0.919921875,5.249022960662842,0.0610351525247097,1.4038084745407104
405350,0.0128173828125,-0.5467529296875,0.91259765625,5.432128429412842,0.0,1.4038084745407104
405367,0.0145263671875,-0.5474853515625,0.8822021484375,5.676269054412842,-0.1220703050494194,1.3427733182907104
405390,0.013671875,-0.544189453125,0.8563232421875,5.310058116912842,0.0,1.3427733182907104
405406,0.0152587890625,-0.531494140625,0.8414306640625,5.126952648162842,0.0,1.3427733182907104
405418,0.01513671875,-0.5269775390625,0.8359375,4.638671875,0.1220703050494194,1.4648436307907104
405437,0.011474609375,-0.525634765625,0.83837890625,4.39453125,0.2441406100988388,1.5258787870407104
405454,0.00927734375,-0.5306396484375,0.849853515625,3.601073980331421,0.0610351525247097,1.5258787870407104
405471,0.0078125,-0.5333251953125,0.8505859375,3.295898199081421,0.0,1.4648436307907104
405488,0.0030517578125,-0.541259765625,0.848876953125,2.807616949081421,-0.0610351525247097,1.3427733182907104
405557,-0.011474609375,-0.580322265625,0.87548828125,1.4038084745407104,-0.0610351525247097,0.9155272841453552
405573,-0.017333984375,-0.5889892578125,0.8663330078125,0.8544921278953552,-0.2441406100988388,0.54931640625
405590,-0.0174560546875,-0.588623046875,0.869384765625,0.2441406100988388,0.0,0.2441406100988388
405606,-0.0169677734375,-0.5828857421875,0.872314453125,-0.1831054538488388,-0.1831054538488388,0.0
405628,-0.0162353515625,-0.5694580078125,0.8592529296875,-0.4272460639476776,-0.1831054538488388,-0.0610351525247097
405661,-0.015625,-0.551025390625,0.857666015625,-1.0986328125,0.1220703050494194,-0.3662109076976776
405680,-0.0135498046875,-0.5430908203125,0.86083984375,-1.2817381620407104,0.1831054538488388,-0.4272460639476776
405697,-0.0128173828125,-0.536376953125,0.860595703125,-1.4648436307907104,0.1220703050494194,-0.54931640625
405728,-0.0113525390625,-0.526123046875,0.858154296875,-1.5258787870407104,0.30517578125,-0.7324218153953552
405745,-0.00439453125,-0.5269775390625,0.8724365234375,-1.5258787870407104,0.3662109076976776,-0.7324218153953552
405762,-0.001953125,-0.5281982421875,0.87646484375,-1.220703125,0.2441406100988388,-0.7934569716453552
405779,-0.00048828125,-0.529541015625,0.8699951171875,-1.15966796875,0.1220703050494194,-0.7934569716453552
405798,-0.0037841796875,-0.53369140625,0.8642578125,-0.8544921278953552,0.1220703050494194,-0.9155272841453552
405814,-0.00390625,-0.5389404296875,0.867919921875,-0.7324218153953552,0.1831054538488388,-0.8544921278953552
405831,-0.0035400390625,-0.5411376953125,0.8729248046875,-0.4882812201976776,0.1220703050494194,-1.03759765625
405847,-0.00341796875,-0.5404052734375,0.8751220703125,-0.1831054538488388,0.1220703050494194,-1.0986328125
405869,-0.0048828125,-0.5408935546875,0.87646484375,-0.1220703050494194,0.0610351525247097,-1.0986328125
405885,-0.0079345703125,-0.54248046875,0.8753662109375,0.1220703050494194,0.0,-1.0986328125
405902,-0.009521484375,-0.5430908203125,0.8775634765625,0.1831054538488388,0.0,-1.0986328125
405921,-0.010986328125,-0.5408935546875,0.885009765625,0.1220703050494194,-0.1220703050494194,-1.15966796875
405938,-0.0126953125,-0.53564453125,0.8779296875,0.0,-0.2441406100988388,-1.15966796875
405968,-0.0174560546875,-0.53076171875,0.8592529296875,-0.30517578125,-0.2441406100988388,-1.03759765625
405990,-0.0174560546875,-0.530029296875,0.8564453125,-0.54931640625,-0.0610351525247097,-0.9765624403953552
406006,-0.018310546875,-0.527587890625,0.8594970703125,-0.6713866591453552,0.0,-0.9155272841453552
406023,-0.01806640625,-0.525390625,0.8585205078125,-0.8544921278953552,0.0,-0.8544921278953552
406042,-0.0172119140625,-0.5233154296875,0.8648681640625,-1.03759765625,0.0610351525247097,-0.7934569716453552
406059,-0.0167236328125,-0.52197265625,0.8624267578125,-1.0986328125,0.0,-0.7934569716453552
406089,-0.0133056640625,-0.5181884765625,0.86181640625,-1.220703125,0.30517578125,-0.6713866591453552
406105,-0.0091552734375,-0.5135498046875,0.870361328125,-1.2817381620407104,0.2441406100988388,-0.6713866591453552
406122,-0.0086669921875,-0.51123046875,0.871826171875,-1.15966796875,0.0610351525247097,-0.54931640625
406143,-0.0074462890625,-0.5086669921875,0.8734130859375,-1.03759765625,0.0,-0.3662109076976776
406159,-0.0069580078125,-0.50732421875,0.8675537109375,-0.9765624403953552,0.0,-0.3662109076976776
406171,-0.0067138671875,-0.50439453125,0.8564453125,-1.0986328125,-0.1220703050494194,-0.30517578125
406204,-0.0062255859375,-0.4979248046875,0.845947265625,-1.6479490995407104,-0.1831054538488388,-0.2441406100988388
406253,-0.0029296875,-0.4776611328125,0.85595703125,-2.685546636581421,0.1831054538488388,0.3662109076976776
406285,-0.00146484375,-0.486328125,0.8848876953125,-2.685546636581421,-0.1220703050494194,0.54931640625
406297,-0.0013427734375,-0.490478515625,0.8880615234375,-2.868652105331421,-0.3662109076976776,0.54931640625
406329,-0.0020751953125,-0.483642578125,0.8729248046875,-3.356933355331421,-0.54931640625,0.54931640625
406345,-0.0020751953125,-0.4791259765625,0.86865234375,-3.906249761581421,-0.6713866591453552,0.54931640625
406362,-0.0045166015625,-0.4747314453125,0.853271484375,-4.7607421875,-0.7934569716453552,0.54931640625
406398,-0.006103515625,-0.4752197265625,0.81787109375,-6.896972179412842,-0.7934569716453552,0.6103515625
406420,-0.0068359375,-0.474609375,0.81396484375,-7.507323741912842,-0.7324218153953552,0.6713866591453552
406436,-0.0093994140625,-0.476806640625,0.8013916015625,-8.9111328125,-0.7324218153953552,0.7324218153953552
406455,-0.0106201171875,-0.47412109375,0.7939453125,-10.192870140075684,-0.6103515625,0.7934569716453552
406504,-0.012939453125,-0.4833984375,0.8145751953125,-13.671874046325684,-0.1831054538488388,0.9765624403953552
406527,-0.0137939453125,-0.4947509765625,0.849609375,-15.197752952575684,0.0610351525247097,1.15966796875
406544,-0.015380859375,-0.4964599609375,0.8541259765625,-16.78466796875,-0.2441406100988388,0.9155272841453552
406561,-0.0189208984375,-0.48388671875,0.83203125,-17.63916015625,-0.3662109076976776,0.7324218153953552
406579,-0.0201416015625,-0.4725341796875,0.811279296875,-19.22607421875,-0.2441406100988388,0.8544921278953552
406596,-0.0206298828125,-0.4722900390625,0.8121337890625,-20.812986373901367,0.2441406100988388,0.9765624403953552
406628,-0.0164794921875,-0.487548828125,0.8446044921875,-23.681638717651367,0.30517578125,0.7324218153953552
406650,-0.014892578125,-0.4844970703125,0.8450927734375,-24.169919967651367,0.30517578125,0.54931640625
406666,-0.0155029296875,-0.4666748046875,0.8402099609375,-24.902341842651367,0.3662109076976776,0.4272460639476776
406683,-0.0174560546875,-0.4537353515625,0.8299560546875,-25.573728561401367,0.54931640625,0.4882812201976776
406701,-0.018310546875,-0.446044921875,0.8250732421875,-25.939939498901367,0.6713866591453552,0.54931640625
406718,-0.0177001953125,-0.4427490234375,0.815673828125,-26.855466842651367,0.9765624403953552,0.3662109076976776
406747,-0.0166015625,-0.4151611328125,0.7996826171875,-27.343748092651367,1.03759765625,0.1831054538488388
406769,-0.0169677734375,-0.4061279296875,0.7982177734375,-27.709959030151367,1.4038084745407104,0.1831054538488388
406785,-0.015625,-0.394775390625,0.807373046875,-28.015134811401367,1.8920897245407104,0.3662109076976776
406802,-0.01123046875,-0.4100341796875,0.847900390625,-28.076169967651367,2.0751953125,0.4272460639476776
406821,-0.009033203125,-0.4085693359375,0.8702392578125,-27.832029342651367,2.01416015625,0.1220703050494194
406838,-0.011474609375,-0.3853759765625,0.8638916015625,-27.099607467651367,1.9531248807907104,-0.2441406100988388
406868,-0.009521484375,-0.3653564453125,0.870361328125,-25.329587936401367,2.197265625,-0.30517578125
406890,-0.0074462890625,-0.3626708984375,0.8739013671875,-24.841306686401367,2.197265625,-0.3662109076976776
406906,-0.0037841796875,-0.3568115234375,0.87451171875,-23.681638717651367,2.50244140625,-0.54931640625
406923,-0.00146484375,-0.345947265625,0.8966064453125,-22.888181686401367,2.624511480331421,-0.7324218153953552
406990,0.0057373046875,-0.32763671875,0.95458984375,-16.7236328125,1.9531248807907104,-1.4648436307907104
407022,0.001220703125,-0.2913818359375,0.8822021484375,-14.221190452575684,2.197265625,-1.4648436307907104
407062,0.0157470703125,-0.3179931640625,0.9925537109375,-12.451170921325684,3.295898199081421,-1.15966796875
407074,0.01611328125,-0.3153076171875,1.00244140625,-11.718749046325684,2.01416015625,-1.6479490995407104
407107,0.0069580078125,-0.27978515625,0.947265625,-9.94873046875,1.6479490995407104,-1.7089842557907104
407124,0.0032958984375,-0.270263671875,0.925048828125,-9.033203125,2.38037109375,-1.4038084745407104
407140,0.0137939453125,-0.2794189453125,0.9835205078125,-8.056640625,2.44140625,-1.3427733182907104
407176,0.0196533203125,-0.276611328125,1.0257568359375,-5.0048828125,1.8310545682907104,-1.4648436307907104
407192,0.0146484375,-0.278076171875,1.0125732421875,-4.0283203125,1.5258787870407104,-1.5258787870407104
407209,0.013671875,-0.273681640625,1.0091552734375,-2.0751953125,1.220703125,-1.6479490995407104
407225,0.013671875,-0.269287109375,0.9755859375,-0.6103515625,1.220703125,-1.5869139432907104
407242,0.0201416015625,-0.2564697265625,0.976806640625,0.8544921278953552,1.4038084745407104,-1.5258787870407104
407259,0.026123046875,-0.2618408203125,1.0128173828125,1.7700194120407104,1.4648436307907104,-1.4648436307907104
407291,0.0191650390625,-0.2611083984375,1.0130615234375,5.432128429412842,0.6713866591453552,-1.4038084745407104
407308,0.0179443359375,-0.2591552734375,1.00048828125,6.103515148162842,0.8544921278953552,-1.2817381620407104
407329,0.018310546875,-0.265380859375,1.0045166015625,7.690429210662842,1.15966796875,-1.15966796875
407345,0.015380859375,-0.265625,1.0135498046875,9.21630859375,1.4038084745407104,-0.9155272841453552
407362,0.015625,-0.2789306640625,1.0374755859375,10.009765625,1.4038084745407104,-0.9155272841453552
407378,0.0167236328125,-0.2816162109375,1.0382080078125,11.718749046325684,1.15966796875,-0.7934569716453552
407411,0.02294921875,-0.2991943359375,1.0616455078125,14.831542015075684,1.0986328125,-0.54931640625
407461,0.0113525390625,-0.3079833984375,1.0439453125,17.27294921875,1.03759765625,-0.3662109076976776
407486,0.0172119140625,-0.3226318359375,1.05419921875,18.1884765625,0.8544921278953552,-0.1220703050494194
407498,0.016845703125,-0.33154296875,1.05322265625,18.49365234375,0.8544921278953552,-0.0610351525247097
407531,0.0118408203125,-0.347900390625,1.076171875,18.798828125,0.6103515625,0.1220703050494194
407548,0.0098876953125,-0.34228515625,1.056396484375,18.6767578125,-0.1220703050494194,0.0610351525247097
407565,0.0096435546875,-0.3348388671875,1.02392578125,18.310546875,-0.0610351525247097,0.30517578125
407581,0.00634765625,-0.3372802734375,1.0142822265625,17.9443359375,0.0610351525247097,0.6103515625
407601,0.0040283203125,-0.3509521484375,1.0311279296875,17.7001953125,-0.1831054538488388,0.6713866591453552
407623,0.00244140625,-0.352783203125,1.021240234375,17.578125,-0.30517578125,0.6713866591453552
407639,0.0045166015625,-0.3603515625,1.017333984375,16.9677734375,-0.2441406100988388,0.8544921278953552
407651,0.0078125,-0.370849609375,1.01806640625,16.41845703125,0.0,1.15966796875
407668,0.00927734375,-0.376220703125,1.02294921875,16.05224609375,-0.1220703050494194,1.15966796875
407701,0.005859375,-0.383056640625,1.02734375,14.831542015075684,0.1831054538488388,1.4038084745407104
407722,0.007080078125,-0.3922119140625,1.0308837890625,14.221190452575684,-0.1831054538488388,1.4038084745407104
407739,0.0087890625,-0.3905029296875,1.0189208984375,13.793944358825684,-0.1831054538488388,1.5258787870407104
407759,0.0126953125,-0.3958740234375,1.0123291015625,12.695311546325684,-0.1220703050494194,1.5869139432907104
407776,0.0120849609375,-0.3934326171875,0.994873046875,11.779784202575684,0.0,1.7700194120407104
407793,0.0107421875,-0.4019775390625,0.9976806640625,11.169432640075684,0.1220703050494194,1.8310545682907104
407826,0.01806640625,-0.416015625,1.026123046875,8.9111328125,0.1220703050494194,1.8920897245407104
407843,0.0213623046875,-0.4102783203125,1.0006103515625,7.690429210662842,-0.0610351525247097,1.8310545682907104
407860,0.023193359375,-0.4091796875,0.991943359375,7.019042491912842,0.0610351525247097,1.8310545682907104
407879,0.02490234375,-0.40869140625,0.9796142578125,5.615233898162842,0.1831054538488388,2.01416015625
407899,0.026123046875,-0.41748046875,0.993408203125,4.33349609375,0.4272460639476776,2.0751953125
407915,0.0250244140625,-0.419921875,1.006103515625,3.723144292831421,0.3662109076976776,1.9531248807907104
407948,0.019775390625,-0.4124755859375,0.990234375,2.01416015625,0.2441406100988388,1.8920897245407104
408017,0.02099609375,-0.411376953125,0.9771728515625,-0.1831054538488388,-0.6103515625,1.6479490995407104
408039,0.022705078125,-0.416015625,0.982421875,-0.8544921278953552,-0.54931640625,1.7089842557907104
408055,0.019775390625,-0.416015625,0.96533203125,-1.2817381620407104,-0.7324218153953552,1.7089842557907104
408076,0.017822265625,-0.4100341796875,0.9525146484375,-2.13623046875,-0.6103515625,1.7700194120407104
408093,0.019287109375,-0.41650390625,0.9830322265625,-2.746581792831421,-0.1220703050494194,1.9531248807907104
408109,0.018310546875,-0.4150390625,0.98828125,-2.929687261581421,-0.3662109076976776,1.9531248807907104
408126,0.01806640625,-0.41064453125,0.9769287109375,-3.112792730331421,-0.6713866591453552,2.01416015625
408147,0.0150146484375,-0.401123046875,0.940673828125,-3.356933355331421,-0.30517578125,2.13623046875
408163,0.0328369140625,-0.5374755859375,1.14453125,0.0,-0.7934569716453552,1.5258787870407104
408179,0.0751953125,-0.797119140625,1.5340576171875,6.286620616912842,-3.723144292831421,-0.54931640625
408199,0.058837890625,-0.5289306640625,1.1046142578125,8.4228515625,-9.09423828125,-3.723144292831421
408249,-0.00830078125,-0.3994140625,0.8714599609375,7.873534679412842,-5.432128429412842,-2.0751953125
408298,0.038330078125,-0.57666015625,1.2672119140625,4.69970703125,1.6479490995407104,1.15966796875
408350,0.00146484375,-0.37109375,0.842529296875,3.662109136581421,-1.03759765625,-0.0610351525247097
408385,0.0106201171875,-0.4114990234375,0.863525390625,1.3427733182907104,-1.4648436307907104,-0.2441406100988388
408402,0.004638671875,-0.384521484375,0.831787109375,0.6713866591453552,-1.03759765625,-0.1831054538488388
408419,0.00537109375,-0.4554443359375,0.998291015625,0.1831054538488388,-0.9765624403953552,-0.30517578125
408439,0.012939453125,-0.400634765625,0.9034423828125,-0.1831054538488388,-1.0986328125,-0.0610351525247097
408455,0.00927734375,-0.42431640625,0.951416015625,-0.1831054538488388,-0.8544921278953552,0.30517578125
408472,0.006103515625,-0.4285888671875,0.9425048828125,-0.4882812201976776,-0.9155272841453552,0.2441406100988388
408489,0.005615234375,-0.4261474609375,0.923583984375,-1.15966796875,-0.6103515625,0.0
408509,0.0072021484375,-0.4307861328125,0.932861328125,-1.7089842557907104,-0.6713866591453552,0.0610351525247097
408526,0.0098876953125,-0.405029296875,0.9346923828125,-1.8920897245407104,-0.6103515625,0.0
408543,0.00927734375,-0.411376953125,0.9464111328125,-1.8310545682907104,-0.54931640625,0.2441406100988388
408561,0.0054931640625,-0.4063720703125,0.929931640625,-1.8310545682907104,-0.6713866591453552,0.30517578125
408577,0.00244140625,-0.4281005859375,0.93115234375,-2.0751953125,-0.54931640625,0.2441406100988388
408610,0.0062255859375,-0.4173583984375,0.9365234375,-2.38037109375,-0.3662109076976776,0.2441406100988388
408631,0.00927734375,-0.409423828125,0.9384765625,-2.44140625,-0.2441406100988388,0.30517578125
408647,0.010009765625,-0.415283203125,0.9356689453125,-2.50244140625,-0.2441406100988388,0.3662109076976776
408692,0.0028076171875,-0.4080810546875,0.9366455078125,-2.50244140625,-0.30517578125,0.1220703050494194
408821,0.0108642578125,-0.3983154296875,0.94482421875,2.197265625,-0.4882812201976776,0.0610351525247097
408864,0.004150390625,-0.4052734375,0.940673828125,3.723144292831421,-0.7324218153953552,0.1220703050494194
408881,0.009765625,-0.4066162109375,0.9351806640625,3.906249761581421,-0.54931640625,0.1220703050494194
408898,0.0064697265625,-0.40869140625,0.9371337890625,4.0283203125,-0.4882812201976776,0.1220703050494194
408918,0.00390625,-0.4019775390625,0.9422607421875,4.57763671875,-0.4272460639476776,0.1220703050494194
408934,0.0076904296875,-0.4033203125,0.9405517578125,4.8828125,-0.54931640625,0.0610351525247097
408950,0.010009765625,-0.400634765625,0.9385986328125,5.554198741912842,-0.6713866591453552,0.0610351525247097
408967,0.0069580078125,-0.4119873046875,0.9346923828125,6.042479991912842,-0.6103515625,0.0610351525247097
408990,0.003173828125,-0.4112548828125,0.9356689453125,6.408690929412842,-0.6103515625,0.0610351525247097
409006,0.0032958984375,-0.417236328125,0.9334716796875,6.591796398162842,-0.54931640625,0.0610351525247097
409023,0.004638671875,-0.4161376953125,0.9378662109375,6.835937023162842,-0.4882812201976776,0.0
409042,0.0052490234375,-0.41943359375,0.9312744140625,7.080077648162842,-0.54931640625,0.1220703050494194
409058,0.005615234375,-0.4215087890625,0.93115234375,7.202147960662842,-0.4272460639476776,0.1220703050494194
409089,0.0042724609375,-0.4229736328125,0.9322509765625,7.507323741912842,-0.6103515625,0.0
409105,0.004150390625,-0.4263916015625,0.9288330078125,7.629394054412842,-0.6103515625,0.0
409122,0.0040283203125,-0.4283447265625,0.9285888671875,7.690429210662842,-0.54931640625,0.0
409143,0.0030517578125,-0.4365234375,0.9263916015625,7.507323741912842,-0.54931640625,0.0
409209,0.0030517578125,-0.443603515625,0.9224853515625,6.530761241912842,-0.54931640625,0.0610351525247097
409225,0.0006103515625,-0.446533203125,0.922119140625,6.164550304412842,-0.3662109076976776,0.0610351525247097
409242,0.001220703125,-0.4478759765625,0.9202880859375,5.737304210662842,-0.4272460639476776,0.0610351525247097
409278,0.0050048828125,-0.4493408203125,0.9237060546875,4.8828125,-0.4272460639476776,0.1831054538488388
409300,0.0025634765625,-0.44921875,0.923095703125,4.69970703125,-0.4272460639476776,0.1831054538488388
409316,0.002197265625,-0.454833984375,0.917236328125,4.21142578125,-0.4272460639476776,0.1831054538488388
409334,0.0032958984375,-0.4569091796875,0.91845703125,3.601073980331421,-0.30517578125,0.2441406100988388
409382,0.0015869140625,-0.4541015625,0.916015625,2.0751953125,-0.3662109076976776,0.2441406100988388
409404,0.001220703125,-0.4569091796875,0.915771484375,1.4648436307907104,-0.30517578125,0.30517578125
409421,0.00244140625,-0.459228515625,0.9150390625,1.15966796875,-0.2441406100988388,0.30517578125
409438,0.0040283203125,-0.4559326171875,0.9168701171875,0.6103515625,-0.1220703050494194,0.2441406100988388
409458,0.0025634765625,-0.451171875,0.9180908203125,-0.1831054538488388,-0.1220703050494194,0.2441406100988388
409475,0.001708984375,-0.4486083984375,0.9185791015625,-0.30517578125,-0.1220703050494194,0.30517578125
409492,0.002197265625,-0.4505615234375,0.91748046875,-0.4882812201976776,-0.1831054538488388,0.4272460639476776
409513,0.0032958984375,-0.4532470703125,0.91943359375,-0.7934569716453552,-0.1220703050494194,0.3662109076976776
409563,0.0035400390625,-0.4432373046875,0.9232177734375,-0.9155272841453552,-0.1831054538488388,0.30517578125
409587,0.00341796875,-0.44677734375,0.919189453125,-0.7934569716453552,-0.30517578125,0.30517578125
409604,0.00244140625,-0.4468994140625,0.9193115234375,-0.7934569716453552,-0.1831054538488388,0.3662109076976776
409621,0.00048828125,-0.44580078125,0.919677734375,-0.8544921278953552,-0.1220703050494194,0.3662109076976776
409640,0.0037841796875,-0.4432373046875,0.92333984375,-0.9155272841453552,-0.1220703050494194,0.4272460639476776
409656,0.0054931640625,-0.443359375,0.9234619140625,-0.7934569716453552,-0.1831054538488388,0.3662109076976776
409689,0.002685546875,-0.4449462890625,0.9207763671875,-0.8544921278953552,-0.1220703050494194,0.4272460639476776
409711,0.0032958984375,-0.44384765625,0.9222412109375,-0.8544921278953552,-0.1220703050494194,0.3662109076976776
409727,0.0042724609375,-0.442138671875,0.9219970703125,-0.7934569716453552,-0.0610351525247097,0.4272460639476776
409739,0.0035400390625,-0.440185546875,0.923583984375,-0.7324218153953552,-0.0610351525247097,0.3662109076976776
409805,0.0032958984375,-0.434326171875,0.9256591796875,-0.0610351525247097,-0.1831054538488388,0.2441406100988388
409827,0.002685546875,-0.4342041015625,0.9256591796875,0.3662109076976776,-0.1831054538488388,0.30517578125
409844,0.0040283203125,-0.43896484375,0.9232177734375,0.6103515625,-0.2441406100988388,0.30517578125
409860,0.0032958984375,-0.441162109375,0.9234619140625,0.6713866591453552,-0.2441406100988388,0.30517578125
409879,0.002197265625,-0.4420166015625,0.9215087890625,0.6103515625,-0.1831054538488388,0.3662109076976776
409896,0.0025634765625,-0.44140625,0.9217529296875,0.6103515625,-0.1831054538488388,0.3662109076976776
409911,0.00390625,-0.440185546875,0.924560546875,0.6713866591453552,-0.1831054538488388,0.30517578125
409931,0.0028076171875,-0.4393310546875,0.9256591796875,0.6713866591453552,-0.1831054538488388,0.30517578125
409948,0.001953125,-0.440673828125,0.9241943359375,0.7934569716453552,-0.1831054538488388,0.2441406100988388
409960,0.0028076171875,-0.4373779296875,0.9229736328125,0.9765624403953552,-0.1220703050494194,0.30517578125
409997,0.0045166015625,-0.4365234375,0.9254150390625,1.4038084745407104,-0.2441406100988388,0.2441406100988388
410014,0.003173828125,-0.439208984375,0.922607421875,1.6479490995407104,-0.30517578125,0.2441406100988388
410031,0.0030517578125,-0.43994140625,0.9228515625,1.7700194120407104,-0.1831054538488388,0.30517578125
410052,0.0025634765625,-0.4395751953125,0.922607421875,1.8310545682907104,-0.1220703050494194,0.30517578125
410069,0.004150390625,-0.4398193359375,0.925048828125,2.0751953125,-0.1831054538488388,0.2441406100988388
410086,0.004150390625,-0.4384765625,0.9251708984375,2.3193359375,-0.30517578125,0.2441406100988388
410102,0.0030517578125,-0.438720703125,0.921875,2.44140625,-0.3662109076976776,0.2441406100988388
410121,0.00244140625,-0.44189453125,0.9232177734375,2.685546636581421,-0.1831054538488388,0.1831054538488388
410138,0.0029296875,-0.442626953125,0.921875,2.807616949081421,-0.2441406100988388,0.2441406100988388
410170,0.002197265625,-0.4442138671875,0.9219970703125,2.868652105331421,-0.1831054538488388,0.2441406100988388
410224,0.004150390625,-0.4407958984375,0.9207763671875,3.295898199081421,-0.2441406100988388,0.1831054538488388
410243,0.0035400390625,-0.4443359375,0.919677734375,3.601073980331421,-0.2441406100988388,0.1831054538488388
410260,0.0029296875,-0.4454345703125,0.921630859375,3.845214605331421,-0.2441406100988388,0.2441406100988388
410297,0.00439453125,-0.44970703125,0.9176025390625,4.2724609375,-0.1220703050494194,0.3662109076976776
410314,0.0045166015625,-0.4512939453125,0.9146728515625,4.21142578125,0.0,0.3662109076976776
410330,0.0020751953125,-0.4549560546875,0.9149169921875,4.0283203125,0.0,0.4272460639476776
410346,0.001953125,-0.4583740234375,0.9168701171875,3.906249761581421,-0.0610351525247097,0.3662109076976776
410365,0.0032958984375,-0.460693359375,0.91552734375,3.479003667831421,-0.1831054538488388,0.3662109076976776
410386,0.0025634765625,-0.4658203125,0.913330078125,2.807616949081421,-0.2441406100988388,0.3662109076976776
410402,0.0032958984375,-0.4664306640625,0.9102783203125,2.44140625,-0.2441406100988388,0.30517578125
410482,0.0037841796875,-0.4644775390625,0.9117431640625,0.54931640625,0.0,0.54931640625
410605,0.00341796875,-0.4580078125,0.9163818359375,-3.234863042831421,0.1220703050494194,0.54931640625
410622,0.0018310546875,-0.4542236328125,0.91748046875,-3.479003667831421,0.1831054538488388,0.54931640625
410639,0.0025634765625,-0.4525146484375,0.91845703125,-3.662109136581421,0.30517578125,0.54931640625
410659,0.00439453125,-0.4471435546875,0.9178466796875,-3.723144292831421,0.2441406100988388,0.6103515625
410676,0.0064697265625,-0.4468994140625,0.9215087890625,-3.601073980331421,0.1831054538488388,0.54931640625
410693,0.0068359375,-0.4444580078125,0.9244384765625,-3.479003667831421,0.1220703050494194,0.6103515625
410709,0.0045166015625,-0.4444580078125,0.918701171875,-3.417968511581421,0.1831054538488388,0.7324218153953552
410726,0.0037841796875,-0.4437255859375,0.91943359375,-3.479003667831421,0.30517578125,0.6713866591453552
410742,0.003173828125,-0.4423828125,0.9188232421875,-3.479003667831421,0.4272460639476776,0.9155272841453552
410759,0.003662109375,-0.44482421875,0.912841796875,-3.479003667831421,1.03759765625,1.220703125
410779,0.0101318359375,-0.4559326171875,0.927978515625,-3.845214605331421,1.4038084745407104,1.2817381620407104
410796,0.0035400390625,-0.4569091796875,0.922607421875,-5.065917491912842,1.5869139432907104,1.4648436307907104
410813,-0.00244140625,-0.468994140625,0.8990478515625,-7.080077648162842,1.6479490995407104,1.5258787870407104
410830,0.0010986328125,-0.4691162109375,0.90966796875,-8.30078125,1.9531248807907104,1.4648436307907104
410846,0.0130615234375,-0.4696044921875,0.9317626953125,-9.58251953125,2.01416015625,1.4038084745407104
410858,0.017333984375,-0.432373046875,0.915283203125,-11.474608421325684,1.4038084745407104,0.9765624403953552
410891,0.021728515625,-0.427490234375,0.950927734375,-12.084959983825684,1.5258787870407104,1.15966796875
410907,0.0318603515625,-0.43115234375,0.9527587890625,-12.451170921325684,1.9531248807907104,1.7700194120407104
410924,0.043701171875,-0.4521484375,1.002685546875,-13.366698265075684,2.01416015625,1.5258787870407104
410941,0.043701171875,-0.45556640625,1.04638671875,-13.854979515075684,1.8310545682907104,1.5258787870407104
410966,0.0428466796875,-0.4783935546875,1.1209716796875,-13.916014671325684,2.13623046875,1.8310545682907104
410983,0.0552978515625,-0.5438232421875,1.273193359375,-13.549803733825684,2.25830078125,2.13623046875
410999,0.0587158203125,-0.5623779296875,1.32763671875,-12.634276390075684,1.7089842557907104,1.7700194120407104
411049,0.0484619140625,-0.5548095703125,1.3707275390625,-7.873534679412842,0.1220703050494194,1.2817381620407104
411081,0.0302734375,-0.5521240234375,1.3614501953125,-5.065917491912842,-0.2441406100988388,1.03759765625
411098,0.0257568359375,-0.5430908203125,1.3614501953125,-2.990722417831421,-0.4272460639476776,0.8544921278953552
411128,0.0262451171875,-0.5281982421875,1.357421875,0.4272460639476776,-0.54931640625,0.9155272841453552
411145,0.0184326171875,-0.5211181640625,1.3096923828125,2.3193359375,-0.4882812201976776,0.8544921278953552
411161,0.017822265625,-0.5194091796875,1.307861328125,3.173827886581421,0.0,0.7934569716453552
411196,0.0091552734375,-0.4908447265625,1.2698974609375,5.676269054412842,-0.6713866591453552,0.6713866591453552
411212,0.0072021484375,-0.476318359375,1.2386474609375,7.141112804412842,-0.3662109076976776,0.7324218153953552
411229,0.013427734375,-0.4691162109375,1.2169189453125,8.1787109375,-0.1831054538488388,0.9155272841453552
411245,0.012939453125,-0.4554443359375,1.170654296875,8.544921875,-0.0610351525247097,0.9765624403953552
411262,0.0079345703125,-0.4427490234375,1.1529541015625,9.27734375,0.30517578125,0.9155272841453552
411311,0.0107421875,-0.395263671875,1.0732421875,10.375975608825684,0.6103515625,0.8544921278953552
411332,0.010498046875,-0.382080078125,1.040283203125,10.437010765075684,-0.0610351525247097,0.8544921278953552
411349,0.002197265625,-0.366455078125,0.954345703125,10.131834983825684,-0.1220703050494194,0.7934569716453552
411366,-0.0032958984375,-0.353271484375,0.8865966796875,9.765625,0.0,0.8544921278953552
411382,-0.004638671875,-0.3414306640625,0.85009765625,9.033203125,0.1220703050494194,0.8544921278953552
411399,-0.001708984375,-0.3306884765625,0.815673828125,8.1787109375,0.54931640625,1.0986328125
411430,-0.001708984375,-0.3193359375,0.7752685546875,6.835937023162842,0.7934569716453552,1.15966796875
411451,-0.0035400390625,-0.318359375,0.7735595703125,6.347655773162842,1.0986328125,1.2817381620407104
411468,-0.001220703125,-0.3299560546875,0.8040771484375,6.347655773162842,1.0986328125,1.220703125
411485,0.0,-0.3333740234375,0.79541015625,6.408690929412842,0.4272460639476776,0.9155272841453552
411504,0.000244140625,-0.3084716796875,0.7232666015625,6.469726085662842,-0.54931640625,0.54931640625
411520,-0.000244140625,-0.2974853515625,0.6849365234375,6.408690929412842,-0.8544921278953552,0.4272460639476776
411553,0.003662109375,-0.2564697265625,0.5826416015625,6.225585460662842,-0.6103515625,0.4272460639476776
411570,0.00341796875,-0.248046875,0.567626953125,6.286620616912842,-0.6103515625,0.54931640625
411586,0.0059814453125,-0.249755859375,0.5675048828125,6.408690929412842,-0.54931640625,0.6103515625
411598,0.0062255859375,-0.25244140625,0.5670166015625,6.774901866912842,-0.7934569716453552,0.6103515625
411617,0.0059814453125,-0.2532958984375,0.553955078125,7.019042491912842,-1.0986328125,0.4272460639476776
411667,-0.00048828125,-0.208740234375,0.42138671875,6.591796398162842,-1.4648436307907104,0.2441406100988388
411685,0.0025634765625,-0.223388671875,0.4500732421875,5.981444835662842,-1.0986328125,0.4882812201976776
411701,0.003173828125,-0.23486328125,0.4732666015625,5.676269054412842,-1.03759765625,0.4882812201976776
411718,0.00244140625,-0.25634765625,0.5399169921875,5.371093273162842,-0.9155272841453552,0.4882812201976776
411739,0.0010986328125,-0.2757568359375,0.607177734375,4.8828125,-0.9765624403953552,0.54931640625
411755,0.00390625,-0.2869873046875,0.681396484375,4.5166015625,-1.03759765625,0.3662109076976776
411772,0.005126953125,-0.2926025390625,0.711669921875,4.39453125,-1.3427733182907104,0.4882812201976776
411789,0.0096435546875,-0.3260498046875,0.7724609375,4.5166015625,-1.8310545682907104,0.9765624403953552
411805,0.0079345703125,-0.4033203125,0.8101806640625,5.126952648162842,-2.3193359375,1.7089842557907104
411821,0.0025634765625,-0.4658203125,0.8165283203125,5.493163585662842,-2.50244140625,2.01416015625
411855,-0.000732421875,-0.6474609375,0.8416748046875,6.225585460662842,-1.8920897245407104,1.6479490995407104
411871,0.0137939453125,-0.716796875,0.9227294921875,7.568358898162842,-1.4648436307907104,0.7934569716453552
411888,0.0220947265625,-0.6976318359375,0.97509765625,8.7890625,-1.4648436307907104,0.2441406100988388
411904,0.0335693359375,-0.6141357421875,1.0343017578125,9.3994140625,-1.2817381620407104,-0.2441406100988388
411923,0.0382080078125,-0.5699462890625,1.0550537109375,12.145995140075684,-1.5869139432907104,-0.1220703050494194
411940,0.0399169921875,-0.5108642578125,1.0391845703125,14.221190452575684,-2.13623046875,0.1831054538488388
411970,0.0357666015625,-0.4324951171875,0.9498291015625,17.08984375,-1.7700194120407104,0.54931640625
411991,0.034423828125,-0.4033203125,0.90185546875,17.9443359375,-1.5258787870407104,0.8544921278953552
412003,0.0330810546875,-0.3961181640625,0.8563232421875,18.5546875,-1.5258787870407104,0.9765624403953552
412020,0.032470703125,-0.404296875,0.8419189453125,18.9208984375,-1.3427733182907104,1.15966796875
412039,0.0301513671875,-0.420654296875,0.8128662109375,19.1650390625,-1.4038084745407104,1.4038084745407104
412054,0.0264892578125,-0.4459228515625,0.787353515625,19.1650390625,-1.2817381620407104,1.4038084745407104
412071,0.02392578125,-0.46142578125,0.7852783203125,18.798828125,-0.9765624403953552,1.5869139432907104
412087,0.0211181640625,-0.4974365234375,0.80615234375,18.73779296875,-0.4272460639476776,1.5869139432907104
412142,0.0069580078125,-0.5396728515625,0.87841796875,17.63916015625,-0.54931640625,1.15966796875
412159,0.008056640625,-0.53955078125,0.9169921875,17.39501953125,-0.3662109076976776,1.220703125
412175,0.0093994140625,-0.5511474609375,0.9464111328125,17.27294921875,-0.3662109076976776,1.4038084745407104
412208,0.0032958984375,-0.545166015625,0.9130859375,16.11328125,-0.7324218153953552,1.4648436307907104
412228,0.001220703125,-0.544677734375,0.892333984375,15.441893577575684,-0.54931640625,1.4648436307907104
412244,0.0003662109375,-0.5404052734375,0.8690185546875,14.160155296325684,-0.1220703050494194,1.5258787870407104
412261,0.00244140625,-0.53857421875,0.8555908203125,13.488768577575684,0.0,1.5258787870407104
412280,0.0042724609375,-0.5321044921875,0.8299560546875,11.779784202575684,0.0610351525247097,1.5869139432907104
412297,0.00537109375,-0.5335693359375,0.8175048828125,9.3994140625,0.6713866591453552,1.7089842557907104
412330,0.0072021484375,-0.54052734375,0.8118896484375,6.835937023162842,0.8544921278953552,1.7700194120407104
412346,0.010009765625,-0.5479736328125,0.813232421875,5.920409679412842,1.03759765625,1.8310545682907104
412363,0.01220703125,-0.5546875,0.83056640625,4.21142578125,1.4648436307907104,1.8310545682907104
412384,0.017333984375,-0.56689453125,0.8602294921875,2.563476324081421,1.220703125,1.5869139432907104
412400,0.01904296875,-0.5673828125,0.8690185546875,1.7700194120407104,1.0986328125,1.5869139432907104
412417,0.022705078125,-0.5740966796875,0.8858642578125,0.30517578125,1.03759765625,1.5258787870407104
412449,0.02685546875,-0.577392578125,0.8984375,-1.7700194120407104,0.9155272841453552,1.4038084745407104
412466,0.0267333984375,-0.5750732421875,0.8895263671875,-3.295898199081421,0.54931640625,1.220703125
412482,0.0250244140625,-0.5706787109375,0.8681640625,-4.69970703125,0.6103515625,1.220703125
412515,0.026611328125,-0.576171875,0.8751220703125,-6.652831554412842,0.54931640625,1.0986328125
412531,0.02490234375,-0.5731201171875,0.8720703125,-7.141112804412842,0.30517578125,0.9765624403953552
412548,0.0201416015625,-0.565673828125,0.84814453125,-8.23974609375,0.0610351525247097,0.8544921278953552
412565,0.0198974609375,-0.56005859375,0.8387451171875,-9.1552734375,0.1220703050494194,0.7324218153953552
412583,0.0203857421875,-0.5552978515625,0.839599609375,-9.8876953125,0.2441406100988388,0.6713866591453552
412600,0.0179443359375,-0.5498046875,0.8546142578125,-10.437010765075684,0.1831054538488388,0.4882812201976776
412633,0.015625,-0.5440673828125,0.8714599609375,-10.742186546325684,-0.1220703050494194,0.3662109076976776
412649,0.013427734375,-0.54248046875,0.8720703125,-10.681151390075684,-0.1220703050494194,0.1831054538488388
412666,0.0133056640625,-0.54345703125,0.8798828125,-10.681151390075684,-0.1831054538488388,0.1220703050494194
412686,0.0133056640625,-0.5439453125,0.885986328125,-10.498045921325684,-0.4272460639476776,0.0
412703,0.012939453125,-0.5421142578125,0.8828125,-10.253905296325684,-0.4272460639476776,-0.1831054538488388
412720,0.0130615234375,-0.54541015625,0.887939453125,-10.070799827575684,-0.4272460639476776,-0.30517578125
412740,0.0123291015625,-0.5491943359375,0.88720703125,-9.70458984375,-0.4882812201976776,-0.4272460639476776
412758,0.01220703125,-0.550048828125,0.9072265625,-9.033203125,-0.4882812201976776,-0.7934569716453552
412807,0.013427734375,-0.48388671875,0.80078125,-8.4228515625,-1.6479490995407104,-1.5869139432907104
412830,0.011474609375,-0.464599609375,0.768798828125,-8.9111328125,-1.220703125,-1.4648436307907104
412846,0.0078125,-0.4442138671875,0.7430419921875,-9.58251953125,-0.6713866591453552,-1.0986328125
412863,0.002685546875,-0.4356689453125,0.7435302734375,-10.070799827575684,-0.54931640625,-1.0986328125
412881,0.0023193359375,-0.43359375,0.773193359375,-10.620116233825684,-0.0610351525247097,-0.9765624403953552
412898,0.00634765625,-0.433837890625,0.8125,-10.620116233825684,0.0610351525247097,-0.7934569716453552
412931,0.0078125,-0.4322509765625,0.82568359375,-10.070799827575684,-0.4272460639476776,-0.8544921278953552
412947,0.0079345703125,-0.434814453125,0.8311767578125,-9.94873046875,-0.4272460639476776,-0.7324218153953552
412963,0.00927734375,-0.4361572265625,0.8267822265625,-9.8876953125,-0.6103515625,-0.7934569716453552
413003,0.0059814453125,-0.41357421875,0.7762451171875,-10.498045921325684,-0.4272460639476776,-0.54931640625
413019,0.006103515625,-0.413330078125,0.7613525390625,-10.803221702575684,-0.2441406100988388,-0.4272460639476776
413031,0.00732421875,-0.416259765625,0.7685546875,-11.474608421325684,0.3662109076976776,-0.2441406100988388
413048,0.0101318359375,-0.42724609375,0.7923583984375,-11.718749046325684,0.54931640625,-0.1831054538488388
413064,0.0164794921875,-0.4423828125,0.8424072265625,-11.962889671325684,0.4882812201976776,-0.1831054538488388
413080,0.020263671875,-0.4542236328125,0.88037109375,-11.840819358825684,-0.0610351525247097,-0.3662109076976776
413114,0.015625,-0.444091796875,0.8548583984375,-11.840819358825684,-0.4272460639476776,-0.54931640625
413134,0.0123291015625,-0.439453125,0.841064453125,-12.084959983825684,-0.2441406100988388,-0.54931640625
413151,0.0162353515625,-0.4422607421875,0.8529052734375,-12.207030296325684,-0.2441406100988388,-0.54931640625
413165,0.0181884765625,-0.4395751953125,0.8485107421875,-12.451170921325684,-0.7324218153953552,-0.7324218153953552
413182,0.01708984375,-0.424560546875,0.8028564453125,-13.061522483825684,-0.7324218153953552,-0.8544921278953552
413231,0.013671875,-0.4224853515625,0.8055419921875,-14.648436546325684,-0.1831054538488388,-0.7934569716453552
413253,0.01416015625,-0.4241943359375,0.8203125,-14.770506858825684,-0.2441406100988388,-0.8544921278953552
413269,0.0145263671875,-0.421142578125,0.8382568359375,-14.770506858825684,-0.6103515625,-1.0986328125
413286,0.012451171875,-0.4017333984375,0.8074951171875,-14.770506858825684,-0.8544921278953552,-1.2817381620407104
413303,0.0115966796875,-0.3843994140625,0.7801513671875,-14.770506858825684,-0.6713866591453552,-1.2817381620407104
413319,0.0101318359375,-0.382568359375,0.7781982421875,-15.014647483825684,-0.0610351525247097,-1.0986328125
413353,0.0115966796875,-0.41015625,0.875732421875,-14.343260765075684,0.9765624403953552,-1.0986328125
413369,0.008544921875,-0.39892578125,0.89453125,-13.916014671325684,0.54931640625,-1.3427733182907104
413385,0.0032958984375,-0.383544921875,0.863525390625,-12.878417015075684,0.1220703050494194,-1.4648436307907104
413400,-0.000732421875,-0.364013671875,0.843994140625,-12.512206077575684,0.4882812201976776,-1.3427733182907104
413420,0.0003662109375,-0.3626708984375,0.85498046875,-11.779784202575684,1.03759765625,-1.0986328125
413437,0.004150390625,-0.3702392578125,0.8795166015625,-10.925292015075684,1.4648436307907104,-0.9155272841453552
413470,0.01318359375,-0.3756103515625,0.9464111328125,-8.6669921875,1.2817381620407104,-1.15966796875
413487,0.0120849609375,-0.3695068359375,0.943115234375,-6.774901866912842,0.8544921278953552,-1.2817381620407104
413503,0.009033203125,-0.356689453125,0.915771484375,-5.798339366912842,0.9765624403953552,-1.03759765625
413539,0.008544921875,-0.3660888671875,0.91259765625,-3.906249761581421,1.2817381620407104,-0.8544921278953552
413561,0.0084228515625,-0.36962890625,0.90087890625,-3.112792730331421,1.6479490995407104,-0.9155272841453552
413577,0.0107421875,-0.35888671875,0.9161376953125,-1.5869139432907104,2.0751953125,-0.7324218153953552
413596,0.0118408203125,-0.359619140625,0.9599609375,-0.1220703050494194,2.50244140625,-0.6103515625
413646,0.0264892578125,-0.3607177734375,1.0174560546875,5.432128429412842,1.6479490995407104,-0.30517578125
413665,0.02685546875,-0.3599853515625,0.9788818359375,7.202147960662842,1.5258787870407104,-0.30517578125
413682,0.02880859375,-0.3560791015625,0.95361328125,8.72802734375,1.8310545682907104,-0.2441406100988388
413698,0.0303955078125,-0.35400390625,0.9488525390625,9.33837890625,1.7700194120407104,-0.1831054538488388
413719,0.0303955078125,-0.3504638671875,0.92724609375,10.253905296325684,1.7700194120407104,-0.1220703050494194
413736,0.02783203125,-0.3521728515625,0.9158935546875,10.742186546325684,1.9531248807907104,-0.0610351525247097
413751,0.0330810546875,-0.3790283203125,0.9874267578125,11.474608421325684,2.746581792831421,0.30517578125
413768,0.0364990234375,-0.3934326171875,1.046142578125,12.939452171325684,2.624511480331421,0.0610351525247097
413784,0.0430908203125,-0.3983154296875,1.114013671875,14.648436546325684,0.9765624403953552,-0.3662109076976776
413800,0.0421142578125,-0.3929443359375,1.09521484375,15.441893577575684,0.1220703050494194,-0.6103515625
413833,0.0279541015625,-0.3822021484375,0.964111328125,17.15087890625,0.6103515625,-0.2441406100988388
413849,0.028564453125,-0.3973388671875,0.97607421875,17.27294921875,0.6103515625,-0.2441406100988388
413866,0.0277099609375,-0.4158935546875,0.98583984375,17.2119140625,0.54931640625,-0.3662109076976776
413883,0.0250244140625,-0.4312744140625,1.008544921875,17.333984375,0.6103515625,-0.4272460639476776
413901,0.0234375,-0.4425048828125,1.0338134765625,17.63916015625,0.6713866591453552,-0.4882812201976776
413917,0.0228271484375,-0.443603515625,1.0533447265625,17.578125,0.1831054538488388,-0.6103515625
413949,0.025146484375,-0.447998046875,1.0384521484375,16.90673828125,-0.1831054538488388,-0.4882812201976776
413970,0.0255126953125,-0.45849609375,1.0115966796875,15.869139671325684,-0.1831054538488388,-0.30517578125
413987,0.0223388671875,-0.479248046875,0.984619140625,15.136717796325684,0.0,-0.1220703050494194
414004,0.017333984375,-0.4825439453125,0.9793701171875,13.427733421325684,0.2441406100988388,-0.2441406100988388
414022,0.014404296875,-0.49267578125,0.9942626953125,11.840819358825684,0.4272460639476776,-0.2441406100988388
414038,0.01513671875,-0.4866943359375,1.003173828125,10.192870140075684,0.4882812201976776,-0.2441406100988388
414071,0.0240478515625,-0.4990234375,1.0390625,8.056640625,0.7324218153953552,0.0
414123,0.019287109375,-0.4866943359375,0.99853515625,5.249022960662842,-0.2441406100988388,-0.1831054538488388
414172,0.023681640625,-0.4947509765625,1.00537109375,1.4648436307907104,-0.1831054538488388,0.1831054538488388
414206,0.031005859375,-0.49267578125,1.011474609375,-0.6713866591453552,-0.0610351525247097,0.4272460639476776
414223,0.0323486328125,-0.5008544921875,1.02734375,-1.7700194120407104,-0.1220703050494194,0.7324218153953552
414240,0.032470703125,-0.5137939453125,1.050048828125,-2.807616949081421,-0.6713866591453552,0.6103515625
414260,0.0250244140625,-0.507568359375,1.0296630859375,-3.662109136581421,-1.0986328125,0.4882812201976776
414277,0.0174560546875,-0.4864501953125,1.0028076171875,-4.45556640625,-1.15966796875,0.6713866591453552
414293,0.0162353515625,-0.4815673828125,1.0028076171875,-4.8828125,-1.15966796875,0.7934569716453552
414310,0.0162353515625,-0.4759521484375,0.9908447265625,-6.042479991912842,-1.5258787870407104,0.9765624403953552
414326,0.0174560546875,-0.4599609375,0.9537353515625,-6.958007335662842,-1.5258787870407104,1.3427733182907104
414342,0.019287109375,-0.4591064453125,0.948486328125,-7.507323741912842,-1.2817381620407104,1.5258787870407104
414378,0.017333984375,-0.4488525390625,0.9481201171875,-8.48388671875,-1.7700194120407104,1.8920897245407104
414394,0.015869140625,-0.435546875,0.9288330078125,-8.6669921875,-1.7700194120407104,2.0751953125
414406,0.016357421875,-0.4371337890625,0.9241943359375,-8.85009765625,-1.5258787870407104,2.3193359375
414423,0.0184326171875,-0.437744140625,0.9300537109375,-9.033203125,-1.5258787870407104,2.38037109375
414440,0.020263671875,-0.4354248046875,0.9368896484375,-8.97216796875,-1.6479490995407104,2.563476324081421
414456,0.0201416015625,-0.42626953125,0.93701171875,-8.97216796875,-1.7700194120407104,2.624511480331421
414489,0.1103515625,-0.7891845703125,1.45361328125,0.9765624403953552,-4.94384765625,0.1831054538488388
414509,0.0751953125,-0.5289306640625,1.0614013671875,1.7089842557907104,-10.253905296325684,-2.50244140625
414525,-0.0008544921875,-0.2991943359375,0.726318359375,1.2817381620407104,-8.6669921875,-2.01416015625
414542,0.0107421875,-0.3477783203125,0.8170166015625,5.126952648162842,-7.568358898162842,-1.0986328125
414560,0.0074462890625,-0.417724609375,0.87060546875,2.01416015625,-7.019042491912842,-1.220703125
414577,-0.019287109375,-0.362548828125,0.794189453125,1.5258787870407104,-5.920409679412842,-0.1831054538488388
414609,-0.0089111328125,-0.57177734375,1.02880859375,-7.385253429412842,4.39453125,3.112792730331421
414631,0.0555419921875,-0.6146240234375,1.2578125,-1.9531248807907104,-1.5869139432907104,-0.30517578125
414647,0.0167236328125,-0.2620849609375,0.646484375,-3.112792730331421,-2.868652105331421,-0.9765624403953552
414664,0.0101318359375,-0.2808837890625,0.729736328125,-2.624511480331421,-1.4648436307907104,0.0
414682,0.00732421875,-0.5382080078125,1.0772705078125,-4.39453125,0.0,0.7934569716453552
414699,0.01806640625,-0.4561767578125,0.9193115234375,-5.371093273162842,-0.8544921278953552,0.1220703050494194
414732,-0.0069580078125,-0.42138671875,0.9483642578125,-5.676269054412842,-0.8544921278953552,0.1831054538488388
414780,0.0126953125,-0.44189453125,0.9320068359375,-6.774901866912842,-0.54931640625,0.3662109076976776
414801,0.0037841796875,-0.4376220703125,0.9267578125,-8.056640625,-0.4882812201976776,0.2441406100988388
414818,0.0015869140625,-0.411376953125,0.927734375,-8.4228515625,-0.1220703050494194,0.1831054538488388
414850,0.0128173828125,-0.39013671875,0.9482421875,-7.507323741912842,-0.30517578125,0.3662109076976776
414867,0.0103759765625,-0.3970947265625,0.9444580078125,-6.286620616912842,-0.7324218153953552,0.30517578125
414883,0.0084228515625,-0.40283203125,0.9443359375,-5.859374523162842,-0.7934569716453552,0.1220703050494194
414919,0.00634765625,-0.390625,0.948974609375,-4.39453125,-0.1831054538488388,0.30517578125
414941,0.010498046875,-0.3846435546875,0.94921875,-3.234863042831421,-0.2441406100988388,0.4272460639476776
414957,0.0120849609375,-0.385986328125,0.943359375,-2.807616949081421,-0.30517578125,0.4272460639476776
414978,0.0087890625,-0.39013671875,0.9439697265625,-1.9531248807907104,-0.4272460639476776,0.4272460639476776
414995,0.0045166015625,-0.390380859375,0.9464111328125,-1.220703125,-0.4882812201976776,0.1220703050494194
415028,0.0115966796875,-0.377685546875,0.95703125,1.4648436307907104,-0.7324218153953552,0.0610351525247097
415077,0.0040283203125,-0.398681640625,0.9447021484375,3.540038824081421,-0.4882812201976776,0.1220703050494194
415132,0.0076904296875,-0.390625,0.9532470703125,5.187987804412842,-0.4882812201976776,0.0
415166,0.0042724609375,-0.4007568359375,0.9462890625,6.286620616912842,-0.4882812201976776,0.1220703050494194
415182,0.0052490234375,-0.40576171875,0.9398193359375,6.713866710662842,-0.54931640625,0.1220703050494194
415199,0.0101318359375,-0.40576171875,0.9375,6.835937023162842,-0.4882812201976776,0.1220703050494194
415219,0.006103515625,-0.411865234375,0.9390869140625,7.019042491912842,-0.4882812201976776,0.1220703050494194
415236,0.0028076171875,-0.4093017578125,0.9359130859375,6.958007335662842,-0.4882812201976776,0.0610351525247097
415253,0.001708984375,-0.41552734375,0.9381103515625,7.019042491912842,-0.4882812201976776,0.0610351525247097
415269,0.0072021484375,-0.4122314453125,0.9339599609375,7.080077648162842,-0.54931640625,0.0
415290,0.0069580078125,-0.4193115234375,0.936279296875,7.202147960662842,-0.54931640625,0.0
415306,0.0050048828125,-0.4205322265625,0.935791015625,7.141112804412842,-0.7324218153953552,0.0610351525247097
415323,0.0008544921875,-0.431640625,0.9249267578125,6.530761241912842,-0.6103515625,0.0
415342,0.003662109375,-0.4375,0.92822265625,5.493163585662842,-0.4272460639476776,0.1220703050494194
415359,0.005859375,-0.4403076171875,0.927978515625,4.39453125,-0.4272460639476776,0.0610351525247097
415389,0.003173828125,-0.4354248046875,0.9254150390625,2.990722417831421,-0.4882812201976776,0.1220703050494194
415406,0.0035400390625,-0.4324951171875,0.92431640625,2.624511480331421,-0.4272460639476776,0.1220703050494194
415425,0.0029296875,-0.4405517578125,0.926513671875,1.8310545682907104,-0.30517578125,0.2441406100988388
415441,0.00341796875,-0.4366455078125,0.9244384765625,1.2817381620407104,-0.30517578125,0.2441406100988388
415455,0.0040283203125,-0.4388427734375,0.92431640625,0.3662109076976776,-0.2441406100988388,0.2441406100988388
415472,0.0052490234375,-0.4339599609375,0.9271240234375,-0.4272460639476776,-0.0610351525247097,0.2441406100988388
415505,0.00341796875,-0.42822265625,0.931640625,-0.9765624403953552,-0.1831054538488388,0.30517578125
415575,0.00390625,-0.41943359375,0.9305419921875,-0.7934569716453552,0.0610351525247097,0.4272460639476776
415595,0.0068359375,-0.418212890625,0.9385986328125,-0.4272460639476776,-0.2441406100988388,0.3662109076976776
415611,0.0030517578125,-0.4234619140625,0.9281005859375,-0.30517578125,-0.3662109076976776,0.3662109076976776
415628,0.0050048828125,-0.418212890625,0.9345703125,-0.2441406100988388,-0.0610351525247097,0.30517578125
415645,0.0067138671875,-0.4205322265625,0.9432373046875,0.1220703050494194,0.0,0.3662109076976776
415661,0.005859375,-0.416259765625,0.9329833984375,0.30517578125,-0.0610351525247097,0.3662109076976776
415699,0.0057373046875,-0.4112548828125,0.9375,1.5258787870407104,-0.2441406100988388,0.2441406100988388
415716,0.006591796875,-0.4102783203125,0.933837890625,1.8920897245407104,-0.30517578125,0.2441406100988388
415737,0.0067138671875,-0.4127197265625,0.9366455078125,2.563476324081421,-0.4272460639476776,0.1831054538488388
415787,0.0035400390625,-0.4256591796875,0.9267578125,3.112792730331421,-0.1831054538488388,0.2441406100988388
415821,0.0047607421875,-0.4254150390625,0.9320068359375,3.601073980331421,-0.2441406100988388,0.3662109076976776
415838,0.004638671875,-0.42138671875,0.930419921875,3.723144292831421,-0.1831054538488388,0.2441406100988388
415871,0.007568359375,-0.43115234375,0.9300537109375,3.601073980331421,-0.30517578125,0.1831054538488388
415904,0.0025634765625,-0.4351806640625,0.92431640625,2.685546636581421,-0.1220703050494194,0.30517578125
415946,0.0050048828125,-0.4361572265625,0.9246826171875,1.6479490995407104,-0.1831054538488388,0.2441406100988388
415963,0.0072021484375,-0.43505859375,0.9281005859375,1.4648436307907104,-0.2441406100988388,0.30517578125
415980,0.004150390625,-0.4346923828125,0.9296875,1.2817381620407104,-0.30517578125,0.3662109076976776
416000,0.001220703125,-0.4378662109375,0.9215087890625,0.9155272841453552,-0.2441406100988388,0.3662109076976776
416017,0.00341796875,-0.436767578125,0.9224853515625,0.3662109076976776,-0.1831054538488388,0.3662109076976776
416033,0.00732421875,-0.4393310546875,0.9263916015625,-0.1220703050494194,-0.1220703050494194,0.1831054538488388
416049,0.00390625,-0.428466796875,0.9276123046875,-0.1831054538488388,-0.0610351525247097,0.1831054538488388
416071,0.001953125,-0.425537109375,0.93017578125,-0.0610351525247097,-0.1220703050494194,0.2441406100988388
416087,0.0059814453125,-0.4259033203125,0.9306640625,0.30517578125,-0.2441406100988388,0.3662109076976776
416104,0.005615234375,-0.4322509765625,0.928955078125,0.3662109076976776,-0.2441406100988388,0.3662109076976776
416123,0.001708984375,-0.4329833984375,0.9267578125,0.3662109076976776,-0.1831054538488388,0.30517578125
416140,0.0054931640625,-0.42626953125,0.9285888671875,0.4882812201976776,-0.1831054538488388,0.30517578125
416173,0.005615234375,-0.42431640625,0.9306640625,0.9155272841453552,-0.1831054538488388,0.3662109076976776
416189,0.002685546875,-0.4283447265625,0.927734375,1.0986328125,-0.1831054538488388,0.4272460639476776
416205,0.002685546875,-0.4306640625,0.9273681640625,1.4038084745407104,-0.1220703050494194,0.30517578125
416221,0.005615234375,-0.4317626953125,0.9281005859375,1.4038084745407104,-0.1831054538488388,0.30517578125
416296,0.005859375,-0.4332275390625,0.927734375,1.3427733182907104,-0.1831054538488388,0.2441406100988388
416313,0.006591796875,-0.4287109375,0.9288330078125,1.4038084745407104,-0.2441406100988388,0.2441406100988388
416329,0.0030517578125,-0.429931640625,0.927734375,1.5869139432907104,-0.3662109076976776,0.30517578125
416346,0.0023193359375,-0.4293212890625,0.926513671875,1.7089842557907104,-0.1831054538488388,0.30517578125
416364,0.004638671875,-0.4322509765625,0.9268798828125,1.7700194120407104,-0.2441406100988388,0.30517578125
416381,0.0059814453125,-0.4334716796875,0.927001953125,1.8310545682907104,-0.1831054538488388,0.2441406100988388
416447,0.00732421875,-0.4334716796875,0.926025390625,2.197265625,-0.1831054538488388,0.3662109076976776
416481,0.003173828125,-0.438720703125,0.9249267578125,2.01416015625,-0.1220703050494194,0.3662109076976776
416498,0.00244140625,-0.4390869140625,0.924560546875,1.7089842557907104,-0.1220703050494194,0.3662109076976776
416531,0.005615234375,-0.4405517578125,0.9248046875,1.15966796875,-0.1220703050494194,0.3662109076976776
416548,0.00390625,-0.4395751953125,0.9244384765625,0.7934569716453552,0.0,0.3662109076976776
416565,0.002197265625,-0.4403076171875,0.924072265625,0.30517578125,-0.0610351525247097,0.4272460639476776
416581,0.0057373046875,-0.4425048828125,0.9215087890625,-0.1220703050494194,-0.0610351525247097,0.4272460639476776
416602,0.005126953125,-0.4444580078125,0.9202880859375,-0.8544921278953552,0.0,0.4882812201976776
416623,0.003173828125,-0.4454345703125,0.9232177734375,-1.220703125,0.0,0.4882812201976776
416635,0.003662109375,-0.445068359375,0.9244384765625,-2.01416015625,0.1220703050494194,0.54931640625
416652,0.005126953125,-0.4415283203125,0.92431640625,-2.38037109375,0.0610351525247097,0.54931640625
416668,0.0047607421875,-0.4395751953125,0.9222412109375,-3.112792730331421,0.1831054538488388,0.54931640625
416685,0.003662109375,-0.4356689453125,0.9248046875,-3.601073980331421,0.2441406100988388,0.54931640625
416702,0.00537109375,-0.434814453125,0.927001953125,-3.906249761581421,0.1220703050494194,0.54931640625
416722,0.0064697265625,-0.431640625,0.92822265625,-4.21142578125,0.1220703050494194,0.4882812201976776
416739,0.0064697265625,-0.429931640625,0.928955078125,-4.33349609375,0.0610351525247097,0.4882812201976776
416759,0.0050048828125,-0.4263916015625,0.9320068359375,-4.33349609375,0.0610351525247097,0.54931640625
416777,0.006103515625,-0.423828125,0.929931640625,-4.2724609375,0.1220703050494194,0.54931640625
416794,0.0069580078125,-0.4244384765625,0.9334716796875,-4.21142578125,0.0,0.6103515625
416827,0.0064697265625,-0.4217529296875,0.9312744140625,-3.723144292831421,0.1220703050494194,0.6103515625
416844,0.0067138671875,-0.4072265625,0.9349365234375,-3.479003667831421,0.0610351525247097,0.54931640625
416860,0.0074462890625,-0.4122314453125,0.9373779296875,-3.173827886581421,0.0,0.7324218153953552
416896,0.008056640625,-0.4161376953125,0.9329833984375,-2.685546636581421,0.0,0.54931640625
416907,0.008544921875,-0.4097900390625,0.9395751953125,-2.563476324081421,0.0,0.4272460639476776
416924,0.0067138671875,-0.4151611328125,0.936279296875,-2.44140625,-0.0610351525247097,0.4882812201976776
416941,0.005615234375,-0.4193115234375,0.935546875,-2.44140625,-0.0610351525247097,0.4272460639476776
416959,0.0054931640625,-0.41259765625,0.933349609375,-2.44140625,-0.0610351525247097,0.4882812201976776
416976,0.00830078125,-0.4124755859375,0.9354248046875,-2.50244140625,0.0,0.3662109076976776
416993,0.0086669921875,-0.4127197265625,0.938232421875,-2.44140625,-0.0610351525247097,0.4272460639476776
417009,0.008056640625,-0.4111328125,0.93896484375,-2.38037109375,-0.0610351525247097,0.3662109076976776
417026,0.0068359375,-0.4088134765625,0.939208984375,-2.25830078125,-0.0610351525247097,0.4882812201976776
417058,0.0086669921875,-0.402587890625,0.9368896484375,-1.7089842557907104,-0.0610351525247097,0.3662109076976776
417079,0.0072021484375,-0.40380859375,0.9400634765625,-1.4038084745407104,0.0,0.3662109076976776
417096,0.00634765625,-0.4036865234375,0.9410400390625,-1.03759765625,-0.0610351525247097,0.4882812201976776
417113,0.0078125,-0.4041748046875,0.9423828125,-0.8544921278953552,-0.0610351525247097,0.4272460639476776
417133,0.00830078125,-0.4061279296875,0.9398193359375,-0.6103515625,-0.1831054538488388,0.4882812201976776
417150,0.0087890625,-0.4031982421875,0.9375,-0.54931640625,-0.1220703050494194,0.3662109076976776
417167,0.0084228515625,-0.4058837890625,0.941162109375,-0.4272460639476776,-0.1220703050494194,0.3662109076976776
417183,0.0081787109375,-0.404052734375,0.939453125,-0.2441406100988388,-0.2441406100988388,0.3662109076976776
417202,0.0072021484375,-0.4083251953125,0.937255859375,-0.1220703050494194,-0.2441406100988388,0.3662109076976776
417219,0.0084228515625,-0.4053955078125,0.938232421875,-0.1831054538488388,-0.0610351525247097,0.3662109076976776
417257,0.008056640625,-0.403076171875,0.940185546875,-0.1220703050494194,-0.1220703050494194,0.3662109076976776
417273,0.0074462890625,-0.404052734375,0.9423828125,0.1831054538488388,-0.0610351525247097,0.3662109076976776
417290,0.0076904296875,-0.403076171875,0.9390869140625,0.4272460639476776,-0.2441406100988388,0.3662109076976776
417307,0.0084228515625,-0.403564453125,0.9365234375,0.4882812201976776,-0.30517578125,0.30517578125
417323,0.007568359375,-0.40185546875,0.93994140625,0.6713866591453552,-0.30517578125,0.30517578125
417340,0.007080078125,-0.4031982421875,0.941162109375,0.9155272841453552,-0.1831054538488388,0.30517578125
417373,0.0086669921875,-0.4039306640625,0.939453125,1.220703125,-0.2441406100988388,0.30517578125
417390,0.009033203125,-0.4036865234375,0.938720703125,1.3427733182907104,-0.2441406100988388,0.2441406100988388
417423,0.009033203125,-0.4033203125,0.9383544921875,1.5258787870407104,-0.30517578125,0.2441406100988388
417473,0.0074462890625,-0.405517578125,0.9368896484375,1.8920897245407104,-0.30517578125,0.2441406100988388
417504,0.0086669921875,-0.4058837890625,0.939208984375,1.9531248807907104,-0.2441406100988388,0.2441406100988388
417521,0.0079345703125,-0.406494140625,0.939208984375,2.13623046875,-0.1831054538488388,0.30517578125
417558,0.0076904296875,-0.4110107421875,0.9371337890625,2.0751953125,-0.2441406100988388,0.3662109076976776
417575,0.00732421875,-0.4114990234375,0.935791015625,1.8920897245407104,-0.2441406100988388,0.2441406100988388
417592,0.0079345703125,-0.4107666015625,0.9365234375,1.8310545682907104,-0.2441406100988388,0.2441406100988388
417612,0.0091552734375,-0.412109375,0.9405517578125,1.7089842557907104,-0.1831054538488388,0.30517578125
417629,0.0076904296875,-0.410888671875,0.9351806640625,1.6479490995407104,-0.1831054538488388,0.30517578125
417641,0.0069580078125,-0.4134521484375,0.936767578125,1.4648436307907104,-0.2441406100988388,0.2441406100988388
417673,0.0081787109375,-0.4127197265625,0.93505859375,1.15966796875,-0.2441406100988388,0.2441406100988388
417690,0.0068359375,-0.4151611328125,0.9373779296875,0.8544921278953552,-0.2441406100988388,0.2441406100988388
417706,0.006591796875,-0.4151611328125,0.9364013671875,0.6713866591453552,-0.2441406100988388,0.3662109076976776
417722,0.0072021484375,-0.4149169921875,0.9349365234375,0.4272460639476776,-0.1831054538488388,0.3662109076976776
417742,0.0079345703125,-0.414794921875,0.9361572265625,0.1220703050494194,-0.1831054538488388,0.3662109076976776
417758,0.0081787109375,-0.4130859375,0.935791015625,-0.1831054538488388,-0.1831054538488388,0.3662109076976776
417774,0.0072021484375,-0.4132080078125,0.93701171875,-0.30517578125,-0.1831054538488388,0.3662109076976776
417795,0.0076904296875,-0.4132080078125,0.9378662109375,-0.4272460639476776,-0.1220703050494194,0.3662109076976776
417811,0.0072021484375,-0.41064453125,0.9344482421875,-0.6103515625,-0.1220703050494194,0.3662109076976776
417823,0.0074462890625,-0.4114990234375,0.937744140625,-0.6713866591453552,-0.1220703050494194,0.3662109076976776
417840,0.0079345703125,-0.410400390625,0.935791015625,-0.7934569716453552,-0.1220703050494194,0.3662109076976776
417859,0.0076904296875,-0.408935546875,0.936279296875,-0.9765624403953552,-0.0610351525247097,0.4272460639476776
417876,0.0074462890625,-0.407958984375,0.9395751953125,-1.03759765625,0.0610351525247097,0.4272460639476776
417893,0.00830078125,-0.40673828125,0.9403076171875,-1.0986328125,0.1220703050494194,0.3662109076976776
417914,0.0076904296875,-0.404541015625,0.9312744140625,-0.9765624403953552,0.54931640625,0.6713866591453552
417930,0.0087890625,-0.4114990234375,0.9351806640625,-0.9765624403953552,0.7934569716453552,0.7324218153953552
417997,0.0384521484375,-0.4423828125,0.94384765625,-3.662109136581421,4.21142578125,2.25830078125
418040,0.095458984375,-0.5830078125,1.352294921875,-2.746581792831421,2.807616949081421,1.5869139432907104
418057,0.0953369140625,-0.59814453125,1.422607421875,-0.6103515625,1.8310545682907104,1.220703125
418088,0.0655517578125,-0.5950927734375,1.35498046875,2.25830078125,0.1220703050494194,0.7934569716453552
418104,0.0574951171875,-0.587158203125,1.3223876953125,3.051757574081421,0.1220703050494194,0.6103515625
418121,0.0477294921875,-0.56298828125,1.2664794921875,3.173827886581421,0.30517578125,0.4882812201976776
418154,0.045654296875,-0.5758056640625,1.31591796875,4.39453125,1.2817381620407104,0.7934569716453552
418175,0.0350341796875,-0.592529296875,1.361328125,5.981444835662842,0.6713866591453552,0.4272460639476776
418191,0.025634765625,-0.5743408203125,1.3505859375,7.446288585662842,0.1220703050494194,0.1831054538488388
418208,0.017333984375,-0.5460205078125,1.2984619140625,8.23974609375,-0.0610351525247097,0.1220703050494194
418224,0.010986328125,-0.534423828125,1.258544921875,9.6435546875,0.0610351525247097,0.3662109076976776
418241,0.003662109375,-0.525634765625,1.1904296875,10.192870140075684,0.54931640625,0.54931640625
418274,0.0029296875,-0.5068359375,1.1021728515625,9.6435546875,1.15966796875,0.4272460639476776
418290,0.0072021484375,-0.4847412109375,1.0863037109375,9.521484375,2.3193359375,0.7324218153953552
418307,0.0155029296875,-0.4951171875,1.140869140625,9.58251953125,2.38037109375,0.7934569716453552
418328,0.0147705078125,-0.4981689453125,1.140869140625,9.58251953125,1.4038084745407104,0.4882812201976776
418345,0.008056640625,-0.4803466796875,1.0677490234375,9.27734375,0.8544921278953552,0.2441406100988388
418362,0.006591796875,-0.4700927734375,1.0164794921875,8.9111328125,0.9155272841453552,0.30517578125
418378,0.0093994140625,-0.47509765625,1.017578125,8.30078125,1.220703125,0.4272460639476776
418399,0.012451171875,-0.4884033203125,1.0389404296875,7.446288585662842,0.9765624403953552,0.0610351525247097
418416,0.0120849609375,-0.4874267578125,1.0443115234375,7.446288585662842,0.4882812201976776,-0.2441406100988388
418433,0.0086669921875,-0.463623046875,1.0166015625,7.751464366912842,-0.3662109076976776,-0.7934569716453552
418454,0.004150390625,-0.4271240234375,0.96533203125,8.30078125,-0.6103515625,-0.7934569716453552
418470,0.001220703125,-0.4169921875,0.9337158203125,8.4228515625,-0.7324218153953552,-0.8544921278953552
418482,-0.00048828125,-0.410400390625,0.90966796875,8.4228515625,-1.2817381620407104,-1.03759765625
418499,-0.0050048828125,-0.390625,0.8428955078125,8.30078125,-1.5869139432907104,-1.15966796875
418519,-0.00537109375,-0.36279296875,0.7750244140625,7.812499523162842,-1.7700194120407104,-1.2817381620407104
418536,-0.0042724609375,-0.35302734375,0.756103515625,7.629394054412842,-1.4648436307907104,-1.2817381620407104
