tMillis,ax,ay,az,gx,gy,gz
140312,0.033935546875,0.0880126953125,1.023681640625,0.9155272841453552,-0.1831054538488388,0.30517578125
140328,0.034423828125,0.08837890625,1.021240234375,0.9155272841453552,-0.2441406100988388,0.2441406100988388
140340,0.03271484375,0.0870361328125,1.0218505859375,0.9155272841453552,-0.2441406100988388,0.30517578125
140360,0.03271484375,0.0872802734375,1.0228271484375,0.9155272841453552,-0.1220703050494194,0.3662109076976776
140379,0.033203125,0.0882568359375,1.0205078125,0.9155272841453552,-0.1831054538488388,0.30517578125
140398,0.0340576171875,0.08740234375,1.02197265625,0.9155272841453552,-0.1831054538488388,0.3662109076976776
140417,0.0341796875,0.0880126953125,1.0225830078125,0.8544921278953552,-0.1831054538488388,0.30517578125
140440,0.034423828125,0.0863037109375,1.021728515625,0.9155272841453552,-0.1831054538488388,0.3662109076976776
140456,0.0345458984375,0.08642578125,1.0205078125,0.9155272841453552,-0.1220703050494194,0.3662109076976776
140473,0.0328369140625,0.087646484375,1.0201416015625,0.9155272841453552,-0.1831054538488388,0.30517578125
140492,0.033203125,0.087890625,1.0216064453125,0.9155272841453552,-0.1831054538488388,0.3662109076976776
140511,0.03369140625,0.0875244140625,1.0179443359375,0.9155272841453552,-0.30517578125,0.3662109076976776
140529,0.0340576171875,0.088623046875,1.0260009765625,0.8544921278953552,-0.30517578125,0.4272460639476776
140551,0.0303955078125,0.087890625,1.024658203125,0.8544921278953552,-0.1831054538488388,0.4272460639476776
140562,0.03271484375,0.0870361328125,1.0147705078125,0.8544921278953552,-0.2441406100988388,0.3662109076976776
140579,0.0357666015625,0.088623046875,1.025146484375,0.8544921278953552,-0.1831054538488388,0.3662109076976776
140596,0.035400390625,0.0869140625,1.01708984375,0.8544921278953552,-0.3662109076976776,0.3662109076976776
140613,0.031494140625,0.087646484375,1.02294921875,0.8544921278953552,-0.30517578125,0.3662109076976776
140630,0.03125,0.087890625,1.0233154296875,0.8544921278953552,-0.30517578125,0.3662109076976776
140651,0.03466796875,0.08642578125,1.0184326171875,0.8544921278953552,-0.1831054538488388,0.4272460639476776
140668,0.0338134765625,0.0888671875,1.0289306640625,0.8544921278953552,-0.1831054538488388,0.3662109076976776
140682,0.032958984375,0.0882568359375,1.014892578125,0.8544921278953552,-0.1831054538488388,0.4272460639476776
140699,0.0330810546875,0.089111328125,1.017333984375,0.7934569716453552,-0.1831054538488388,0.3662109076976776
140718,0.0343017578125,0.0863037109375,1.023681640625,0.7934569716453552,-0.2441406100988388,0.4272460639476776
140735,0.03369140625,0.0870361328125,1.0201416015625,0.7934569716453552,-0.1831054538488388,0.3662109076976776
140753,0.0335693359375,0.0863037109375,1.0216064453125,0.7934569716453552,-0.1831054538488388,0.4272460639476776
140776,0.033447265625,0.0875244140625,1.0233154296875,0.8544921278953552,-0.1220703050494194,0.3662109076976776
140788,0.03369140625,0.08837890625,1.020263671875,0.7934569716453552,-0.1220703050494194,0.30517578125
140805,0.03271484375,0.0875244140625,1.018310546875,0.7324218153953552,-0.1220703050494194,0.30517578125
140823,0.0333251953125,0.0875244140625,1.0198974609375,0.7934569716453552,-0.1220703050494194,0.30517578125
140839,0.0330810546875,0.0870361328125,1.0174560546875,0.7934569716453552,-0.1831054538488388,0.3662109076976776
140856,0.032958984375,0.088134765625,1.021728515625,0.7934569716453552,-0.2441406100988388,0.30517578125
140872,0.0335693359375,0.087890625,1.0245361328125,0.8544921278953552,-0.1831054538488388,0.30517578125
140889,0.033203125,0.0875244140625,1.0233154296875,0.9155272841453552,-0.1220703050494194,0.3662109076976776
140912,0.0338134765625,0.086669921875,1.013671875,0.9155272841453552,-0.1220703050494194,0.30517578125
140928,0.0340576171875,0.0887451171875,1.021728515625,0.8544921278953552,-0.1831054538488388,0.3662109076976776
140944,0.0333251953125,0.0888671875,1.034423828125,0.7934569716453552,-0.2441406100988388,0.3662109076976776
140961,0.0321044921875,0.08740234375,1.0167236328125,0.8544921278953552,-0.1831054538488388,0.3662109076976776
140980,0.03125,0.0859375,1.0118408203125,0.8544921278953552,-0.1220703050494194,0.3662109076976776
140999,0.0343017578125,0.08837890625,1.0245361328125,0.8544921278953552,-0.1831054538488388,0.3662109076976776
141022,0.0338134765625,0.0889892578125,1.0279541015625,0.8544921278953552,-0.0610351525247097,0.3662109076976776
141038,0.0328369140625,0.087158203125,1.0203857421875,0.7934569716453552,-0.1220703050494194,0.3662109076976776
141050,0.0338134765625,0.088134765625,1.0201416015625,0.9155272841453552,-0.2441406100988388,0.30517578125
141070,0.0350341796875,0.0885009765625,1.027587890625,0.9155272841453552,-0.2441406100988388,0.3662109076976776
141090,0.03271484375,0.08837890625,1.0225830078125,0.9155272841453552,-0.2441406100988388,0.3662109076976776
141106,0.0318603515625,0.0865478515625,1.0189208984375,0.9155272841453552,-0.2441406100988388,0.3662109076976776
141126,0.03515625,0.0869140625,1.02001953125,0.9155272841453552,-0.1831054538488388,0.3662109076976776
141146,0.0343017578125,0.0889892578125,1.01904296875,0.9155272841453552,-0.1831054538488388,0.30517578125
141166,0.0328369140625,0.0875244140625,1.02490234375,0.9155272841453552,-0.2441406100988388,0.3662109076976776
141178,0.033203125,0.08740234375,1.0220947265625,0.9765624403953552,-0.2441406100988388,0.4272460639476776
141194,0.033935546875,0.0872802734375,1.0201416015625,0.9155272841453552,-0.2441406100988388,0.3662109076976776
141211,0.0335693359375,0.0867919921875,1.018310546875,0.8544921278953552,-0.2441406100988388,0.30517578125
141228,0.0341796875,0.086669921875,1.0216064453125,0.8544921278953552,-0.2441406100988388,0.30517578125
141244,0.0340576171875,0.0872802734375,1.021240234375,0.9155272841453552,-0.2441406100988388,0.30517578125
141263,0.0333251953125,0.0875244140625,1.02099609375,0.9155272841453552,-0.2441406100988388,0.3662109076976776
141284,0.033203125,0.0872802734375,1.021484375,0.8544921278953552,-0.1831054538488388,0.3662109076976776
141300,0.0340576171875,0.08740234375,1.0234375,0.9155272841453552,-0.2441406100988388,0.30517578125
141317,0.0333251953125,0.087890625,1.02099609375,0.9765624403953552,-0.2441406100988388,0.3662109076976776
141335,0.0340576171875,0.0872802734375,1.021484375,0.9155272841453552,-0.2441406100988388,0.30517578125
141354,0.0350341796875,0.0867919921875,1.0208740234375,0.9155272841453552,-0.1831054538488388,0.3662109076976776
141374,0.0338134765625,0.08642578125,1.0223388671875,0.8544921278953552,-0.1831054538488388,0.30517578125
141397,0.0330810546875,0.087158203125,1.0201416015625,0.9155272841453552,-0.1831054538488388,0.2441406100988388
141410,0.0328369140625,0.0882568359375,1.0233154296875,0.8544921278953552,-0.1831054538488388,0.30517578125
141427,0.033447265625,0.087646484375,1.0224609375,0.8544921278953552,-0.2441406100988388,0.3662109076976776
141446,0.0335693359375,0.086181640625,1.019775390625,0.8544921278953552,-0.1831054538488388,0.3662109076976776
141465,0.033447265625,0.0860595703125,1.022705078125,0.9155272841453552,-0.1220703050494194,0.3662109076976776
141485,0.0335693359375,0.086669921875,1.022705078125,0.8544921278953552,-0.2441406100988388,0.3662109076976776
141504,0.03271484375,0.08837890625,1.01953125,0.7934569716453552,-0.2441406100988388,0.3662109076976776
141524,0.0335693359375,0.0877685546875,1.0211181640625,0.8544921278953552,-0.1831054538488388,0.3662109076976776
141541,0.033447265625,0.087646484375,1.0242919921875,0.8544921278953552,-0.1831054538488388,0.3662109076976776
141562,0.033203125,0.087646484375,1.02197265625,0.8544921278953552,-0.1831054538488388,0.3662109076976776
141578,0.033935546875,0.086669921875,1.0224609375,0.8544921278953552,-0.1831054538488388,0.3662109076976776
141612,0.035400390625,0.087646484375,1.02099609375,0.7934569716453552,-0.30517578125,0.4272460639476776
141628,0.032470703125,0.088134765625,1.0277099609375,0.7934569716453552,-0.2441406100988388,0.3662109076976776
141644,0.0328369140625,0.0870361328125,1.023681640625,0.7934569716453552,-0.1831054538488388,0.4272460639476776
141679,0.03369140625,0.0887451171875,1.0201416015625,0.7934569716453552,-0.30517578125,0.4272460639476776
141695,0.0302734375,0.090087890625,1.03955078125,0.7324218153953552,-0.30517578125,0.30517578125
141712,0.030029296875,0.0870361328125,1.0245361328125,0.7934569716453552,-0.2441406100988388,0.3662109076976776
141728,0.0350341796875,0.0870361328125,1.01708984375,0.7934569716453552,-0.1831054538488388,0.3662109076976776
141747,0.0345458984375,0.0875244140625,1.0130615234375,0.8544921278953552,-0.1831054538488388,0.3662109076976776
141764,0.0330810546875,0.0872802734375,1.010009765625,0.9765624403953552,-0.1220703050494194,0.3662109076976776
141800,0.0335693359375,0.0859375,1.0302734375,0.9155272841453552,-0.1831054538488388,0.30517578125
141817,0.032958984375,0.0860595703125,1.030517578125,0.9155272841453552,-0.1220703050494194,0.30517578125
141834,0.03173828125,0.0860595703125,1.0213623046875,0.9765624403953552,-0.1220703050494194,0.3662109076976776
141850,0.0352783203125,0.087646484375,1.011962890625,0.9765624403953552,-0.1831054538488388,0.3662109076976776
141867,0.0350341796875,0.0882568359375,1.0205078125,0.9765624403953552,-0.2441406100988388,0.3662109076976776
141884,0.032958984375,0.088623046875,1.02392578125,0.9765624403953552,-0.2441406100988388,0.3662109076976776
141917,0.0303955078125,0.0863037109375,1.02685546875,0.9765624403953552,-0.1220703050494194,0.3662109076976776
141938,0.0352783203125,0.0863037109375,1.0162353515625,0.9765624403953552,-0.1831054538488388,0.30517578125
141954,0.03466796875,0.08935546875,1.0213623046875,0.9765624403953552,-0.30517578125,0.3662109076976776
141969,0.0318603515625,0.087890625,1.021484375,0.9765624403953552,-0.2441406100988388,0.4272460639476776
141985,0.0322265625,0.085693359375,1.0177001953125,0.9765624403953552,-0.1831054538488388,0.4272460639476776
142051,0.032958984375,0.087158203125,1.022705078125,0.9155272841453552,-0.2441406100988388,0.3662109076976776
142106,0.0330810546875,0.0859375,1.0191650390625,0.7934569716453552,-0.2441406100988388,0.3662109076976776
142123,0.032470703125,0.0882568359375,1.031982421875,0.8544921278953552,-0.2441406100988388,0.3662109076976776
142155,0.0341796875,0.0858154296875,1.0133056640625,0.9155272841453552,-0.1831054538488388,0.3662109076976776
142189,0.0322265625,0.0877685546875,1.02490234375,0.8544921278953552,-0.30517578125,0.30517578125
142229,0.03515625,0.0863037109375,1.03076171875,0.9155272841453552,-0.1831054538488388,0.3662109076976776
142246,0.03515625,0.0853271484375,1.0260009765625,0.8544921278953552,-0.2441406100988388,0.3662109076976776
142263,0.032958984375,0.086669921875,1.0133056640625,0.8544921278953552,-0.1831054538488388,0.3662109076976776
142283,0.0335693359375,0.089111328125,1.027099609375,0.8544921278953552,-0.2441406100988388,0.3662109076976776
142300,0.0316162109375,0.0877685546875,1.02587890625,0.8544921278953552,-0.1831054538488388,0.4272460639476776
142317,0.032470703125,0.0853271484375,1.019775390625,0.8544921278953552,-0.1831054538488388,0.4272460639476776
142338,0.0345458984375,0.086669921875,1.0211181640625,0.8544921278953552,-0.1831054538488388,0.4272460639476776
142354,0.033203125,0.0882568359375,1.02490234375,0.8544921278953552,-0.1831054538488388,0.3662109076976776
142371,0.031494140625,0.0870361328125,1.01904296875,0.7934569716453552,-0.1831054538488388,0.3662109076976776
142388,0.03173828125,0.0869140625,1.0172119140625,0.7934569716453552,-0.1831054538488388,0.30517578125
142406,0.0338134765625,0.087158203125,1.024169921875,0.8544921278953552,-0.2441406100988388,0.3662109076976776
142422,0.0328369140625,0.08837890625,1.0245361328125,0.8544921278953552,-0.2441406100988388,0.3662109076976776
142459,0.03271484375,0.0882568359375,1.021484375,0.8544921278953552,-0.1831054538488388,0.30517578125
142475,0.03466796875,0.0875244140625,1.0234375,0.8544921278953552,-0.2441406100988388,0.2441406100988388
142492,0.034423828125,0.0863037109375,1.015869140625,0.8544921278953552,-0.1831054538488388,0.30517578125
142509,0.033203125,0.0867919921875,1.019287109375,0.8544921278953552,-0.1831054538488388,0.3662109076976776
142525,0.033935546875,0.0885009765625,1.0225830078125,0.7934569716453552,-0.1831054538488388,0.3662109076976776
142574,0.03271484375,0.0865478515625,1.0228271484375,0.8544921278953552,-0.1831054538488388,0.3662109076976776
142595,0.0330810546875,0.0869140625,1.02099609375,0.8544921278953552,-0.1220703050494194,0.30517578125
142612,0.0338134765625,0.087158203125,1.020263671875,0.8544921278953552,-0.1831054538488388,0.3662109076976776
142629,0.033447265625,0.0870361328125,1.0208740234375,0.9155272841453552,-0.1831054538488388,0.4272460639476776
142645,0.0341796875,0.0877685546875,1.0230712890625,0.9155272841453552,-0.1831054538488388,0.3662109076976776
142662,0.033447265625,0.086669921875,1.021484375,0.8544921278953552,-0.1220703050494194,0.3662109076976776
142698,0.0330810546875,0.0870361328125,1.0218505859375,0.8544921278953552,-0.1831054538488388,0.3662109076976776
142714,0.03369140625,0.0875244140625,1.019775390625,0.8544921278953552,-0.1831054538488388,0.4272460639476776
142731,0.0335693359375,0.0872802734375,1.0228271484375,0.8544921278953552,-0.1831054538488388,0.3662109076976776
142748,0.033935546875,0.0870361328125,1.0252685546875,0.9155272841453552,-0.1831054538488388,0.3662109076976776
142765,0.0330810546875,0.0865478515625,1.020751953125,0.8544921278953552,-0.2441406100988388,0.4272460639476776
142781,0.0330810546875,0.0870361328125,1.0211181640625,0.7934569716453552,-0.1831054538488388,0.3662109076976776
142813,0.0333251953125,0.0872802734375,1.0211181640625,0.8544921278953552,-0.1831054538488388,0.3662109076976776
142834,0.0338134765625,0.0867919921875,1.02197265625,0.8544921278953552,-0.1220703050494194,0.3662109076976776
142850,0.0338134765625,0.0869140625,1.0245361328125,0.9155272841453552,-0.1220703050494194,0.3662109076976776
142867,0.0338134765625,0.087646484375,1.0208740234375,0.8544921278953552,-0.2441406100988388,0.3662109076976776
142886,0.0335693359375,0.087646484375,1.021484375,0.8544921278953552,-0.1831054538488388,0.3662109076976776
142903,0.0328369140625,0.08740234375,1.0213623046875,0.8544921278953552,-0.1831054538488388,0.30517578125
142936,0.0338134765625,0.0867919921875,1.0216064453125,0.8544921278953552,-0.1831054538488388,0.4272460639476776
142984,0.0321044921875,0.0877685546875,1.0206298828125,0.9155272841453552,-0.1831054538488388,0.4272460639476776
143004,0.03369140625,0.0885009765625,1.0203857421875,0.9155272841453552,-0.2441406100988388,0.4272460639476776
143026,0.03369140625,0.0875244140625,1.02099609375,0.9155272841453552,-0.2441406100988388,0.4272460639476776
143042,0.03369140625,0.0865478515625,1.0208740234375,0.8544921278953552,-0.1831054538488388,0.3662109076976776
143061,0.033935546875,0.0869140625,1.0213623046875,0.8544921278953552,-0.1831054538488388,0.3662109076976776
143078,0.0328369140625,0.0877685546875,1.023193359375,0.8544921278953552,-0.1831054538488388,0.3662109076976776
143113,0.0345458984375,0.086669921875,1.0196533203125,0.8544921278953552,-0.1831054538488388,0.30517578125
143130,0.03466796875,0.0872802734375,1.0218505859375,0.8544921278953552,-0.1831054538488388,0.30517578125
143146,0.0335693359375,0.0872802734375,1.0223388671875,0.8544921278953552,-0.1831054538488388,0.3662109076976776
143182,0.0341796875,0.087890625,1.021240234375,0.8544921278953552,-0.1831054538488388,0.3662109076976776
143204,0.03369140625,0.088134765625,1.0220947265625,0.8544921278953552,-0.1831054538488388,0.3662109076976776
143219,0.032958984375,0.086181640625,1.0206298828125,0.8544921278953552,-0.1831054538488388,0.4272460639476776
143240,0.03271484375,0.0869140625,1.02197265625,0.9155272841453552,-0.1831054538488388,0.30517578125
143257,0.033447265625,0.08740234375,1.02197265625,0.8544921278953552,-0.1831054538488388,0.3662109076976776
143273,0.0333251953125,0.0872802734375,1.022216796875,0.7934569716453552,-0.1831054538488388,0.3662109076976776
143290,0.0333251953125,0.086669921875,1.0218505859375,0.9155272841453552,-0.1831054538488388,0.3662109076976776
143307,0.0328369140625,0.0867919921875,1.0213623046875,0.8544921278953552,-0.2441406100988388,0.3662109076976776
143324,0.033447265625,0.088134765625,1.0216064453125,0.8544921278953552,-0.1831054538488388,0.3662109076976776
143345,0.0330810546875,0.087646484375,1.022216796875,0.9155272841453552,-0.1831054538488388,0.3662109076976776
143364,0.033447265625,0.0870361328125,1.02197265625,0.9155272841453552,-0.1220703050494194,0.3662109076976776
143380,0.03369140625,0.0867919921875,1.0224609375,0.8544921278953552,-0.1831054538488388,0.3662109076976776
143411,0.033203125,0.08740234375,1.02197265625,0.8544921278953552,-0.2441406100988388,0.3662109076976776
143427,0.0335693359375,0.087646484375,1.021728515625,0.7934569716453552,-0.1220703050494194,0.3662109076976776
143444,0.0343017578125,0.087646484375,1.021240234375,0.9155272841453552,-0.1220703050494194,0.3662109076976776
143475,0.0335693359375,0.088134765625,1.0211181640625,0.8544921278953552,-0.1831054538488388,0.3662109076976776
143496,0.0338134765625,0.087890625,1.0228271484375,0.8544921278953552,-0.1831054538488388,0.3662109076976776
143513,0.0335693359375,0.0880126953125,1.02197265625,0.8544921278953552,-0.1831054538488388,0.3662109076976776
143530,0.0328369140625,0.087646484375,1.021484375,0.8544921278953552,-0.1831054538488388,0.3662109076976776
143546,0.033203125,0.087890625,1.021484375,0.8544921278953552,-0.1831054538488388,0.3662109076976776
143563,0.0340576171875,0.088134765625,1.0223388671875,0.8544921278953552,-0.1220703050494194,0.3662109076976776
143593,0.0335693359375,0.08740234375,1.021240234375,0.8544921278953552,-0.1831054538488388,0.3662109076976776
143615,0.033447265625,0.08740234375,1.0213623046875,0.9155272841453552,-0.1831054538488388,0.3662109076976776
143631,0.0333251953125,0.0858154296875,1.02197265625,0.9765624403953552,-0.1831054538488388,0.4272460639476776
143648,0.033203125,0.088134765625,1.0211181640625,0.9155272841453552,-0.1831054538488388,0.3662109076976776
143665,0.0333251953125,0.08740234375,1.0211181640625,0.8544921278953552,-0.1831054538488388,0.3662109076976776
143714,0.0318603515625,0.087158203125,1.02197265625,0.8544921278953552,-0.2441406100988388,0.3662109076976776
143735,0.032470703125,0.0870361328125,1.02001953125,0.7934569716453552,-0.1831054538488388,0.30517578125
143751,0.0333251953125,0.08740234375,1.0203857421875,0.8544921278953552,-0.1831054538488388,0.30517578125
143768,0.0333251953125,0.0875244140625,1.0216064453125,0.8544921278953552,-0.1831054538488388,0.30517578125
143785,0.0340576171875,0.086181640625,1.0206298828125,0.8544921278953552,-0.1831054538488388,0.4272460639476776
143801,0.033935546875,0.0865478515625,1.020751953125,0.9155272841453552,-0.1831054538488388,0.3662109076976776
143833,0.03271484375,0.0880126953125,1.0211181640625,0.7934569716453552,-0.1831054538488388,0.3662109076976776
143854,0.032470703125,0.0882568359375,1.021728515625,0.8544921278953552,-0.2441406100988388,0.3662109076976776
143870,0.0330810546875,0.0867919921875,1.02197265625,0.9765624403953552,-0.1831054538488388,0.3662109076976776
143887,0.03369140625,0.08642578125,1.0216064453125,0.9155272841453552,-0.1831054538488388,0.3662109076976776
143904,0.03369140625,0.08642578125,1.0216064453125,0.8544921278953552,-0.1831054538488388,0.3662109076976776
143954,0.0330810546875,0.0875244140625,1.0218505859375,0.8544921278953552,-0.0610351525247097,0.4272460639476776
143971,0.0333251953125,0.0867919921875,1.021240234375,0.8544921278953552,-0.1831054538488388,0.3662109076976776
143990,0.0340576171875,0.0875244140625,1.0208740234375,0.9155272841453552,-0.2441406100988388,0.3662109076976776
144006,0.0328369140625,0.0867919921875,1.0220947265625,0.9155272841453552,-0.1831054538488388,0.3662109076976776
144073,0.032958984375,0.086669921875,1.0225830078125,0.8544921278953552,-0.1831054538488388,0.3662109076976776
144089,0.0322265625,0.0869140625,1.0218505859375,0.8544921278953552,-0.2441406100988388,0.3662109076976776
144105,0.0333251953125,0.088134765625,1.021484375,0.8544921278953552,-0.30517578125,0.3662109076976776
144141,0.0333251953125,0.086669921875,1.02099609375,0.8544921278953552,-0.0610351525247097,0.30517578125
144157,0.0333251953125,0.0877685546875,1.0201416015625,0.8544921278953552,-0.1220703050494194,0.3662109076976776
144174,0.0338134765625,0.0877685546875,1.0211181640625,0.7934569716453552,-0.1831054538488388,0.3662109076976776
144191,0.033447265625,0.087158203125,1.0242919921875,0.9155272841453552,-0.1831054538488388,0.3662109076976776
144207,0.033203125,0.0872802734375,1.0216064453125,0.9155272841453552,-0.1831054538488388,0.3662109076976776
144223,0.0330810546875,0.08740234375,1.0198974609375,0.8544921278953552,-0.1220703050494194,0.3662109076976776
144256,0.033203125,0.0867919921875,1.020263671875,0.8544921278953552,-0.2441406100988388,0.3662109076976776
144273,0.0328369140625,0.0872802734375,1.0213623046875,0.7934569716453552,-0.1831054538488388,0.30517578125
144292,0.0330810546875,0.086669921875,1.0203857421875,0.8544921278953552,-0.1220703050494194,0.3662109076976776
144308,0.03369140625,0.086669921875,1.0179443359375,0.9155272841453552,-0.1831054538488388,0.3662109076976776
144325,0.0340576171875,0.0865478515625,1.020263671875,0.9765624403953552,-0.2441406100988388,0.4272460639476776
144342,0.0333251953125,0.0872802734375,1.0216064453125,0.8544921278953552,-0.2441406100988388,0.4272460639476776
144372,0.0340576171875,0.0863037109375,1.02197265625,0.8544921278953552,-0.1220703050494194,0.30517578125
144389,0.0330810546875,0.087646484375,1.021240234375,0.8544921278953552,-0.2441406100988388,0.30517578125
144406,0.0333251953125,0.08837890625,1.023681640625,0.8544921278953552,-0.1831054538488388,0.2441406100988388
144426,0.0333251953125,0.0875244140625,1.0213623046875,0.9155272841453552,-0.1831054538488388,0.3662109076976776
144446,0.03271484375,0.0870361328125,1.0205078125,0.9155272841453552,-0.1831054538488388,0.3662109076976776
144463,0.0330810546875,0.087890625,1.0233154296875,0.9155272841453552,-0.2441406100988388,0.4272460639476776
144496,0.033203125,0.087890625,1.023681640625,0.8544921278953552,-0.2441406100988388,0.3662109076976776
144513,0.033935546875,0.087646484375,1.02294921875,0.9155272841453552,-0.2441406100988388,0.4272460639476776
144529,0.0343017578125,0.086669921875,1.0216064453125,0.8544921278953552,-0.1220703050494194,0.4272460639476776
144545,0.0335693359375,0.086669921875,1.02197265625,0.9155272841453552,-0.1220703050494194,0.3662109076976776
144567,0.0330810546875,0.086669921875,1.0223388671875,0.9155272841453552,-0.1831054538488388,0.3662109076976776
144583,0.033447265625,0.088134765625,1.0216064453125,0.9155272841453552,-0.1831054538488388,0.3662109076976776
144600,0.0338134765625,0.087158203125,1.021484375,0.9155272841453552,-0.1831054538488388,0.3662109076976776
144621,0.0340576171875,0.087158203125,1.0213623046875,0.7934569716453552,-0.1831054538488388,0.3662109076976776
144637,0.0343017578125,0.0869140625,1.02197265625,0.9155272841453552,-0.1831054538488388,0.30517578125
144654,0.0333251953125,0.0872802734375,1.0223388671875,0.9155272841453552,-0.2441406100988388,0.30517578125
144671,0.03271484375,0.0869140625,1.019287109375,0.9155272841453552,-0.2441406100988388,0.30517578125
144688,0.03369140625,0.0875244140625,1.019775390625,0.9155272841453552,-0.1220703050494194,0.3662109076976776
144704,0.03369140625,0.088134765625,1.0225830078125,0.8544921278953552,-0.1220703050494194,0.3662109076976776
144721,0.0318603515625,0.0877685546875,1.0223388671875,0.8544921278953552,-0.1831054538488388,0.4272460639476776
144742,0.0322265625,0.087890625,1.021240234375,0.8544921278953552,-0.1831054538488388,0.3662109076976776
144758,0.0328369140625,0.0867919921875,1.0206298828125,0.8544921278953552,-0.1220703050494194,0.3662109076976776
144775,0.0338134765625,0.0867919921875,1.0208740234375,0.8544921278953552,-0.1831054538488388,0.3662109076976776
144792,0.033935546875,0.0867919921875,1.0233154296875,0.8544921278953552,-0.2441406100988388,0.4272460639476776
144808,0.032470703125,0.0865478515625,1.0196533203125,0.9765624403953552,-0.1831054538488388,0.3662109076976776
144824,0.0325927734375,0.086181640625,1.0206298828125,0.9155272841453552,-0.1831054538488388,0.3662109076976776
144845,0.032470703125,0.08544921875,1.02099609375,0.8544921278953552,-0.1831054538488388,0.3662109076976776
144862,0.0325927734375,0.08544921875,1.019287109375,0.9155272841453552,-0.1831054538488388,0.30517578125
144879,0.0322265625,0.0877685546875,1.0238037109375,0.9765624403953552,-0.1831054538488388,0.30517578125
144912,0.03271484375,0.0872802734375,1.0198974609375,0.8544921278953552,-0.2441406100988388,0.30517578125
144928,0.03466796875,0.0859375,1.0179443359375,0.8544921278953552,-0.1831054538488388,0.3662109076976776
144944,0.0343017578125,0.086669921875,1.021240234375,0.8544921278953552,-0.1831054538488388,0.3662109076976776
144965,0.0321044921875,0.0885009765625,1.026611328125,0.9155272841453552,-0.1831054538488388,0.3662109076976776
144984,0.0323486328125,0.0872802734375,1.018798828125,0.7934569716453552,-0.1220703050494194,0.4272460639476776
144999,0.0341796875,0.08740234375,1.0230712890625,0.7934569716453552,-0.1831054538488388,0.4272460639476776
145032,0.0328369140625,0.0859375,1.0162353515625,0.8544921278953552,-0.1220703050494194,0.3662109076976776
145049,0.0338134765625,0.0872802734375,1.023681640625,0.7934569716453552,-0.1220703050494194,0.3662109076976776
145066,0.03466796875,0.0877685546875,1.0255126953125,0.8544921278953552,-0.1220703050494194,0.4272460639476776
145108,0.03271484375,0.0869140625,1.022216796875,0.8544921278953552,-0.1831054538488388,0.3662109076976776
145124,0.0338134765625,0.0863037109375,1.0225830078125,0.8544921278953552,-0.2441406100988388,0.3662109076976776
145141,0.0335693359375,0.0875244140625,1.021240234375,0.8544921278953552,-0.1831054538488388,0.3662109076976776
145162,0.033203125,0.08740234375,1.0201416015625,0.8544921278953552,-0.1831054538488388,0.30517578125
145178,0.0330810546875,0.0877685546875,1.021484375,0.8544921278953552,-0.1831054538488388,0.3662109076976776
145195,0.0338134765625,0.087646484375,1.0220947265625,0.8544921278953552,-0.1220703050494194,0.3662109076976776
145212,0.0340576171875,0.08740234375,1.01904296875,0.8544921278953552,-0.1831054538488388,0.4272460639476776
145229,0.0335693359375,0.0869140625,1.022705078125,0.7934569716453552,-0.1831054538488388,0.3662109076976776
145250,0.033935546875,0.0869140625,1.0238037109375,0.8544921278953552,-0.1831054538488388,0.3662109076976776
145266,0.0330810546875,0.086669921875,1.0194091796875,0.8544921278953552,-0.1831054538488388,0.3662109076976776
145285,0.0333251953125,0.0867919921875,1.0234375,0.7934569716453552,-0.1220703050494194,0.3662109076976776
145302,0.03369140625,0.0867919921875,1.0216064453125,0.7934569716453552,-0.1220703050494194,0.3662109076976776
145341,0.0341796875,0.0867919921875,1.0203857421875,0.7934569716453552,-0.1831054538488388,0.4272460639476776
145357,0.0338134765625,0.08642578125,1.02001953125,0.7934569716453552,-0.1831054538488388,0.4272460639476776
145374,0.0333251953125,0.0870361328125,1.022216796875,0.8544921278953552,-0.2441406100988388,0.4272460639476776
145390,0.0335693359375,0.087158203125,1.0228271484375,0.8544921278953552,-0.1831054538488388,0.4272460639476776
145413,0.033935546875,0.0865478515625,1.022216796875,0.8544921278953552,-0.1831054538488388,0.4272460639476776
145429,0.0343017578125,0.0872802734375,1.0218505859375,0.8544921278953552,-0.1831054538488388,0.30517578125
145446,0.03369140625,0.087890625,1.0206298828125,0.8544921278953552,-0.1831054538488388,0.3662109076976776
145465,0.033203125,0.0877685546875,1.0218505859375,0.9155272841453552,-0.1831054538488388,0.3662109076976776
145482,0.03369140625,0.087158203125,1.021484375,0.7934569716453552,-0.1220703050494194,0.30517578125
145514,0.0340576171875,0.088623046875,1.020751953125,0.8544921278953552,-0.2441406100988388,0.3662109076976776
145536,0.0338134765625,0.0885009765625,1.0205078125,0.9155272841453552,-0.2441406100988388,0.3662109076976776
145552,0.033447265625,0.0877685546875,1.0203857421875,0.9155272841453552,-0.1831054538488388,0.3662109076976776
145569,0.0335693359375,0.0880126953125,1.020263671875,0.9155272841453552,-0.1831054538488388,0.30517578125
145586,0.0338134765625,0.0875244140625,1.022705078125,0.8544921278953552,-0.1831054538488388,0.3662109076976776
145602,0.033447265625,0.0880126953125,1.0225830078125,0.8544921278953552,-0.1220703050494194,0.4272460639476776
145634,0.0333251953125,0.0875244140625,1.0211181640625,0.9155272841453552,-0.1831054538488388,0.30517578125
145650,0.033935546875,0.087646484375,1.020263671875,0.9155272841453552,-0.1220703050494194,0.2441406100988388
145666,0.0338134765625,0.0870361328125,1.02001953125,0.9155272841453552,-0.1831054538488388,0.30517578125
145708,0.0335693359375,0.0865478515625,1.0211181640625,0.9155272841453552,-0.1831054538488388,0.4272460639476776
145724,0.0347900390625,0.0867919921875,1.0211181640625,0.9155272841453552,-0.1831054538488388,0.4272460639476776
145741,0.0338134765625,0.0877685546875,1.023193359375,0.7934569716453552,-0.2441406100988388,0.30517578125
145762,0.0335693359375,0.0875244140625,1.0228271484375,0.8544921278953552,-0.2441406100988388,0.3662109076976776
145778,0.032958984375,0.087158203125,1.021484375,0.9155272841453552,-0.2441406100988388,0.4272460639476776
145795,0.03466796875,0.0880126953125,1.0238037109375,0.9155272841453552,-0.2441406100988388,0.3662109076976776
145812,0.0335693359375,0.086181640625,1.0191650390625,0.8544921278953552,-0.1831054538488388,0.3662109076976776
145829,0.0335693359375,0.0869140625,1.0205078125,0.8544921278953552,-0.1831054538488388,0.3662109076976776
145850,0.0335693359375,0.08837890625,1.022216796875,0.9155272841453552,-0.1831054538488388,0.3662109076976776
145866,0.03271484375,0.0858154296875,1.02099609375,0.8544921278953552,-0.2441406100988388,0.3662109076976776
145884,0.0325927734375,0.0877685546875,1.0230712890625,0.8544921278953552,-0.30517578125,0.30517578125
145901,0.0325927734375,0.087646484375,1.0218505859375,0.7934569716453552,-0.1831054538488388,0.30517578125
145931,0.033203125,0.087646484375,1.02001953125,0.8544921278953552,-0.1831054538488388,0.4272460639476776
145948,0.0338134765625,0.0872802734375,1.019775390625,0.9155272841453552,-0.1831054538488388,0.3662109076976776
145964,0.0345458984375,0.087890625,1.0216064453125,0.8544921278953552,-0.1831054538488388,0.30517578125
145993,0.0340576171875,0.086181640625,1.0228271484375,0.9155272841453552,-0.2441406100988388,0.4272460639476776
146015,0.03369140625,0.08642578125,1.0228271484375,0.9155272841453552,-0.1831054538488388,0.3662109076976776
146031,0.0330810546875,0.087646484375,1.020263671875,0.8544921278953552,-0.1220703050494194,0.4272460639476776
146048,0.03369140625,0.0877685546875,1.0211181640625,0.7934569716453552,-0.1831054538488388,0.4272460639476776
146065,0.0335693359375,0.0875244140625,1.0220947265625,0.7934569716453552,-0.1831054538488388,0.4272460639476776
146081,0.0330810546875,0.0875244140625,1.020263671875,0.7934569716453552,-0.2441406100988388,0.3662109076976776
146113,0.033447265625,0.0872802734375,1.0218505859375,0.8544921278953552,-0.1831054538488388,0.3662109076976776
146135,0.033447265625,0.08740234375,1.021728515625,0.8544921278953552,-0.1831054538488388,0.3662109076976776
146151,0.03369140625,0.0865478515625,1.021728515625,0.8544921278953552,-0.1831054538488388,0.3662109076976776
146168,0.0321044921875,0.0869140625,1.020263671875,0.7934569716453552,-0.1831054538488388,0.30517578125
146185,0.0328369140625,0.08837890625,1.0203857421875,0.7934569716453552,-0.1831054538488388,0.30517578125
146201,0.0338134765625,0.087646484375,1.0206298828125,0.8544921278953552,-0.1831054538488388,0.3662109076976776
146234,0.03369140625,0.0869140625,1.0211181640625,0.8544921278953552,-0.1831054538488388,0.3662109076976776
146256,0.033935546875,0.0870361328125,1.020263671875,0.8544921278953552,-0.1831054538488388,0.3662109076976776
146272,0.0333251953125,0.087158203125,1.0211181640625,0.8544921278953552,-0.2441406100988388,0.3662109076976776
146286,0.032470703125,0.0872802734375,1.0225830078125,0.8544921278953552,-0.30517578125,0.30517578125
146304,0.0323486328125,0.08740234375,1.0228271484375,0.9155272841453552,-0.2441406100988388,0.30517578125
146321,0.0330810546875,0.0872802734375,1.0220947265625,0.9155272841453552,-0.1831054538488388,0.3662109076976776
146354,0.033447265625,0.0869140625,1.0198974609375,0.7934569716453552,-0.2441406100988388,0.3662109076976776
146376,0.033447265625,0.0880126953125,1.020751953125,0.7934569716453552,-0.2441406100988388,0.3662109076976776
146392,0.0328369140625,0.0875244140625,1.022705078125,0.9155272841453552,-0.1831054538488388,0.30517578125
146404,0.03369140625,0.0867919921875,1.0198974609375,0.9155272841453552,-0.2441406100988388,0.2441406100988388
146473,0.0325927734375,0.087646484375,1.0208740234375,0.8544921278953552,-0.1220703050494194,0.3662109076976776
146495,0.0328369140625,0.087646484375,1.0206298828125,0.8544921278953552,-0.1831054538488388,0.3662109076976776
146511,0.0343017578125,0.0870361328125,1.0218505859375,0.9765624403953552,-0.2441406100988388,0.30517578125
146528,0.033447265625,0.086669921875,1.0218505859375,0.9765624403953552,-0.2441406100988388,0.30517578125
146545,0.033203125,0.0867919921875,1.0211181640625,0.9155272841453552,-0.1831054538488388,0.3662109076976776
146561,0.0330810546875,0.0869140625,1.0201416015625,0.8544921278953552,-0.1831054538488388,0.3662109076976776
146592,0.0338134765625,0.087158203125,1.022216796875,0.8544921278953552,-0.1831054538488388,0.4272460639476776
146612,0.032958984375,0.087158203125,1.02197265625,0.8544921278953552,-0.1831054538488388,0.4272460639476776
146628,0.03369140625,0.0865478515625,1.021484375,0.9155272841453552,-0.1220703050494194,0.4272460639476776
146644,0.0335693359375,0.086669921875,1.020263671875,0.9155272841453552,-0.1831054538488388,0.3662109076976776
146664,0.0335693359375,0.0875244140625,1.0208740234375,0.9155272841453552,-0.2441406100988388,0.4272460639476776
146681,0.0333251953125,0.0875244140625,1.0225830078125,0.9155272841453552,-0.1831054538488388,0.4272460639476776
146713,0.033935546875,0.08740234375,1.0203857421875,0.9155272841453552,-0.1831054538488388,0.3662109076976776
146734,0.0340576171875,0.087158203125,1.0208740234375,0.8544921278953552,-0.1831054538488388,0.30517578125
146750,0.0338134765625,0.08740234375,1.0205078125,0.8544921278953552,-0.2441406100988388,0.3662109076976776
146762,0.0328369140625,0.0870361328125,1.022705078125,0.9155272841453552,-0.2441406100988388,0.3662109076976776
146783,0.032470703125,0.0872802734375,1.0224609375,0.9155272841453552,-0.1831054538488388,0.3662109076976776
146799,0.0350341796875,0.0863037109375,1.0206298828125,0.8544921278953552,-0.1831054538488388,0.3662109076976776
146816,0.03515625,0.087646484375,1.01904296875,0.7934569716453552,-0.2441406100988388,0.3662109076976776
146833,0.03466796875,0.088134765625,1.02001953125,0.7934569716453552,-0.2441406100988388,0.3662109076976776
146850,0.032958984375,0.0888671875,1.026611328125,0.8544921278953552,-0.1831054538488388,0.3662109076976776
146871,0.032958984375,0.08740234375,1.01953125,0.8544921278953552,-0.1831054538488388,0.4272460639476776
146887,0.0335693359375,0.0870361328125,1.019775390625,0.8544921278953552,-0.2441406100988388,0.4272460639476776
146904,0.033447265625,0.0872802734375,1.02099609375,0.8544921278953552,-0.2441406100988388,0.3662109076976776
146920,0.0338134765625,0.087890625,1.0224609375,0.8544921278953552,-0.2441406100988388,0.3662109076976776
146953,0.0333251953125,0.087158203125,1.023193359375,0.8544921278953552,-0.1831054538488388,0.3662109076976776
146969,0.0338134765625,0.0855712890625,1.019287109375,0.9155272841453552,-0.1831054538488388,0.3662109076976776
146985,0.03466796875,0.0870361328125,1.0213623046875,0.8544921278953552,-0.2441406100988388,0.3662109076976776
147021,0.031982421875,0.0875244140625,1.0260009765625,0.8544921278953552,-0.1831054538488388,0.30517578125
147037,0.0330810546875,0.0859375,1.021240234375,0.8544921278953552,-0.1831054538488388,0.3662109076976776
147054,0.0343017578125,0.08544921875,1.0189208984375,0.8544921278953552,-0.1220703050494194,0.30517578125
147071,0.0343017578125,0.0860595703125,1.0213623046875,0.9155272841453552,-0.1831054538488388,0.3662109076976776
147087,0.0322265625,0.087646484375,1.0218505859375,0.9155272841453552,-0.1831054538488388,0.4272460639476776
147104,0.032470703125,0.0872802734375,1.0203857421875,0.8544921278953552,-0.1220703050494194,0.3662109076976776
147137,0.03369140625,0.0865478515625,1.02197265625,0.9155272841453552,-0.1220703050494194,0.30517578125
147152,0.03369140625,0.086181640625,1.0213623046875,0.9155272841453552,-0.1831054538488388,0.3662109076976776
147174,0.0328369140625,0.0867919921875,1.0218505859375,0.9155272841453552,-0.1831054538488388,0.3662109076976776
147189,0.033935546875,0.0875244140625,1.019775390625,0.9155272841453552,-0.1220703050494194,0.30517578125
147206,0.0341796875,0.0872802734375,1.0213623046875,0.8544921278953552,-0.1831054538488388,0.3662109076976776
147222,0.033447265625,0.0858154296875,1.0216064453125,0.9155272841453552,-0.1831054538488388,0.3662109076976776
147254,0.033935546875,0.0872802734375,1.0201416015625,0.9155272841453552,-0.1220703050494194,0.3662109076976776
147270,0.0340576171875,0.0875244140625,1.0223388671875,0.9155272841453552,-0.1220703050494194,0.30517578125
147286,0.0345458984375,0.087890625,1.0279541015625,0.9155272841453552,-0.1831054538488388,0.3662109076976776
147328,0.0328369140625,0.0855712890625,1.016357421875,0.8544921278953552,-0.1220703050494194,0.3662109076976776
147344,0.033935546875,0.0869140625,1.022705078125,0.8544921278953552,-0.1220703050494194,0.3662109076976776
147361,0.0352783203125,0.087646484375,1.02490234375,0.8544921278953552,-0.1831054538488388,0.3662109076976776
147382,0.0333251953125,0.087158203125,1.018798828125,0.8544921278953552,-0.1831054538488388,0.3662109076976776
147398,0.0340576171875,0.08642578125,1.021240234375,0.8544921278953552,-0.1831054538488388,0.3662109076976776
147415,0.0345458984375,0.0865478515625,1.0234375,0.9155272841453552,-0.1831054538488388,0.3662109076976776
147432,0.03271484375,0.0865478515625,1.015869140625,0.9155272841453552,-0.1220703050494194,0.3662109076976776
147448,0.03125,0.0870361328125,1.020751953125,0.8544921278953552,-0.1220703050494194,0.3662109076976776
147469,0.0321044921875,0.0869140625,1.0250244140625,0.8544921278953552,-0.1220703050494194,0.3662109076976776
147485,0.032958984375,0.0870361328125,1.02490234375,0.8544921278953552,-0.0610351525247097,0.4272460639476776
147503,0.03271484375,0.0858154296875,1.021484375,0.9155272841453552,-0.0610351525247097,0.3662109076976776
147520,0.0333251953125,0.088134765625,1.0269775390625,0.9155272841453552,-0.0610351525247097,0.3662109076976776
147552,0.0352783203125,0.087158203125,1.020263671875,0.9155272841453552,-0.1220703050494194,0.3662109076976776
147568,0.03369140625,0.087890625,1.0201416015625,0.7934569716453552,-0.1831054538488388,0.3662109076976776
147584,0.03369140625,0.0877685546875,1.0225830078125,0.7324218153953552,-0.1220703050494194,0.3662109076976776
147620,0.0333251953125,0.087158203125,1.0216064453125,0.8544921278953552,-0.1831054538488388,0.30517578125
147636,0.0325927734375,0.088134765625,1.0206298828125,0.9155272841453552,-0.1220703050494194,0.3662109076976776
147653,0.0335693359375,0.087158203125,1.017822265625,0.8544921278953552,-0.1831054538488388,0.3662109076976776
147669,0.03466796875,0.0872802734375,1.020751953125,0.8544921278953552,-0.1831054538488388,0.3662109076976776
147686,0.0341796875,0.0877685546875,1.025634765625,0.7934569716453552,-0.1831054538488388,0.3662109076976776
147703,0.0333251953125,0.0870361328125,1.0211181640625,0.8544921278953552,-0.2441406100988388,0.30517578125
147733,0.0341796875,0.0858154296875,1.022705078125,0.9155272841453552,-0.1831054538488388,0.3662109076976776
147754,0.034423828125,0.0867919921875,1.0234375,0.8544921278953552,-0.1831054538488388,0.4272460639476776
147770,0.0335693359375,0.0869140625,1.0211181640625,0.8544921278953552,-0.2441406100988388,0.4272460639476776
147787,0.033447265625,0.086669921875,1.017822265625,0.7934569716453552,-0.2441406100988388,0.3662109076976776
147806,0.03369140625,0.08544921875,1.0113525390625,0.7934569716453552,-0.30517578125,0.3662109076976776
147822,0.0328369140625,0.089111328125,1.048828125,0.8544921278953552,-0.1831054538488388,0.3662109076976776
147852,0.0318603515625,0.084716796875,1.0079345703125,0.7934569716453552,-0.1831054538488388,0.3662109076976776
147874,0.03564453125,0.08740234375,1.017822265625,0.7934569716453552,-0.3662109076976776,0.3662109076976776
147890,0.032470703125,0.0894775390625,1.029296875,0.8544921278953552,-0.2441406100988388,0.30517578125
147907,0.03076171875,0.08740234375,1.0267333984375,0.8544921278953552,-0.1831054538488388,0.3662109076976776
147926,0.0335693359375,0.0855712890625,1.017822265625,0.8544921278953552,-0.2441406100988388,0.3662109076976776
147943,0.0360107421875,0.0867919921875,1.0213623046875,0.7934569716453552,-0.1831054538488388,0.3662109076976776
147976,0.03173828125,0.0892333984375,1.019775390625,0.7934569716453552,-0.1831054538488388,0.3662109076976776
147993,0.0323486328125,0.0870361328125,1.0262451171875,0.8544921278953552,-0.1831054538488388,0.4272460639476776
148029,0.0330810546875,0.0875244140625,1.020263671875,0.7324218153953552,-0.1220703050494194,0.30517578125
148045,0.0323486328125,0.089599609375,1.02294921875,0.7934569716453552,-0.0610351525247097,0.30517578125
148062,0.0335693359375,0.0880126953125,1.0289306640625,0.9155272841453552,-0.0610351525247097,0.3662109076976776
148106,0.0325927734375,0.08544921875,1.0194091796875,0.8544921278953552,-0.1831054538488388,0.3662109076976776
148167,0.034912109375,0.085693359375,1.016845703125,0.9155272841453552,-0.0610351525247097,0.3662109076976776
148179,0.0335693359375,0.0869140625,1.0255126953125,0.8544921278953552,-0.1831054538488388,0.3662109076976776
148212,0.0323486328125,0.08837890625,1.0206298828125,0.8544921278953552,-0.2441406100988388,0.3662109076976776
148229,0.0333251953125,0.0858154296875,1.0103759765625,0.9155272841453552,-0.1831054538488388,0.2441406100988388
148245,0.0338134765625,0.0867919921875,1.010498046875,0.9155272841453552,-0.2441406100988388,0.3662109076976776
148277,0.0316162109375,0.09033203125,1.0390625,0.9155272841453552,-0.1220703050494194,0.4272460639476776
148310,0.0364990234375,0.0885009765625,1.0294189453125,0.9155272841453552,-0.2441406100988388,0.4272460639476776
148344,0.02978515625,0.0867919921875,1.0169677734375,0.8544921278953552,-0.1220703050494194,0.4272460639476776
148361,0.033203125,0.085205078125,1.0272216796875,0.8544921278953552,-0.1220703050494194,0.4272460639476776
148392,0.035400390625,0.0867919921875,1.0244140625,0.8544921278953552,-0.1831054538488388,0.30517578125
148408,0.032958984375,0.0882568359375,1.022216796875,0.8544921278953552,-0.2441406100988388,0.30517578125
148425,0.0321044921875,0.085693359375,1.016845703125,0.8544921278953552,-0.1220703050494194,0.3662109076976776
148458,0.0367431640625,0.085205078125,1.02001953125,0.8544921278953552,-0.2441406100988388,0.30517578125
148479,0.0335693359375,0.0863037109375,1.0224609375,0.9155272841453552,-0.1831054538488388,0.3662109076976776
148495,0.0318603515625,0.08837890625,1.0205078125,0.8544921278953552,-0.1831054538488388,0.3662109076976776
148510,0.0341796875,0.08642578125,1.0223388671875,0.8544921278953552,-0.2441406100988388,0.3662109076976776
148526,0.0343017578125,0.087158203125,1.023193359375,0.8544921278953552,-0.1831054538488388,0.3662109076976776
148542,0.032958984375,0.0865478515625,1.0213623046875,0.7934569716453552,-0.1831054538488388,0.3662109076976776
148578,0.033935546875,0.0855712890625,1.0162353515625,0.8544921278953552,-0.2441406100988388,0.4272460639476776
148594,0.0340576171875,0.088623046875,1.024658203125,0.8544921278953552,-0.1831054538488388,0.4272460639476776
148611,0.0333251953125,0.086181640625,1.024169921875,0.8544921278953552,-0.1831054538488388,0.3662109076976776
148628,0.0328369140625,0.0867919921875,1.0242919921875,0.7934569716453552,-0.1220703050494194,0.3662109076976776
148645,0.0330810546875,0.0859375,1.019775390625,0.8544921278953552,-0.1831054538488388,0.3662109076976776
148661,0.0343017578125,0.0872802734375,1.0206298828125,0.8544921278953552,-0.1831054538488388,0.4272460639476776
148693,0.034423828125,0.088134765625,1.0234375,0.8544921278953552,-0.1831054538488388,0.30517578125
148714,0.032470703125,0.0855712890625,1.0223388671875,0.8544921278953552,-0.1831054538488388,0.30517578125
148731,0.0330810546875,0.08544921875,1.0198974609375,0.7934569716453552,-0.1831054538488388,0.3662109076976776
148748,0.0341796875,0.0867919921875,1.0208740234375,0.8544921278953552,-0.1831054538488388,0.3662109076976776
148767,0.0333251953125,0.08740234375,1.023193359375,0.8544921278953552,-0.1831054538488388,0.4272460639476776
148783,0.03271484375,0.0860595703125,1.0208740234375,0.8544921278953552,-0.1831054538488388,0.3662109076976776
148813,0.034912109375,0.0867919921875,1.0228271484375,0.8544921278953552,-0.2441406100988388,0.4272460639476776
148835,0.0340576171875,0.0872802734375,1.0223388671875,0.7934569716453552,-0.2441406100988388,0.4272460639476776
148851,0.032958984375,0.08837890625,1.0213623046875,0.7934569716453552,-0.1220703050494194,0.3662109076976776
148868,0.033935546875,0.0872802734375,1.023193359375,0.8544921278953552,-0.1831054538488388,0.30517578125
148885,0.03369140625,0.087646484375,1.0205078125,0.8544921278953552,-0.1831054538488388,0.30517578125
148901,0.0343017578125,0.08740234375,1.0220947265625,0.8544921278953552,-0.1831054538488388,0.3662109076976776
148932,0.03271484375,0.087646484375,1.0235595703125,0.9765624403953552,-0.2441406100988388,0.30517578125
148954,0.0333251953125,0.0872802734375,1.021728515625,0.9155272841453552,-0.2441406100988388,0.3662109076976776
148970,0.0343017578125,0.0870361328125,1.021240234375,0.9155272841453552,-0.1831054538488388,0.30517578125
148982,0.03271484375,0.0872802734375,1.0216064453125,0.9765624403953552,-0.1831054538488388,0.3662109076976776
149003,0.0325927734375,0.086181640625,1.0218505859375,0.9155272841453552,-0.1831054538488388,0.3662109076976776
149019,0.033447265625,0.085693359375,1.022216796875,0.9155272841453552,-0.1831054538488388,0.3662109076976776
149036,0.0338134765625,0.085693359375,1.021484375,0.8544921278953552,-0.1831054538488388,0.3662109076976776
149053,0.033203125,0.085205078125,1.023193359375,0.8544921278953552,-0.1831054538488388,0.4272460639476776
149074,0.0328369140625,0.085205078125,1.02197265625,0.8544921278953552,-0.1831054538488388,0.4272460639476776
149090,0.033203125,0.0865478515625,1.0218505859375,0.7934569716453552,-0.1831054538488388,0.30517578125
149107,0.033447265625,0.091064453125,1.02001953125,0.7934569716453552,-0.1831054538488388,0.2441406100988388
149124,0.0343017578125,0.0931396484375,1.0208740234375,1.0986328125,-0.2441406100988388,0.30517578125
149140,0.0340576171875,0.091064453125,1.02099609375,1.4648436307907104,-0.2441406100988388,0.3662109076976776
149173,0.03369140625,0.092529296875,1.0181884765625,2.197265625,-0.2441406100988388,0.30517578125
149189,0.0343017578125,0.0941162109375,1.0185546875,2.44140625,-0.2441406100988388,0.30517578125
149204,0.0338134765625,0.0938720703125,1.0245361328125,2.929687261581421,-0.30517578125,0.2441406100988388
149226,0.0335693359375,0.0899658203125,1.0220947265625,3.173827886581421,-0.2441406100988388,0.2441406100988388
149245,0.032958984375,0.090087890625,1.020263671875,3.784179449081421,-0.1831054538488388,0.1220703050494194
149261,0.0325927734375,0.096923828125,1.0196533203125,4.638671875,-0.2441406100988388,0.0610351525247097
149294,0.0321044921875,0.1014404296875,1.015380859375,6.469726085662842,0.0610351525247097,0.0
149360,0.0325927734375,0.1435546875,1.0440673828125,14.587401390075684,3.234863042831421,-0.7934569716453552
149424,0.0372314453125,0.197998046875,1.54931640625,22.216794967651367,-2.44140625,-0.4272460639476776
149440,0.0457763671875,0.1868896484375,1.563720703125,23.071287155151367,-3.479003667831421,-0.4272460639476776
149473,0.060302734375,0.1778564453125,1.5963134765625,20.568845748901367,-5.737304210662842,-0.4882812201976776
149489,0.055419921875,0.176025390625,1.5771484375,17.822265625,-7.385253429412842,0.1220703050494194
149506,0.036376953125,0.17138671875,1.4818115234375,15.380858421325684,-7.995604991912842,0.6713866591453552
149542,0.0078125,0.0999755859375,1.4306640625,10.375975608825684,-7.019042491912842,1.0986328125
149559,0.0,0.056396484375,1.46240234375,6.408690929412842,-6.286620616912842,0.9155272841453552
149576,0.007568359375,0.073486328125,1.492919921875,4.57763671875,-6.042479991912842,0.7934569716453552
149592,0.0078125,0.0714111328125,1.4906005859375,1.4648436307907104,-5.920409679412842,1.03759765625
149609,0.0050048828125,0.0634765625,1.4703369140625,-2.25830078125,-5.432128429412842,1.4648436307907104
149626,0.0006103515625,0.02783203125,1.4222412109375,-6.408690929412842,-4.57763671875,1.7089842557907104
149647,-0.000732421875,0.016357421875,1.39892578125,-8.6669921875,-4.0283203125,1.5869139432907104
149667,-0.0045166015625,0.00146484375,1.3641357421875,-13.000487327575684,-2.624511480331421,1.5258787870407104
149683,-0.004150390625,0.0029296875,1.358642578125,-17.333984375,-1.4648436307907104,1.4648436307907104
149712,-0.0006103515625,-0.0067138671875,1.306396484375,-23.315427780151367,-0.2441406100988388,1.4038084745407104
149728,0.0028076171875,-0.0157470703125,1.2303466796875,-25.146482467651367,0.2441406100988388,1.4648436307907104
149744,0.0030517578125,-0.015625,1.1241455078125,-28.625486373901367,1.4038084745407104,1.3427733182907104
149778,0.0059814453125,-0.017333984375,1.0294189453125,-34.11865234375,4.94384765625,1.03759765625
149798,0.017333984375,-0.0098876953125,0.9886474609375,-35.0341796875,5.310058116912842,0.9155272841453552
149814,0.021728515625,-0.006103515625,0.948486328125,-36.4990234375,5.798339366912842,0.6713866591453552
149831,0.02978515625,0.0045166015625,0.879150390625,-37.04833984375,6.408690929412842,0.4882812201976776
149848,0.0382080078125,0.0150146484375,0.8466796875,-37.109375,6.408690929412842,0.30517578125
149863,0.0361328125,0.024169921875,0.755859375,-36.9873046875,5.432128429412842,0.0610351525247097
149897,0.03369140625,0.0352783203125,0.621826171875,-35.888671875,4.0283203125,-0.2441406100988388
149913,0.033203125,0.034912109375,0.5806884765625,-35.70556640625,3.601073980331421,-0.30517578125
149928,0.0316162109375,0.0372314453125,0.4964599609375,-35.09521484375,2.624511480331421,-0.2441406100988388
149949,0.0262451171875,0.03369140625,0.4095458984375,-34.85107421875,2.25830078125,-0.30517578125
149960,0.023681640625,0.03564453125,0.3511962890625,-34.24072265625,1.8310545682907104,-0.3662109076976776
149977,0.0235595703125,0.0406494140625,0.341552734375,-33.935546875,1.8310545682907104,-0.4272460639476776
150010,0.01611328125,0.052490234375,0.3345947265625,-31.921384811401367,1.2817381620407104,-0.3662109076976776
150027,0.010009765625,0.0582275390625,0.3477783203125,-30.395505905151367,1.5869139432907104,-0.4882812201976776
150044,0.00927734375,0.0682373046875,0.3739013671875,-29.357908248901367,1.7700194120407104,-0.6713866591453552
150063,0.0076904296875,0.0970458984375,0.460205078125,-27.160642623901367,1.7089842557907104,-0.7324218153953552
150129,0.0107421875,0.1890869140625,0.7791748046875,-17.63916015625,1.7089842557907104,-1.4038084745407104
150148,0.013916015625,0.21728515625,0.8614501953125,-11.657713890075684,1.4038084745407104,-1.5869139432907104
150165,0.0169677734375,0.227294921875,0.890625,-9.58251953125,1.15966796875,-1.5869139432907104
150203,0.0308837890625,0.24951171875,0.9635009765625,-1.2817381620407104,0.8544921278953552,-1.8920897245407104
150220,0.038330078125,0.245361328125,0.980224609375,0.7324218153953552,0.6103515625,-1.9531248807907104
150237,0.0462646484375,0.23828125,0.974853515625,4.21142578125,0.0610351525247097,-2.0751953125
150253,0.05322265625,0.242431640625,0.984375,7.690429210662842,0.0,-2.25830078125
150270,0.066162109375,0.244873046875,1.011474609375,10.742186546325684,-0.6713866591453552,-2.38037109375
150287,0.0732421875,0.24755859375,1.0283203125,14.038084983825684,-1.5869139432907104,-2.38037109375
150303,0.073974609375,0.24267578125,1.0283203125,15.563963890075684,-1.9531248807907104,-2.44140625
150322,0.076416015625,0.2440185546875,1.0262451171875,18.6767578125,-2.929687261581421,-2.50244140625
150344,0.074951171875,0.2310791015625,1.009033203125,21.362302780151367,-3.479003667831421,-2.746581792831421
150360,0.07666015625,0.241455078125,1.037841796875,22.705076217651367,-3.723144292831421,-2.807616949081421
150380,0.0726318359375,0.2353515625,1.0360107421875,25.268552780151367,-4.82177734375,-2.685546636581421
150395,0.063720703125,0.2108154296875,1.0166015625,27.526853561401367,-5.554198741912842,-2.563476324081421
150412,0.059326171875,0.2039794921875,1.018310546875,29.296873092651367,-5.737304210662842,-2.807616949081421
150429,0.0565185546875,0.19873046875,1.0423583984375,30.822751998901367,-6.286620616912842,-2.929687261581421
150446,0.054443359375,0.1961669921875,1.0408935546875,31.494138717651367,-6.591796398162842,-2.990722417831421
150465,0.0479736328125,0.1854248046875,1.02490234375,32.470703125,-6.774901866912842,-3.051757574081421
150481,0.0408935546875,0.1705322265625,1.0185546875,32.8369140625,-6.774901866912842,-3.112792730331421
150501,0.0340576171875,0.1558837890625,1.0208740234375,33.3251953125,-6.713866710662842,-3.173827886581421
150517,0.0252685546875,0.146484375,0.997314453125,33.3251953125,-6.713866710662842,-3.295898199081421
150534,0.0205078125,0.137451171875,0.9754638671875,32.89794921875,-6.408690929412842,-3.356933355331421
150551,0.014892578125,0.1246337890625,0.950927734375,32.28759765625,-5.554198741912842,-3.417968511581421
150570,0.0118408203125,0.1090087890625,0.9495849609375,31.066892623901367,-4.8828125,-3.479003667831421
150589,0.0054931640625,0.0928955078125,0.938232421875,30.273435592651367,-4.39453125,-3.540038824081421
150605,0.0030517578125,0.087158203125,0.935791015625,28.503416061401367,-3.417968511581421,-3.540038824081421
150668,0.01416015625,0.0665283203125,0.9788818359375,21.301267623901367,-0.4882812201976776,-3.417968511581421
150687,0.016845703125,0.0640869140625,0.997802734375,20.202634811401367,-0.0610351525247097,-3.295898199081421
150704,0.01904296875,0.0640869140625,1.0115966796875,18.06640625,0.6103515625,-3.173827886581421
150725,0.023193359375,0.0648193359375,1.032470703125,15.869139671325684,0.9155272841453552,-2.929687261581421
150742,0.0281982421875,0.0582275390625,1.0433349609375,14.770506858825684,1.0986328125,-2.807616949081421
150758,0.02880859375,0.0517578125,1.0343017578125,12.451170921325684,1.220703125,-2.685546636581421
150791,0.0262451171875,0.0562744140625,1.0234375,8.85009765625,1.6479490995407104,-2.3193359375
150808,0.0240478515625,0.0601806640625,1.0286865234375,6.652831554412842,1.8920897245407104,-2.13623046875
150825,0.0240478515625,0.0638427734375,1.0364990234375,4.7607421875,2.0751953125,-1.8920897245407104
150846,0.025146484375,0.0706787109375,1.047607421875,3.112792730331421,1.9531248807907104,-1.5258787870407104
150865,0.0306396484375,0.073486328125,1.043701171875,1.5869139432907104,1.7700194120407104,-1.2817381620407104
150881,0.03515625,0.0772705078125,1.045166015625,0.9765624403953552,1.6479490995407104,-1.220703125
150912,0.0325927734375,0.0811767578125,1.0330810546875,-1.15966796875,0.7324218153953552,-0.7324218153953552
150928,0.033447265625,0.0836181640625,1.0257568359375,-1.5869139432907104,0.6103515625,-0.6713866591453552
150944,0.0341796875,0.085205078125,1.023681640625,-2.197265625,0.2441406100988388,-0.54931640625
150976,0.0306396484375,0.082763671875,1.019287109375,-2.685546636581421,0.0610351525247097,-0.4272460639476776
151028,0.0220947265625,0.084716796875,1.0111083984375,-3.112792730331421,-0.0610351525247097,-0.3662109076976776
151045,0.017333984375,0.0887451171875,1.018798828125,-3.173827886581421,0.1220703050494194,-0.2441406100988388
151062,0.0166015625,0.0927734375,1.0283203125,-3.051757574081421,0.1220703050494194,-0.1831054538488388
151093,0.017578125,0.087646484375,1.0155029296875,-2.746581792831421,0.2441406100988388,0.0610351525247097
151109,0.01806640625,0.0821533203125,0.999755859375,-2.685546636581421,0.4272460639476776,0.1220703050494194
151126,0.0179443359375,0.080078125,0.990478515625,-2.685546636581421,0.4882812201976776,0.1220703050494194
151147,0.020263671875,0.0770263671875,0.98095703125,-2.746581792831421,0.7934569716453552,0.0610351525247097
151164,0.023681640625,0.076904296875,0.9798583984375,-2.685546636581421,0.9765624403953552,0.1220703050494194
151180,0.025634765625,0.07373046875,0.979736328125,-2.685546636581421,1.0986328125,0.1220703050494194
151213,0.0338134765625,0.0767822265625,1.0006103515625,-2.44140625,1.15966796875,0.1831054538488388
151230,0.034423828125,0.0748291015625,0.9951171875,-2.3193359375,0.9765624403953552,0.30517578125
151247,0.0350341796875,0.072998046875,0.992431640625,-2.25830078125,1.03759765625,0.3662109076976776
151289,0.031982421875,0.068359375,0.989990234375,-2.25830078125,0.6103515625,0.54931640625
151306,0.03125,0.0657958984375,0.9769287109375,-2.25830078125,0.7324218153953552,0.6103515625
151322,0.033447265625,0.0638427734375,0.9766845703125,-2.25830078125,0.7324218153953552,0.6713866591453552
151342,0.0335693359375,0.06494140625,0.9837646484375,-2.25830078125,0.6103515625,0.7934569716453552
151359,0.0311279296875,0.063720703125,0.9810791015625,-2.3193359375,0.3662109076976776,0.8544921278953552
151380,0.0240478515625,0.057861328125,0.95751953125,-2.624511480331421,0.1220703050494194,0.9155272841453552
151400,0.0196533203125,0.050048828125,0.93310546875,-3.112792730331421,0.4272460639476776,0.9155272841453552
151416,0.0235595703125,0.052001953125,0.9517822265625,-3.784179449081421,0.4272460639476776,0.9765624403953552
151433,0.02490234375,0.0574951171875,0.9595947265625,-4.150390625,0.30517578125,0.9765624403953552
151450,0.025634765625,0.0614013671875,0.958740234375,-4.69970703125,0.0610351525247097,1.03759765625
151466,0.02685546875,0.0684814453125,0.952880859375,-5.0048828125,-0.0610351525247097,1.220703125
151483,0.027099609375,0.07568359375,0.956298828125,-5.126952648162842,-0.2441406100988388,1.4038084745407104
151518,0.0220947265625,0.07373046875,0.9398193359375,-5.432128429412842,-0.4272460639476776,1.5869139432907104
151534,0.0216064453125,0.0736083984375,0.9425048828125,-5.554198741912842,-0.3662109076976776,1.6479490995407104
151551,0.0255126953125,0.07763671875,0.951416015625,-5.615233898162842,-0.4882812201976776,1.8920897245407104
151568,0.0263671875,0.08154296875,0.953125,-5.493163585662842,-0.6103515625,1.9531248807907104
151584,0.0220947265625,0.0816650390625,0.9388427734375,-5.371093273162842,-0.7324218153953552,1.9531248807907104
151631,0.0177001953125,0.08740234375,0.9637451171875,-4.69970703125,-0.1831054538488388,2.25830078125
151655,0.01953125,0.0921630859375,0.9737548828125,-4.39453125,-0.4272460639476776,2.38037109375
151671,0.01171875,0.08544921875,0.9078369140625,-3.784179449081421,-1.03759765625,2.50244140625
151688,0.008544921875,0.078857421875,0.8741455078125,-3.601073980331421,-0.7324218153953552,2.685546636581421
151707,0.006103515625,0.0745849609375,0.85498046875,-3.906249761581421,0.3662109076976776,2.685546636581421
151723,0.009521484375,0.081298828125,0.9210205078125,-3.906249761581421,0.7324218153953552,2.624511480331421
151753,0.008544921875,0.09423828125,0.9237060546875,-3.112792730331421,-0.0610351525247097,2.746581792831421
151773,0.006103515625,0.09619140625,0.894775390625,-2.746581792831421,0.1220703050494194,2.746581792831421
151788,0.003662109375,0.0953369140625,0.85986328125,-2.38037109375,0.9765624403953552,2.746581792831421
151820,0.0120849609375,0.0987548828125,0.9417724609375,-1.6479490995407104,1.8920897245407104,2.685546636581421
151836,0.015625,0.1103515625,0.9747314453125,-0.7934569716453552,1.4038084745407104,2.50244140625
151853,0.0179443359375,0.1141357421875,0.9610595703125,0.4272460639476776,0.9765624403953552,2.50244140625
151870,0.017333984375,0.1162109375,0.9366455078125,0.9155272841453552,0.9765624403953552,2.563476324081421
151889,0.016845703125,0.10791015625,0.8992919921875,1.6479490995407104,1.3427733182907104,2.563476324081421
151908,0.021728515625,0.105224609375,0.9139404296875,1.9531248807907104,1.8920897245407104,2.38037109375
151925,0.0321044921875,0.114501953125,0.9803466796875,2.3193359375,2.01416015625,2.25830078125
151944,0.036865234375,0.123779296875,1.01171875,3.234863042831421,1.5869139432907104,2.0751953125
151961,0.0369873046875,0.1304931640625,1.014892578125,4.638671875,0.3662109076976776,2.13623046875
151993,0.02734375,0.1187744140625,0.9117431640625,6.469726085662842,0.7934569716453552,1.7700194120407104
152015,0.0303955078125,0.124755859375,0.9298095703125,6.835937023162842,1.15966796875,1.7089842557907104
152031,0.0423583984375,0.1441650390625,1.0196533203125,8.056640625,1.0986328125,1.5258787870407104
152048,0.0472412109375,0.1513671875,1.076171875,9.94873046875,0.2441406100988388,1.5869139432907104
152066,0.046142578125,0.1470947265625,1.079833984375,11.047362327575684,-0.0610351525247097,1.5258787870407104
152083,0.043701171875,0.136474609375,1.0517578125,13.549803733825684,-0.7934569716453552,1.4038084745407104
152115,0.0418701171875,0.1273193359375,0.992919921875,14.587401390075684,-0.7934569716453552,1.5258787870407104
152131,0.0419921875,0.124755859375,0.9888916015625,14.770506858825684,-0.6713866591453552,1.4648436307907104
152148,0.0411376953125,0.1209716796875,0.99658203125,15.075682640075684,-0.4882812201976776,1.4648436307907104
152168,0.03955078125,0.121337890625,1.0130615234375,15.319823265075684,-0.3662109076976776,1.5258787870407104
152185,0.0439453125,0.1180419921875,1.0311279296875,15.441893577575684,-0.3662109076976776,1.5258787870407104
152202,0.050048828125,0.1229248046875,1.042236328125,15.747069358825684,-0.4272460639476776,1.5258787870407104
152232,0.0478515625,0.1025390625,1.01171875,16.2353515625,-0.4882812201976776,1.8920897245407104
152249,0.044921875,0.0960693359375,1.0194091796875,16.357421875,0.2441406100988388,1.8920897245407104
152265,0.0406494140625,0.087646484375,1.045654296875,16.11328125,0.6713866591453552,1.6479490995407104
152303,0.0445556640625,0.0806884765625,1.0660400390625,15.441893577575684,0.6103515625,1.7089842557907104
152319,0.044189453125,0.0758056640625,1.0491943359375,14.831542015075684,1.220703125,1.7089842557907104
152331,0.045166015625,0.068359375,1.0740966796875,14.465331077575684,1.5869139432907104,1.7089842557907104
152348,0.0467529296875,0.0675048828125,1.0948486328125,14.221190452575684,1.8310545682907104,1.7700194120407104
152367,0.0518798828125,0.065673828125,1.1273193359375,13.610838890075684,1.8920897245407104,1.7700194120407104
152383,0.0570068359375,0.06298828125,1.1295166015625,12.939452171325684,1.5869139432907104,1.7700194120407104
152414,0.0528564453125,0.0443115234375,1.080322265625,10.803221702575684,1.4038084745407104,1.8310545682907104
152434,0.05322265625,0.0400390625,1.0947265625,10.253905296325684,1.5258787870407104,1.7700194120407104
152451,0.0518798828125,0.0394287109375,1.100830078125,9.21630859375,1.6479490995407104,1.7089842557907104
152468,0.0537109375,0.037841796875,1.118408203125,8.6669921875,1.6479490995407104,1.7089842557907104
152487,0.061279296875,0.037353515625,1.14208984375,7.568358898162842,1.4648436307907104,1.7089842557907104
152503,0.06494140625,0.03125,1.1409912109375,6.225585460662842,0.9155272841453552,1.8310545682907104
152533,0.0614013671875,0.02490234375,1.1019287109375,3.906249761581421,0.4882812201976776,1.8310545682907104
152554,0.0604248046875,0.022216796875,1.1192626953125,3.295898199081421,0.4882812201976776,1.7700194120407104
152571,0.06103515625,0.0250244140625,1.13525390625,1.9531248807907104,0.30517578125,1.7089842557907104
152588,0.057861328125,0.0299072265625,1.1361083984375,1.4038084745407104,-0.0610351525247097,1.7089842557907104
152607,0.0528564453125,0.0302734375,1.126220703125,0.4882812201976776,-0.2441406100988388,1.6479490995407104
152623,0.047119140625,0.0303955078125,1.138916015625,-0.2441406100988388,-0.1831054538488388,1.7089842557907104
152654,0.0374755859375,0.0196533203125,1.10791015625,-0.9765624403953552,-0.4882812201976776,1.7089842557907104
152675,0.0308837890625,0.0047607421875,1.0670166015625,-1.5258787870407104,-0.4272460639476776,1.5258787870407104
152692,0.031982421875,0.0050048828125,1.0721435546875,-2.563476324081421,0.2441406100988388,1.2817381620407104
152709,0.0360107421875,0.0078125,1.0885009765625,-3.112792730331421,0.2441406100988388,1.15966796875
152775,0.0352783203125,0.01806640625,1.078857421875,-4.0283203125,-0.4882812201976776,0.6713866591453552
152791,0.033447265625,0.01513671875,1.062744140625,-4.2724609375,-0.30517578125,0.54931640625
152808,0.0394287109375,0.025390625,1.076171875,-4.82177734375,-0.0610351525247097,0.30517578125
152828,0.046875,0.0413818359375,1.0975341796875,-4.8828125,-0.1220703050494194,0.2441406100988388
152845,0.0504150390625,0.0509033203125,1.101318359375,-4.69970703125,-0.4272460639476776,0.2441406100988388
152862,0.0474853515625,0.047119140625,1.0889892578125,-3.967284917831421,-0.8544921278953552,0.30517578125
152893,0.038330078125,0.0284423828125,1.0531005859375,-3.356933355331421,-0.8544921278953552,0.0
152910,0.037109375,0.0323486328125,1.0458984375,-3.295898199081421,-0.7324218153953552,-0.2441406100988388
152926,0.0401611328125,0.045166015625,1.0648193359375,-2.929687261581421,-0.54931640625,-0.3662109076976776
152959,0.045166015625,0.0509033203125,1.0814208984375,-1.8310545682907104,-1.220703125,-0.3662109076976776
152980,0.0428466796875,0.0447998046875,1.064453125,-1.3427733182907104,-1.3427733182907104,-0.3662109076976776
152996,0.0390625,0.0362548828125,1.056640625,-0.7324218153953552,-1.220703125,-0.4882812201976776
153010,0.0389404296875,0.0380859375,1.0615234375,-0.30517578125,-1.0986328125,-0.6103515625
153027,0.04052734375,0.0421142578125,1.07568359375,-0.0610351525247097,-1.03759765625,-0.6713866591453552
153044,0.0439453125,0.0509033203125,1.0936279296875,0.6103515625,-1.03759765625,-0.6713866591453552
153073,0.040771484375,0.053466796875,1.0831298828125,2.01416015625,-1.7700194120407104,-0.54931640625
153089,0.0391845703125,0.046142578125,1.069091796875,2.624511480331421,-1.9531248807907104,-0.4882812201976776
153105,0.03173828125,0.033203125,1.023193359375,2.685546636581421,-1.8920897245407104,-0.4882812201976776
153139,0.0299072265625,0.0335693359375,1.0208740234375,2.563476324081421,-1.2817381620407104,-0.6103515625
153156,0.0303955078125,0.04296875,1.035400390625,2.624511480331421,-1.0986328125,-0.6103515625
153173,0.029541015625,0.04541015625,1.0328369140625,2.807616949081421,-1.3427733182907104,-0.4882812201976776
153189,0.0159912109375,0.0382080078125,0.9998779296875,2.807616949081421,-1.3427733182907104,-0.3662109076976776
153208,-0.0599365234375,0.0362548828125,0.9312744140625,2.990722417831421,1.6479490995407104,-0.30517578125
153225,-0.0557861328125,0.0364990234375,0.9931640625,2.197265625,3.356933355331421,-0.30517578125
153291,0.0257568359375,0.0364990234375,0.9361572265625,-5.187987804412842,-0.9155272841453552,0.6713866591453552
153325,0.0269775390625,0.0482177734375,0.947509765625,-3.295898199081421,0.0,0.8544921278953552
153337,0.033935546875,0.035888671875,0.933349609375,-3.112792730331421,1.7089842557907104,0.6103515625
153370,0.0716552734375,0.04296875,1.266357421875,-3.356933355331421,1.0986328125,0.6103515625
153387,0.046630859375,0.0325927734375,1.006103515625,-4.150390625,-1.5258787870407104,0.54931640625
153404,0.0269775390625,0.0369873046875,0.8935546875,-4.2724609375,-0.6103515625,0.4272460639476776
153434,0.038330078125,0.069091796875,1.1217041015625,-4.69970703125,0.9765624403953552,0.4882812201976776
153455,0.0377197265625,0.066162109375,1.084716796875,-4.45556640625,-0.4272460639476776,0.54931640625
153472,0.0302734375,0.0650634765625,0.955078125,-3.540038824081421,-0.54931640625,0.6713866591453552
153489,0.035888671875,0.0626220703125,1.0142822265625,-3.173827886581421,-0.2441406100988388,0.6713866591453552
153508,0.0447998046875,0.06494140625,1.0716552734375,-2.807616949081421,-0.1220703050494194,0.54931640625
153524,0.0428466796875,0.0634765625,1.037109375,-2.44140625,-0.3662109076976776,0.4882812201976776
153557,0.0318603515625,0.06787109375,1.034423828125,-2.0751953125,0.2441406100988388,0.4882812201976776
153574,0.0321044921875,0.0704345703125,1.0400390625,-1.5258787870407104,0.3662109076976776,0.3662109076976776
153590,0.033447265625,0.073974609375,1.0203857421875,-1.15966796875,0.6103515625,0.30517578125
153602,0.036376953125,0.081298828125,1.0279541015625,0.0,1.4648436307907104,0.1220703050494194
153622,0.041015625,0.0892333984375,1.087890625,0.6713866591453552,1.7700194120407104,0.1220703050494194
153639,0.052490234375,0.104248046875,1.24658203125,2.563476324081421,1.3427733182907104,0.0610351525247097
153656,0.0545654296875,0.1068115234375,1.297607421875,3.356933355331421,0.54931640625,0.0610351525247097
153673,0.0576171875,0.107421875,1.3270263671875,5.371093273162842,-0.1220703050494194,0.0610351525247097
153692,0.065185546875,0.0966796875,1.352294921875,7.019042491912842,-0.4272460639476776,-0.1220703050494194
153708,0.072265625,0.0914306640625,1.375732421875,7.812499523162842,-0.7934569716453552,-0.1831054538488388
153740,0.068359375,0.08544921875,1.3402099609375,8.60595703125,-2.3193359375,-0.2441406100988388
153756,0.052490234375,0.081787109375,1.2781982421875,8.97216796875,-2.13623046875,-0.2441406100988388
153772,0.056640625,0.088623046875,1.311279296875,9.58251953125,-1.4648436307907104,-0.2441406100988388
153788,0.06103515625,0.078857421875,1.3662109375,10.620116233825684,-1.7089842557907104,-0.1831054538488388
153807,0.06201171875,0.0816650390625,1.3826904296875,11.291502952575684,-1.8310545682907104,-0.1831054538488388
153828,0.060302734375,0.08154296875,1.4100341796875,13.183592796325684,-1.8310545682907104,-0.30517578125
153844,0.0628662109375,0.079833984375,1.434326171875,15.136717796325684,-2.3193359375,-0.0610351525247097
153862,0.056884765625,0.0535888671875,1.4044189453125,16.66259765625,-2.197265625,-0.2441406100988388
153879,0.0572509765625,0.0435791015625,1.4234619140625,17.15087890625,-1.8920897245407104,-0.3662109076976776
153911,0.052490234375,0.0648193359375,1.470703125,19.59228515625,-2.50244140625,-0.6713866591453552
153928,0.0474853515625,0.0611572265625,1.420166015625,20.202634811401367,-2.807616949081421,-0.6713866591453552
153945,0.0430908203125,0.0533447265625,1.384765625,20.812986373901367,-2.807616949081421,-0.6103515625
153964,0.0328369140625,0.0311279296875,1.3348388671875,20.141599655151367,-1.8920897245407104,-0.6103515625
153983,0.0316162109375,0.0203857421875,1.3651123046875,19.71435546875,-1.4648436307907104,-0.6103515625
154000,0.02783203125,0.014892578125,1.366455078125,18.9208984375,-1.4648436307907104,-0.6103515625
154033,0.0242919921875,-0.010009765625,1.3173828125,17.02880859375,-1.3427733182907104,-0.3662109076976776
154050,0.0184326171875,-0.0289306640625,1.2486572265625,15.136717796325684,-1.220703125,-0.3662109076976776
154066,0.0147705078125,-0.0364990234375,1.214111328125,14.038084983825684,-1.03759765625,-0.3662109076976776
154101,0.013427734375,-0.0450439453125,1.1170654296875,10.498045921325684,-0.1220703050494194,-0.30517578125
154117,0.0181884765625,-0.044921875,1.09521484375,7.873534679412842,-0.7324218153953552,-0.2441406100988388
154134,0.01904296875,-0.0458984375,0.9847412109375,6.530761241912842,-1.220703125,-0.1831054538488388
154150,0.0174560546875,-0.039794921875,0.84912109375,3.723144292831421,-1.5258787870407104,-0.1831054538488388
154167,0.0167236328125,-0.0343017578125,0.78125,0.9155272841453552,-1.5869139432907104,0.0
154184,0.014892578125,-0.028564453125,0.676513671875,-2.13623046875,-1.220703125,0.1831054538488388
154217,0.014892578125,-0.017578125,0.618408203125,-6.225585460662842,-1.2817381620407104,0.6103515625
154236,0.0128173828125,-0.021240234375,0.5667724609375,-8.23974609375,-1.9531248807907104,0.7934569716453552
154252,0.0076904296875,-0.022705078125,0.4866943359375,-9.27734375,-2.0751953125,0.8544921278953552
154269,0.0064697265625,-0.0238037109375,0.4586181640625,-11.291502952575684,-1.8310545682907104,0.9155272841453552
154286,0.0029296875,-0.02392578125,0.419189453125,-12.939452171325684,-1.4648436307907104,0.9765624403953552
154302,0.0018310546875,-0.0252685546875,0.395751953125,-13.732909202575684,-1.3427733182907104,1.03759765625
154336,0.0037841796875,-0.033203125,0.4014892578125,-16.90673828125,-0.6103515625,1.2817381620407104
154352,0.0047607421875,-0.0369873046875,0.4305419921875,-18.4326171875,-0.4882812201976776,1.3427733182907104
154368,0.005126953125,-0.03515625,0.447021484375,-19.10400390625,-0.4272460639476776,1.4038084745407104
154385,0.00439453125,-0.0267333984375,0.497802734375,-19.8974609375,0.2441406100988388,1.2817381620407104
154408,0.0091552734375,-0.0125732421875,0.6143798828125,-20.080564498901367,0.4882812201976776,1.4038084745407104
154420,0.009765625,0.0015869140625,0.71484375,-19.53125,0.3662109076976776,1.4648436307907104
154437,0.007080078125,0.005615234375,0.7496337890625,-19.04296875,0.4882812201976776,1.4648436307907104
154452,0.0111083984375,0.0184326171875,0.8582763671875,-18.61572265625,0.6713866591453552,1.4648436307907104
154468,0.0133056640625,0.027587890625,0.9002685546875,-17.333984375,0.1831054538488388,1.5258787870407104
154485,0.0130615234375,0.03955078125,0.9525146484375,-15.624999046325684,-0.0610351525247097,1.5258787870407104
154522,0.0123291015625,0.0384521484375,0.98291015625,-12.329100608825684,-0.6713866591453552,1.5869139432907104
154538,0.009033203125,0.032958984375,0.9556884765625,-10.498045921325684,-0.9765624403953552,1.4038084745407104
154555,0.0079345703125,0.0443115234375,0.928955078125,-9.58251953125,-0.6713866591453552,1.220703125
154572,0.0145263671875,0.0546875,0.966796875,-7.873534679412842,-0.1220703050494194,1.220703125
154588,0.0145263671875,0.052978515625,0.9671630859375,-6.042479991912842,-0.54931640625,1.4038084745407104
154605,0.012939453125,0.0469970703125,0.9520263671875,-4.2724609375,-0.3662109076976776,1.220703125
154638,0.02734375,0.0677490234375,1.0308837890625,-0.9765624403953552,-0.2441406100988388,1.0986328125
154659,0.0272216796875,0.075439453125,1.034423828125,1.5258787870407104,-0.9155272841453552,1.15966796875
154675,0.0228271484375,0.065673828125,1.0257568359375,2.746581792831421,-0.9155272841453552,1.220703125
154692,0.022705078125,0.0574951171875,1.0360107421875,4.94384765625,-0.9765624403953552,1.15966796875
154763,0.0242919921875,0.062744140625,1.0712890625,13.427733421325684,-1.7089842557907104,1.0986328125
154779,0.02099609375,0.053466796875,1.0550537109375,14.343260765075684,-1.8310545682907104,1.0986328125
154795,0.019287109375,0.0394287109375,1.03369140625,15.319823265075684,-1.8310545682907104,1.220703125
154812,0.01904296875,0.02880859375,1.01416015625,16.05224609375,-1.7700194120407104,1.220703125
154835,0.0194091796875,0.023681640625,1.010498046875,16.29638671875,-1.5869139432907104,1.15966796875
154851,0.022216796875,0.020751953125,1.030029296875,16.90673828125,-1.6479490995407104,1.0986328125
154868,0.02392578125,0.0196533203125,1.033935546875,17.08984375,-2.0751953125,1.0986328125
154887,0.02001953125,0.017578125,1.012939453125,17.333984375,-2.13623046875,1.15966796875
154904,0.016357421875,0.010498046875,1.007568359375,17.15087890625,-1.8920897245407104,1.220703125
154937,0.01513671875,0.0032958984375,1.0264892578125,16.7236328125,-1.8310545682907104,1.0986328125
154954,0.0130615234375,-0.002197265625,1.0103759765625,16.29638671875,-1.7089842557907104,1.0986328125
154975,0.0130615234375,-0.0047607421875,1.0037841796875,16.05224609375,-1.5258787870407104,1.0986328125
154990,0.011962890625,-0.0078125,1.000732421875,15.258788108825684,-1.3427733182907104,1.0986328125
155007,0.008544921875,-0.015380859375,0.99169921875,14.892577171325684,-1.220703125,1.15966796875
155023,0.009765625,-0.0211181640625,0.99658203125,13.854979515075684,-0.7934569716453552,1.0986328125
155057,0.015380859375,-0.02001953125,1.02783203125,11.718749046325684,-0.54931640625,1.03759765625
155073,0.0201416015625,-0.0211181640625,1.0313720703125,10.742186546325684,-0.6103515625,1.03759765625
155094,0.0208740234375,-0.0225830078125,1.0316162109375,10.131834983825684,-0.6103515625,1.03759765625
155110,0.020263671875,-0.0269775390625,1.026611328125,8.85009765625,-0.6103515625,1.03759765625
155127,0.01953125,-0.033447265625,1.0255126953125,8.23974609375,-0.6103515625,1.0986328125
155144,0.0184326171875,-0.035400390625,1.026123046875,6.835937023162842,-0.54931640625,1.15966796875
155177,0.0169677734375,-0.03857421875,1.0318603515625,4.150390625,-0.4272460639476776,1.15966796875
155193,0.0126953125,-0.04345703125,1.0186767578125,2.868652105331421,-0.4272460639476776,1.0986328125
155209,0.0113525390625,-0.046630859375,1.011962890625,2.0751953125,-0.2441406100988388,1.03759765625
155225,0.010986328125,-0.0537109375,1.0079345703125,0.4882812201976776,0.0610351525247097,1.0986328125
155250,0.011962890625,-0.0550537109375,1.017578125,-1.0986328125,0.2441406100988388,0.9155272841453552
155267,0.0140380859375,-0.05029296875,1.0284423828125,-1.7700194120407104,0.30517578125,0.7934569716453552
155284,0.017333984375,-0.0477294921875,1.02685546875,-2.868652105331421,0.30517578125,0.7934569716453552
155302,0.01904296875,-0.0467529296875,1.02978515625,-3.906249761581421,0.4272460639476776,0.6713866591453552
155317,0.0185546875,-0.0482177734375,1.0279541015625,-4.8828125,0.3662109076976776,0.6103515625
155350,0.0185546875,-0.0443115234375,1.033935546875,-6.103515148162842,0.4882812201976776,0.4272460639476776
155374,0.01806640625,-0.0399169921875,1.0364990234375,-6.530761241912842,0.54931640625,0.3662109076976776
155390,0.0177001953125,-0.033935546875,1.0411376953125,-6.835937023162842,0.3662109076976776,0.3662109076976776
155407,0.0145263671875,-0.0318603515625,1.029296875,-7.019042491912842,0.30517578125,0.30517578125
155426,0.0123291015625,-0.0325927734375,1.0181884765625,-7.324218273162842,0.4272460639476776,0.1831054538488388
155442,0.012939453125,-0.0325927734375,1.01220703125,-7.507323741912842,0.4882812201976776,0.0610351525247097
155475,0.016845703125,-0.0191650390625,1.0205078125,-7.385253429412842,0.54931640625,-0.1220703050494194
155491,0.018310546875,-0.0167236328125,1.0250244140625,-7.202147960662842,0.4272460639476776,-0.1220703050494194
155511,0.0185546875,-0.0174560546875,1.0228271484375,-6.835937023162842,0.30517578125,-0.30517578125
155528,0.0186767578125,-0.0096435546875,1.0252685546875,-6.591796398162842,0.3662109076976776,-0.30517578125
155547,0.01806640625,-0.0064697265625,1.0322265625,-6.042479991912842,0.2441406100988388,-0.4882812201976776
155564,0.017333984375,-0.0037841796875,1.036865234375,-5.371093273162842,0.1831054538488388,-0.4882812201976776
155596,0.0177001953125,0.001708984375,1.0362548828125,-3.479003667831421,-0.1220703050494194,-0.6103515625
155613,0.0174560546875,0.0030517578125,1.034423828125,-2.990722417831421,-0.1831054538488388,-0.6713866591453552
155629,0.016845703125,0.004150390625,1.0296630859375,-2.13623046875,-0.30517578125,-0.7324218153953552
155641,0.0167236328125,0.0054931640625,1.028564453125,-1.7089842557907104,-0.2441406100988388,-0.7934569716453552
155662,0.0150146484375,0.0059814453125,1.023681640625,-0.8544921278953552,-0.30517578125,-0.9155272841453552
155678,0.0142822265625,0.0037841796875,1.01611328125,-0.4882812201976776,-0.30517578125,-0.9155272841453552
155695,0.01611328125,0.0037841796875,1.0155029296875,0.7324218153953552,-0.2441406100988388,-1.0986328125
155712,0.0174560546875,0.0068359375,1.0185546875,1.15966796875,-0.30517578125,-1.0986328125
155729,0.019775390625,0.0084228515625,1.0224609375,1.9531248807907104,-0.54931640625,-1.0986328125
155745,0.016357421875,0.00537109375,1.00634765625,2.38037109375,-0.6103515625,-1.0986328125
155774,0.0145263671875,0.00146484375,0.996826171875,3.173827886581421,-0.4882812201976776,-1.15966796875
155790,0.015625,-0.0006103515625,1.0025634765625,3.662109136581421,-0.4272460639476776,-1.15966796875
155807,0.015380859375,0.0013427734375,1.00439453125,4.150390625,-0.4272460639476776,-1.0986328125
155824,0.0146484375,0.00146484375,1.002685546875,4.33349609375,-0.4272460639476776,-1.0986328125
155844,0.0140380859375,-0.0003662109375,1.005859375,4.638671875,-0.3662109076976776,-1.0986328125
155866,0.01416015625,-0.00146484375,1.0079345703125,4.7607421875,-0.30517578125,-0.9765624403953552
155882,0.013916015625,-0.003662109375,1.00390625,4.8828125,-0.2441406100988388,-0.9155272841453552
155901,0.012939453125,-0.004150390625,0.99853515625,4.8828125,-0.1831054538488388,-0.7934569716453552
155918,0.0135498046875,-0.0052490234375,0.9991455078125,4.82177734375,-0.1220703050494194,-0.7324218153953552
155951,0.01220703125,-0.0130615234375,0.9815673828125,4.39453125,-0.1220703050494194,-0.4882812201976776
155968,0.010986328125,-0.017333984375,0.959228515625,3.784179449081421,0.0,-0.3662109076976776
155984,0.0113525390625,-0.0185546875,0.95556640625,3.417968511581421,0.1831054538488388,-0.30517578125
156021,0.0147705078125,-0.0196533203125,0.985595703125,2.13623046875,0.7324218153953552,-0.1831054538488388
156037,0.0185546875,-0.0167236328125,1.0145263671875,1.8920897245407104,0.7934569716453552,-0.1831054538488388
156054,0.0196533203125,-0.015625,1.023193359375,1.6479490995407104,0.6103515625,-0.0610351525247097
156071,0.0185546875,-0.0140380859375,1.0242919921875,1.6479490995407104,0.3662109076976776,0.1831054538488388
156137,0.015625,-0.019775390625,0.96240234375,-0.1220703050494194,0.4882812201976776,0.54931640625
156208,0.01416015625,-0.017578125,0.955810546875,-1.9531248807907104,0.7324218153953552,0.9765624403953552
156225,0.016357421875,-0.0184326171875,0.9862060546875,-2.50244140625,0.9155272841453552,1.15966796875
156242,0.0189208984375,-0.0159912109375,1.019775390625,-2.929687261581421,0.30517578125,1.2817381620407104
156262,0.019775390625,-0.0150146484375,1.0037841796875,-3.234863042831421,-0.30517578125,1.4648436307907104
156279,0.0147705078125,-0.0203857421875,0.939697265625,-3.784179449081421,-0.4882812201976776,1.6479490995407104
156296,0.011474609375,-0.0247802734375,0.9107666015625,-4.21142578125,-0.0610351525247097,1.6479490995407104
156312,0.014892578125,-0.0240478515625,0.93798828125,-5.187987804412842,0.7324218153953552,1.7089842557907104
156334,0.0225830078125,-0.0164794921875,1.0015869140625,-5.554198741912842,0.3662109076976776,1.7700194120407104
156350,0.0260009765625,-0.007080078125,1.0233154296875,-5.493163585662842,0.0,1.7700194120407104
156367,0.0194091796875,-0.0020751953125,0.9659423828125,-5.187987804412842,-1.03759765625,1.9531248807907104
156385,0.0146484375,-0.0047607421875,0.91552734375,-5.187987804412842,-1.220703125,2.25830078125
156402,0.0115966796875,-0.008056640625,0.873046875,-5.676269054412842,-0.2441406100988388,2.3193359375
156435,0.01806640625,-0.005615234375,0.951171875,-6.164550304412842,0.2441406100988388,2.25830078125
156451,0.019775390625,0.00244140625,0.986328125,-5.737304210662842,-0.4272460639476776,2.3193359375
156467,0.0159912109375,0.01416015625,0.950927734375,-5.371093273162842,-0.7934569716453552,2.3193359375
156507,0.0084228515625,0.010986328125,0.9017333984375,-4.33349609375,0.0610351525247097,2.44140625
156524,0.011962890625,0.0107421875,0.94091796875,-3.845214605331421,0.3662109076976776,2.50244140625
156541,0.016845703125,0.021484375,0.9815673828125,-3.540038824081421,0.3662109076976776,2.44140625
156557,0.017333984375,0.026123046875,0.9908447265625,-2.44140625,-0.0610351525247097,2.50244140625
156572,0.013427734375,0.033203125,0.97314453125,-1.0986328125,-0.3662109076976776,2.563476324081421
156589,0.0091552734375,0.0284423828125,0.94677734375,0.0610351525247097,-0.1831054538488388,2.563476324081421
156605,0.0113525390625,0.0257568359375,0.942138671875,0.3662109076976776,-0.1220703050494194,2.50244140625
156630,0.0159912109375,0.0206298828125,0.931884765625,0.8544921278953552,0.0610351525247097,2.44140625
156646,0.0164794921875,0.02783203125,0.9471435546875,1.4648436307907104,0.4272460639476776,2.38037109375
156663,0.0162353515625,0.0389404296875,0.9698486328125,2.38037109375,0.2441406100988388,2.44140625
156682,0.0150146484375,0.0406494140625,0.9825439453125,2.990722417831421,0.2441406100988388,2.44140625
156697,0.0159912109375,0.0360107421875,0.9949951171875,4.08935546875,0.1831054538488388,2.44140625
156731,0.0203857421875,0.0302734375,1.0072021484375,5.493163585662842,-0.2441406100988388,2.3193359375
156750,0.018310546875,0.0341796875,0.9825439453125,5.981444835662842,-0.3662109076976776,2.38037109375
156771,0.017822265625,0.03369140625,0.9771728515625,6.164550304412842,-0.30517578125,2.44140625
156787,0.014892578125,0.022705078125,0.977294921875,6.286620616912842,-0.1831054538488388,2.44140625
156801,0.0169677734375,0.01611328125,0.99951171875,6.225585460662842,-0.0610351525247097,2.44140625
156817,0.0205078125,0.0155029296875,1.029296875,6.225585460662842,-0.0610351525247097,2.44140625
156850,0.0185546875,0.02587890625,1.020263671875,7.080077648162842,-0.7324218153953552,2.3193359375
156868,0.01513671875,0.017578125,0.9822998046875,7.141112804412842,-0.6713866591453552,2.3193359375
156885,0.0155029296875,0.0113525390625,0.9803466796875,6.774901866912842,-0.1220703050494194,2.3193359375
156901,0.02099609375,0.0035400390625,1.0086669921875,6.469726085662842,0.0,2.3193359375
156922,0.0238037109375,0.0037841796875,1.035400390625,5.798339366912842,0.1220703050494194,2.13623046875
156939,0.0316162109375,0.013671875,1.092529296875,5.737304210662842,-0.4882812201976776,2.197265625
156955,0.02783203125,0.02001953125,1.100341796875,6.042479991912842,-1.2817381620407104,2.13623046875
156972,0.0147705078125,0.0118408203125,1.0694580078125,6.408690929412842,-1.220703125,2.197265625
156989,0.0126953125,0.006591796875,1.0755615234375,6.408690929412842,-1.0986328125,2.0751953125
157010,0.012451171875,0.0076904296875,1.07080078125,6.164550304412842,-1.4648436307907104,2.01416015625
157026,0.0133056640625,0.0106201171875,1.03857421875,5.798339366912842,-1.3427733182907104,2.0751953125
157044,0.0157470703125,0.0081787109375,1.015380859375,5.371093273162842,-0.9155272841453552,2.0751953125
157061,0.017578125,0.0025634765625,1.0240478515625,5.065917491912842,-0.6713866591453552,2.0751953125
157094,0.0145263671875,-0.01025390625,1.038330078125,3.967284917831421,-0.2441406100988388,1.8920897245407104
157111,0.011962890625,-0.0108642578125,1.0299072265625,3.479003667831421,-0.0610351525247097,1.6479490995407104
157127,0.0113525390625,-0.0052490234375,1.0262451171875,3.295898199081421,0.1220703050494194,1.5869139432907104
157167,0.0146484375,-0.005615234375,1.0377197265625,2.868652105331421,1.2817381620407104,1.6479490995407104
157183,0.0181884765625,-0.012939453125,1.0579833984375,2.685546636581421,1.3427733182907104,1.5869139432907104
157200,0.018310546875,-0.0194091796875,1.0521240234375,2.44140625,1.4038084745407104,1.5258787870407104
157221,0.018310546875,-0.0206298828125,1.05126953125,2.197265625,1.6479490995407104,1.3427733182907104
157237,0.01904296875,-0.019775390625,1.052734375,1.9531248807907104,1.6479490995407104,1.15966796875
157254,0.0208740234375,-0.0201416015625,1.03564453125,1.4648436307907104,1.6479490995407104,1.0986328125
157271,0.0242919921875,-0.0184326171875,1.0262451171875,0.7934569716453552,1.9531248807907104,0.9765624403953552
157335,0.0257568359375,-0.011962890625,1.0574951171875,-0.2441406100988388,1.8920897245407104,0.7934569716453552
157356,0.0252685546875,-0.01513671875,1.07666015625,-0.2441406100988388,2.0751953125,0.7934569716453552
157373,0.03173828125,-0.0162353515625,1.1224365234375,-0.2441406100988388,2.0751953125,0.7324218153953552
157390,0.0333251953125,-0.0169677734375,1.1339111328125,0.1220703050494194,1.4038084745407104,0.6103515625
157439,0.0267333984375,-0.0079345703125,1.1142578125,1.15966796875,1.03759765625,0.4882812201976776
157466,0.030517578125,-0.0115966796875,1.11669921875,1.5258787870407104,0.9155272841453552,0.4882812201976776
157478,0.033935546875,-0.0133056640625,1.146728515625,1.6479490995407104,0.9155272841453552,0.4882812201976776
157511,0.0277099609375,-0.0115966796875,1.151123046875,3.112792730331421,-0.30517578125,0.4882812201976776
157544,0.0201416015625,-0.0146484375,1.0850830078125,3.845214605331421,-0.0610351525247097,0.4272460639476776
157586,0.0279541015625,-0.0244140625,1.0831298828125,3.540038824081421,0.1220703050494194,0.4272460639476776
157603,0.024169921875,-0.021728515625,1.0716552734375,3.479003667831421,0.2441406100988388,0.3662109076976776
157636,0.0234375,-0.0203857421875,1.08642578125,3.723144292831421,0.6713866591453552,0.30517578125
157653,0.029296875,-0.019775390625,1.10595703125,3.906249761581421,0.4882812201976776,0.30517578125
157670,0.02734375,-0.022216796875,1.090087890625,3.967284917831421,0.30517578125,0.30517578125
157687,0.0223388671875,-0.025146484375,1.0615234375,3.906249761581421,0.7324218153953552,0.2441406100988388
157711,0.0225830078125,-0.0283203125,1.079833984375,3.601073980331421,1.0986328125,0.2441406100988388
157727,0.025634765625,-0.0247802734375,1.0982666015625,3.295898199081421,1.03759765625,0.1831054538488388
157744,0.030029296875,-0.0206298828125,1.1004638671875,3.234863042831421,0.7934569716453552,0.2441406100988388
157761,0.0299072265625,-0.0198974609375,1.081787109375,3.417968511581421,0.4272460639476776,0.3662109076976776
157778,0.0302734375,-0.025390625,1.0496826171875,3.173827886581421,0.54931640625,0.30517578125
157811,0.0291748046875,-0.0390625,1.0445556640625,2.25830078125,1.5258787870407104,0.3662109076976776
157830,0.0352783203125,-0.0361328125,1.1138916015625,1.8920897245407104,1.0986328125,0.30517578125
157850,0.0361328125,-0.030517578125,1.1187744140625,1.8310545682907104,0.1220703050494194,0.2441406100988388
157867,0.031982421875,-0.02783203125,1.0560302734375,1.8310545682907104,-0.0610351525247097,0.2441406100988388
157886,0.030517578125,-0.0213623046875,1.038818359375,1.6479490995407104,0.2441406100988388,0.30517578125
157903,0.0311279296875,-0.02783203125,1.07763671875,1.4648436307907104,0.7324218153953552,0.4272460639476776
157933,0.0347900390625,-0.03369140625,1.093505859375,1.4038084745407104,-0.3662109076976776,0.4272460639476776
157949,0.032958984375,-0.034423828125,1.0692138671875,1.3427733182907104,-0.54931640625,0.4272460639476776
157969,0.0296630859375,-0.032470703125,1.0201416015625,1.03759765625,-0.1831054538488388,0.4882812201976776
157985,0.0335693359375,-0.0361328125,1.0390625,0.8544921278953552,0.1220703050494194,0.4882812201976776
158003,0.0447998046875,-0.04736328125,1.1453857421875,0.4882812201976776,-0.1831054538488388,0.4882812201976776
158020,0.08740234375,-0.056396484375,1.48291015625,0.7324218153953552,-3.967284917831421,0.30517578125
158053,0.0145263671875,-0.0220947265625,0.841064453125,-1.5869139432907104,2.13623046875,0.6713866591453552
158069,0.02587890625,-0.0306396484375,0.9271240234375,-1.7089842557907104,1.8310545682907104,0.6713866591453552
158090,0.0396728515625,-0.0440673828125,1.0814208984375,-1.4648436307907104,0.30517578125,0.54931640625
158106,0.05029296875,-0.039794921875,1.181640625,-1.15966796875,-0.54931640625,0.3662109076976776
158172,0.03369140625,-0.0306396484375,1.1087646484375,-1.8310545682907104,-0.1220703050494194,0.54931640625
158189,0.0301513671875,-0.0328369140625,1.032470703125,-2.624511480331421,-0.6713866591453552,0.4882812201976776
158205,0.029052734375,-0.0262451171875,0.9769287109375,-2.868652105331421,0.0610351525247097,0.3662109076976776
158242,0.03466796875,-0.012451171875,1.052490234375,-2.807616949081421,-0.4882812201976776,0.3662109076976776
158258,0.0299072265625,-0.00927734375,1.0048828125,-2.25830078125,-0.3662109076976776,0.54931640625
158275,0.0306396484375,-0.0118408203125,1.0340576171875,-2.01416015625,-0.1220703050494194,0.54931640625
158291,0.0306396484375,-0.0172119140625,1.039306640625,-1.5869139432907104,-0.1831054538488388,0.4272460639476776
158308,0.029541015625,-0.0133056640625,1.017822265625,-1.220703125,-0.1220703050494194,0.3662109076976776
158325,0.03076171875,-0.0054931640625,1.02783203125,-0.4272460639476776,0.0,0.3662109076976776
158360,0.032958984375,-0.0045166015625,1.021484375,0.8544921278953552,-0.1220703050494194,0.4882812201976776
158409,0.033203125,-0.005615234375,1.02978515625,2.624511480331421,0.7934569716453552,0.1831054538488388
158428,0.03515625,-0.0025634765625,1.0390625,3.784179449081421,1.5258787870407104,0.2441406100988388
158445,0.0396728515625,-0.00537109375,1.1143798828125,5.0048828125,2.01416015625,0.2441406100988388
158480,0.05517578125,-0.010009765625,1.2989501953125,6.958007335662842,-0.0610351525247097,0.1220703050494194
158496,0.05712890625,-0.0111083984375,1.2962646484375,7.812499523162842,-0.6103515625,0.0610351525247097
158529,0.04931640625,-0.0250244140625,1.2718505859375,8.9111328125,-1.03759765625,0.1220703050494194
158547,0.0426025390625,-0.0350341796875,1.2652587890625,8.23974609375,-1.2817381620407104,0.0
158564,0.0355224609375,-0.0386962890625,1.2552490234375,7.873534679412842,-1.2817381620407104,-0.1220703050494194
158601,0.050048828125,-0.0223388671875,1.365234375,7.751464366912842,-1.220703125,-0.30517578125
158616,0.052001953125,-0.0235595703125,1.3895263671875,8.11767578125,-1.8920897245407104,-0.30517578125
158633,0.0501708984375,-0.026123046875,1.3841552734375,8.85009765625,-2.746581792831421,-0.3662109076976776
158650,0.0380859375,-0.0440673828125,1.3416748046875,9.1552734375,-2.929687261581421,-0.54931640625
158666,0.02880859375,-0.0535888671875,1.3199462890625,9.21630859375,-2.807616949081421,-0.6713866591453552
158683,0.02392578125,-0.0574951171875,1.32080078125,9.09423828125,-2.50244140625,-0.9155272841453552
158716,0.029052734375,-0.04541015625,1.384033203125,9.70458984375,-2.25830078125,-1.4038084745407104
158735,0.0308837890625,-0.0401611328125,1.40576171875,10.070799827575684,-2.44140625,-1.4038084745407104
158751,0.0238037109375,-0.0477294921875,1.407470703125,10.742186546325684,-2.990722417831421,-1.5258787870407104
158763,0.01611328125,-0.062744140625,1.37646484375,10.925292015075684,-3.051757574081421,-1.5258787870407104
158782,0.013671875,-0.0677490234375,1.36083984375,10.803221702575684,-2.990722417831421,-1.6479490995407104
158799,0.0106201171875,-0.0693359375,1.33154296875,10.192870140075684,-2.50244140625,-1.8920897245407104
158815,0.0133056640625,-0.065185546875,1.3424072265625,9.82666015625,-2.13623046875,-1.8310545682907104
158832,0.013916015625,-0.0701904296875,1.3514404296875,9.6435546875,-2.197265625,-1.8310545682907104
158896,0.010498046875,-0.1019287109375,1.237548828125,5.554198741912842,-2.3193359375,-2.13623046875
158912,0.009521484375,-0.1011962890625,1.2171630859375,4.69970703125,-2.3193359375,-2.197265625
158929,0.0068359375,-0.09814453125,1.1724853515625,3.173827886581421,-2.197265625,-2.25830078125
158949,0.0042724609375,-0.091796875,1.1273193359375,2.44140625,-2.01416015625,-2.25830078125
158966,0.006103515625,-0.0899658203125,1.1021728515625,1.0986328125,-1.8310545682907104,-2.25830078125
158983,0.005126953125,-0.0914306640625,1.0673828125,-0.54931640625,-2.38037109375,-2.25830078125
159012,0.00244140625,-0.076416015625,0.9051513671875,-3.479003667831421,-2.13623046875,-2.25830078125
159029,0.003662109375,-0.0732421875,0.8836669921875,-5.371093273162842,-1.6479490995407104,-2.197265625
159045,0.00830078125,-0.061279296875,0.856201171875,-6.164550304412842,-1.6479490995407104,-2.25830078125
159083,0.005859375,-0.045654296875,0.7431640625,-8.544921875,-2.50244140625,-2.13623046875
159099,0.0006103515625,-0.0426025390625,0.6231689453125,-9.33837890625,-2.685546636581421,-2.0751953125
159116,-0.001708984375,-0.0426025390625,0.56396484375,-11.169432640075684,-2.38037109375,-2.01416015625
159133,-0.001220703125,-0.0369873046875,0.4737548828125,-13.366698265075684,-1.8920897245407104,-1.7700194120407104
159149,-0.0001220703125,-0.033447265625,0.4007568359375,-14.526366233825684,-1.7089842557907104,-1.7089842557907104
159166,0.0003662109375,-0.0338134765625,0.353515625,-16.90673828125,-1.220703125,-1.6479490995407104
159203,0.00146484375,-0.043212890625,0.3675537109375,-20.996091842651367,0.1220703050494194,-1.15966796875
159219,-0.0006103515625,-0.04052734375,0.406005859375,-22.338865280151367,0.3662109076976776,-1.15966796875
159236,0.000244140625,-0.0361328125,0.4332275390625,-22.827146530151367,0.4882812201976776,-1.0986328125
159289,0.0137939453125,-0.009765625,0.671875,-23.254392623901367,0.9155272841453552,-0.7324218153953552
159329,0.0087890625,0.0172119140625,0.8687744140625,-20.812986373901367,0.54931640625,-0.7934569716453552
159345,0.0062255859375,0.0224609375,0.8724365234375,-18.4326171875,-0.1220703050494194,-0.8544921278953552
159362,0.001953125,0.0394287109375,0.8841552734375,-17.08984375,-0.0610351525247097,-0.9155272841453552
159382,0.0013427734375,0.044189453125,0.931640625,-13.000487327575684,0.2441406100988388,-0.8544921278953552
159399,-0.00341796875,0.036376953125,0.9384765625,-10.437010765075684,-0.1831054538488388,-1.03759765625
159416,-0.0078125,0.0341796875,0.9217529296875,-9.1552734375,0.0610351525247097,-1.15966796875
159433,-0.006591796875,0.0426025390625,0.9429931640625,-6.408690929412842,0.7324218153953552,-1.3427733182907104
159453,0.0008544921875,0.0477294921875,0.9876708984375,-3.662109136581421,0.4272460639476776,-1.3427733182907104
159470,0.0062255859375,0.0390625,0.9998779296875,-2.25830078125,0.2441406100988388,-1.4648436307907104
159487,0.009033203125,0.0380859375,1.002197265625,0.3662109076976776,0.1831054538488388,-1.6479490995407104
159506,0.0126953125,0.0404052734375,1.0308837890625,3.417968511581421,0.2441406100988388,-1.8310545682907104
159521,0.0185546875,0.0399169921875,1.0526123046875,6.530761241912842,-0.4272460639476776,-2.01416015625
159554,0.0228271484375,0.0294189453125,1.0445556640625,10.314940452575684,-0.6103515625,-2.197265625
159574,0.025146484375,0.01953125,1.0616455078125,12.329100608825684,-1.15966796875,-2.25830078125
159591,0.0203857421875,0.0103759765625,1.0283203125,13.183592796325684,-1.5869139432907104,-2.3193359375
159608,0.0167236328125,0.0052490234375,1.01171875,14.404295921325684,-1.2817381620407104,-2.44140625
159627,0.0213623046875,0.007080078125,1.05615234375,15.319823265075684,-1.15966796875,-2.44140625
159643,0.0260009765625,0.00146484375,1.0777587890625,15.869139671325684,-2.01416015625,-2.44140625
159673,0.0286865234375,-0.01171875,1.0440673828125,16.6015625,-2.197265625,-2.50244140625
159693,0.0322265625,-0.014404296875,1.0538330078125,17.02880859375,-2.50244140625,-2.50244140625
159709,0.0291748046875,-0.0218505859375,1.0499267578125,17.2119140625,-2.685546636581421,-2.563476324081421
159726,0.026611328125,-0.0277099609375,1.04248046875,17.08984375,-2.929687261581421,-2.624511480331421
159744,0.02587890625,-0.03369140625,1.026611328125,16.78466796875,-3.051757574081421,-2.624511480331421
159760,0.022705078125,-0.0394287109375,1.0101318359375,16.41845703125,-2.990722417831421,-2.50244140625
159793,0.0146484375,-0.0477294921875,1.0118408203125,14.709471702575684,-2.563476324081421,-2.50244140625
159813,0.0137939453125,-0.0472412109375,1.0235595703125,13.732909202575684,-2.563476324081421,-2.44140625
159829,0.0125732421875,-0.052490234375,1.0079345703125,13.244627952575684,-2.50244140625,-2.38037109375
159846,0.01220703125,-0.051025390625,1.007080078125,12.268065452575684,-2.197265625,-2.25830078125
159865,0.010498046875,-0.0526123046875,1.00927734375,11.169432640075684,-1.8920897245407104,-2.3193359375
159882,0.0074462890625,-0.0506591796875,1.0032958984375,10.192870140075684,-1.4038084745407104,-2.197265625
159915,0.0067138671875,-0.0572509765625,1.00830078125,8.72802734375,-0.7934569716453552,-2.01416015625
159932,0.0068359375,-0.059326171875,1.006591796875,7.629394054412842,-0.3662109076976776,-1.9531248807907104
159953,0.005126953125,-0.0567626953125,0.99267578125,7.080077648162842,-0.1220703050494194,-1.8920897245407104
159969,0.003662109375,-0.0560302734375,0.98681640625,6.042479991912842,0.4882812201976776,-1.7700194120407104
159986,0.003173828125,-0.0562744140625,0.988037109375,5.0048828125,1.0986328125,-1.6479490995407104
160003,0.0029296875,-0.0584716796875,0.9921875,4.5166015625,1.4038084745407104,-1.5869139432907104
160036,0.0023193359375,-0.0596923828125,0.9906005859375,2.868652105331421,2.197265625,-1.3427733182907104
160053,0.00341796875,-0.0552978515625,0.9844970703125,2.13623046875,2.746581792831421,-1.15966796875
160069,0.0072021484375,-0.052734375,0.994873046875,1.7700194120407104,2.990722417831421,-1.03759765625
160086,0.0076904296875,-0.0537109375,1.000732421875,1.220703125,3.295898199081421,-0.7934569716453552
160153,0.0162353515625,-0.0538330078125,1.04345703125,-0.30517578125,3.784179449081421,-0.30517578125
160169,0.017822265625,-0.0531005859375,1.0460205078125,-0.3662109076976776,3.601073980331421,-0.1831054538488388
160186,0.018310546875,-0.0540771484375,1.042724609375,-0.6713866591453552,3.356933355331421,-0.1220703050494194
160207,0.0213623046875,-0.0550537109375,1.0472412109375,-0.7934569716453552,3.295898199081421,0.0
160226,0.0247802734375,-0.05908203125,1.065673828125,-0.9765624403953552,2.868652105331421,0.0610351525247097
160237,0.0269775390625,-0.0574951171875,1.0692138671875,-0.8544921278953552,2.624511480331421,0.1220703050494194
160271,0.0313720703125,-0.051025390625,1.06640625,-0.8544921278953552,1.5258787870407104,0.3662109076976776
160287,0.0311279296875,-0.0513916015625,1.0692138671875,-0.9155272841453552,1.2817381620407104,0.3662109076976776
160304,0.0286865234375,-0.05126953125,1.0703125,-0.9155272841453552,0.54931640625,0.54931640625
160342,0.022216796875,-0.0576171875,1.0413818359375,-1.15966796875,-0.1831054538488388,0.7324218153953552
160358,0.02392578125,-0.0579833984375,1.0462646484375,-1.15966796875,-0.4272460639476776,0.6713866591453552
160375,0.0223388671875,-0.0546875,1.055419921875,-1.15966796875,-0.7324218153953552,0.6713866591453552
160392,0.01708984375,-0.054931640625,1.0384521484375,-0.8544921278953552,-1.4038084745407104,0.7324218153953552
160408,0.0155029296875,-0.0560302734375,1.0313720703125,-0.6103515625,-1.5869139432907104,0.6713866591453552
160425,0.013916015625,-0.0535888671875,1.025390625,-0.3662109076976776,-1.7089842557907104,0.7324218153953552
160455,0.0081787109375,-0.0540771484375,1.0286865234375,0.1831054538488388,-1.7700194120407104,0.8544921278953552
160476,0.0050048828125,-0.055419921875,1.02783203125,0.4272460639476776,-1.8920897245407104,0.7324218153953552
160492,0.00341796875,-0.0494384765625,1.0228271484375,0.6103515625,-1.8920897245407104,0.7324218153953552
160509,0.0020751953125,-0.0484619140625,1.0184326171875,1.03759765625,-1.8310545682907104,0.8544921278953552
160528,-0.0028076171875,-0.050048828125,1.0133056640625,1.5258787870407104,-1.6479490995407104,0.9155272841453552
160544,-0.005615234375,-0.051025390625,1.0086669921875,1.8920897245407104,-1.2817381620407104,0.9155272841453552
160577,-0.0057373046875,-0.047119140625,1.00830078125,2.3193359375,-0.9155272841453552,0.9765624403953552
160625,-0.0032958984375,-0.0452880859375,0.99853515625,3.173827886581421,-0.1220703050494194,1.220703125
160645,-0.001220703125,-0.0478515625,1.0018310546875,3.417968511581421,0.1831054538488388,1.220703125
160667,-0.0003662109375,-0.0491943359375,1.003173828125,3.540038824081421,0.4882812201976776,1.4038084745407104
160683,0.001708984375,-0.0498046875,1.011474609375,3.601073980331421,0.6103515625,1.4038084745407104
160702,0.001953125,-0.0489501953125,1.01513671875,3.601073980331421,0.6713866591453552,1.5258787870407104
160719,0.004638671875,-0.046875,1.02197265625,3.723144292831421,0.7934569716453552,1.6479490995407104
160752,0.010498046875,-0.052001953125,1.0340576171875,3.967284917831421,0.7934569716453552,1.9531248807907104
160769,0.01123046875,-0.0550537109375,1.0323486328125,3.906249761581421,0.7324218153953552,1.9531248807907104
160786,0.0115966796875,-0.056884765625,1.0244140625,3.723144292831421,0.6103515625,2.13623046875
160802,0.01123046875,-0.0560302734375,1.0172119140625,3.540038824081421,0.6103515625,2.25830078125
160817,0.01220703125,-0.055908203125,1.01904296875,3.173827886581421,0.7324218153953552,2.50244140625
160833,0.0135498046875,-0.0587158203125,1.032470703125,3.051757574081421,0.6713866591453552,2.563476324081421
160850,0.0142822265625,-0.0611572265625,1.0313720703125,2.746581792831421,0.4882812201976776,2.685546636581421
160867,0.0150146484375,-0.0621337890625,1.0224609375,2.3193359375,0.4272460639476776,2.746581792831421
160885,0.016357421875,-0.0616455078125,1.017333984375,1.8310545682907104,0.3662109076976776,2.929687261581421
160906,0.0166015625,-0.0638427734375,1.0277099609375,1.5869139432907104,0.3662109076976776,3.051757574081421
160922,0.0167236328125,-0.0672607421875,1.036376953125,1.220703125,0.30517578125,3.234863042831421
160943,0.015380859375,-0.068359375,1.0338134765625,0.8544921278953552,0.0610351525247097,3.356933355331421
160960,0.01513671875,-0.069091796875,1.0247802734375,0.4882812201976776,0.0610351525247097,3.479003667831421
160976,0.0157470703125,-0.068115234375,1.02490234375,0.30517578125,0.0610351525247097,3.479003667831421
160993,0.0147705078125,-0.0675048828125,1.031982421875,0.0,-0.1220703050494194,3.540038824081421
161010,0.0135498046875,-0.069580078125,1.0272216796875,-0.1220703050494194,-0.30517578125,3.662109136581421
161027,0.0106201171875,-0.0745849609375,1.0081787109375,-0.3662109076976776,-0.2441406100988388,3.784179449081421
161043,0.01025390625,-0.0762939453125,1.009765625,-0.54931640625,-0.1220703050494194,3.784179449081421
161061,0.0103759765625,-0.0765380859375,1.012939453125,-0.7934569716453552,0.0610351525247097,3.662109136581421
161078,0.0123291015625,-0.0760498046875,1.0235595703125,-0.8544921278953552,0.0,3.662109136581421
161111,0.012939453125,-0.0811767578125,1.017822265625,-0.8544921278953552,-0.2441406100988388,3.479003667831421
161128,0.011962890625,-0.0816650390625,1.0015869140625,-0.8544921278953552,-0.1831054538488388,3.356933355331421
161144,0.0147705078125,-0.081298828125,0.99609375,-0.8544921278953552,0.0,3.234863042831421
161180,0.0179443359375,-0.0823974609375,1.0140380859375,-0.7934569716453552,-0.0610351525247097,2.990722417831421
161196,0.0164794921875,-0.0789794921875,1.00634765625,-0.7324218153953552,-0.1831054538488388,2.868652105331421
161213,0.0159912109375,-0.0802001953125,0.997314453125,-0.54931640625,-0.1220703050494194,2.807616949081421
161229,0.0142822265625,-0.078125,0.9873046875,-0.3662109076976776,0.1220703050494194,2.624511480331421
161248,0.014892578125,-0.07861328125,0.9912109375,-0.1220703050494194,0.2441406100988388,2.38037109375
161265,0.0155029296875,-0.0750732421875,0.9832763671875,0.1831054538488388,0.1831054538488388,2.25830078125
161303,0.0166015625,-0.0743408203125,0.969970703125,0.30517578125,0.4882812201976776,2.0751953125
161319,0.02001953125,-0.072265625,0.9735107421875,0.4272460639476776,0.7934569716453552,1.8920897245407104
161336,0.021484375,-0.0726318359375,0.977783203125,0.4272460639476776,0.7934569716453552,1.8310545682907104
161353,0.0218505859375,-0.0711669921875,0.9700927734375,0.3662109076976776,0.6713866591453552,1.7089842557907104
161368,0.0201416015625,-0.0706787109375,0.9512939453125,0.1831054538488388,0.8544921278953552,1.7089842557907104
161385,0.02001953125,-0.0704345703125,0.9615478515625,0.0610351525247097,1.15966796875,1.5869139432907104
161419,0.0234375,-0.0654296875,0.9837646484375,0.1220703050494194,1.03759765625,1.5869139432907104
161469,0.0225830078125,-0.065673828125,0.9388427734375,-0.2441406100988388,0.9765624403953552,1.5869139432907104
161488,0.0242919921875,-0.06591796875,0.93603515625,-0.7934569716453552,0.9765624403953552,1.6479490995407104
161504,0.024658203125,-0.066162109375,0.9361572265625,-1.5258787870407104,1.0986328125,1.6479490995407104
161538,0.0228271484375,-0.066162109375,0.958740234375,-2.746581792831421,1.0986328125,1.6479490995407104
161559,0.0213623046875,-0.0643310546875,0.9610595703125,-2.990722417831421,0.9765624403953552,1.7089842557907104
161575,0.0181884765625,-0.062255859375,0.9425048828125,-3.417968511581421,0.7324218153953552,1.7700194120407104
161592,0.017822265625,-0.0625,0.945068359375,-3.723144292831421,1.03759765625,1.8920897245407104
161609,0.0208740234375,-0.0634765625,0.967529296875,-3.906249761581421,1.0986328125,1.8920897245407104
161625,0.0250244140625,-0.0592041015625,0.9794921875,-4.150390625,0.8544921278953552,1.8310545682907104
161663,0.02294921875,-0.057373046875,0.923095703125,-4.57763671875,0.2441406100988388,2.01416015625
161679,0.0194091796875,-0.05859375,0.9083251953125,-5.0048828125,0.8544921278953552,2.13623046875
161695,0.0205078125,-0.062255859375,0.94873046875,-5.187987804412842,0.9155272841453552,2.13623046875
161716,0.0205078125,-0.0614013671875,0.958740234375,-5.493163585662842,0.3662109076976776,2.01416015625
161733,0.0191650390625,-0.052734375,0.9281005859375,-5.676269054412842,-0.2441406100988388,2.01416015625
161750,0.0196533203125,-0.044189453125,0.892578125,-5.737304210662842,-0.1220703050494194,2.13623046875
161766,0.0220947265625,-0.043212890625,0.9095458984375,-5.859374523162842,0.3662109076976776,2.3193359375
161784,0.0238037109375,-0.0423583984375,0.935791015625,-5.859374523162842,0.54931640625,2.3193359375
161801,0.0240478515625,-0.0382080078125,0.970458984375,-5.371093273162842,0.0,2.197265625
161833,0.0235595703125,-0.03369140625,0.9561767578125,-4.33349609375,-0.8544921278953552,2.25830078125
161855,0.0208740234375,-0.0302734375,0.915771484375,-3.906249761581421,-0.9155272841453552,2.3193359375
161871,0.0201416015625,-0.0291748046875,0.8970947265625,-3.723144292831421,-0.7324218153953552,2.25830078125
161888,0.0242919921875,-0.0252685546875,0.9122314453125,-3.540038824081421,-0.6103515625,2.3193359375
161907,0.0267333984375,-0.020751953125,0.9302978515625,-2.929687261581421,-0.4272460639476776,2.3193359375
161924,0.03125,-0.0086669921875,0.9691162109375,-1.7700194120407104,-0.6713866591453552,2.25830078125
161957,0.036865234375,0.004638671875,1.0009765625,1.5258787870407104,-1.8310545682907104,2.197265625
161973,0.0367431640625,0.004150390625,0.9921875,2.25830078125,-2.0751953125,2.197265625
161989,0.034423828125,0.0018310546875,0.9608154296875,3.662109136581421,-2.197265625,2.13623046875
162006,0.03125,0.006103515625,0.94921875,4.33349609375,-2.0751953125,2.13623046875
162031,0.0284423828125,0.0087890625,0.952392578125,6.469726085662842,-1.8920897245407104,1.8920897245407104
162047,0.027099609375,0.007568359375,0.9736328125,7.202147960662842,-1.7089842557907104,1.8920897245407104
162064,0.0281982421875,0.0081787109375,0.9964599609375,8.60595703125,-1.6479490995407104,1.8920897245407104
162083,0.0294189453125,0.0001220703125,1.0361328125,10.131834983825684,-1.9531248807907104,1.7700194120407104
162100,0.030517578125,-0.0037841796875,1.0494384765625,11.474608421325684,-2.3193359375,1.5869139432907104
162133,0.0257568359375,-0.0084228515625,0.963623046875,13.183592796325684,-2.563476324081421,1.4648436307907104
162149,0.018798828125,-0.0233154296875,0.933349609375,13.427733421325684,-1.5258787870407104,1.3427733182907104
162165,0.0177001953125,-0.029541015625,0.949951171875,13.427733421325684,-1.0986328125,1.2817381620407104
162203,0.0198974609375,-0.0289306640625,1.052490234375,13.854979515075684,-1.0986328125,0.7324218153953552
162253,0.016357421875,-0.03466796875,1.027099609375,14.160155296325684,-0.54931640625,0.8544921278953552
162269,0.01416015625,-0.054443359375,1.0445556640625,13.977049827575684,-0.30517578125,0.8544921278953552
162286,0.01171875,-0.072021484375,1.0589599609375,13.305663108825684,-0.0610351525247097,0.7324218153953552
162322,0.009033203125,-0.0806884765625,1.05859375,11.047362327575684,0.4272460639476776,0.4272460639476776
162344,0.01025390625,-0.076171875,1.0863037109375,10.375975608825684,0.7324218153953552,0.4272460639476776
162360,0.0120849609375,-0.080322265625,1.11962890625,10.131834983825684,0.6713866591453552,0.4272460639476776
162375,0.011962890625,-0.0853271484375,1.11376953125,9.27734375,0.1831054538488388,0.30517578125
162425,0.01171875,-0.0965576171875,1.0570068359375,5.432128429412842,0.8544921278953552,0.0610351525247097
162445,0.0118408203125,-0.0936279296875,1.0928955078125,3.967284917831421,0.9765624403953552,0.1831054538488388
162462,0.0106201171875,-0.0928955078125,1.10693359375,3.356933355331421,0.9155272841453552,0.1220703050494194
162492,0.0111083984375,-0.09130859375,1.1104736328125,1.3427733182907104,0.7934569716453552,0.0610351525247097
162509,0.0113525390625,-0.0943603515625,1.103271484375,0.54931640625,0.9765624403953552,0.1220703050494194
162525,0.0115966796875,-0.099365234375,1.1063232421875,0.1220703050494194,0.8544921278953552,0.0610351525247097
162555,0.0126953125,-0.10107421875,1.07177734375,-1.2817381620407104,1.03759765625,-0.1220703050494194
162576,0.01513671875,-0.0986328125,1.0833740234375,-2.197265625,1.3427733182907104,-0.1831054538488388
162593,0.0186767578125,-0.095703125,1.0986328125,-2.807616949081421,1.220703125,-0.30517578125
162610,0.02294921875,-0.093505859375,1.118896484375,-3.051757574081421,1.220703125,-0.30517578125
162626,0.025146484375,-0.0921630859375,1.1297607421875,-3.234863042831421,1.03759765625,-0.2441406100988388
162643,0.0264892578125,-0.09521484375,1.14208984375,-3.356933355331421,0.9765624403953552,-0.30517578125
162672,0.025146484375,-0.096923828125,1.156005859375,-3.417968511581421,0.7934569716453552,-0.4272460639476776
162726,0.025634765625,-0.102783203125,1.1480712890625,-4.21142578125,1.0986328125,-0.4272460639476776
162751,0.0286865234375,-0.09619140625,1.1080322265625,-4.8828125,1.0986328125,-0.4882812201976776
162768,0.028076171875,-0.0909423828125,1.093017578125,-5.798339366912842,1.4038084745407104,-0.4882812201976776
162785,0.028076171875,-0.0804443359375,1.081787109375,-6.469726085662842,1.7089842557907104,-0.4882812201976776
162803,0.0284423828125,-0.0784912109375,1.0904541015625,-6.774901866912842,1.7089842557907104,-0.4272460639476776
162820,0.0308837890625,-0.07958984375,1.1175537109375,-7.202147960662842,1.7089842557907104,-0.3662109076976776
162853,0.0296630859375,-0.0701904296875,1.1103515625,-7.019042491912842,1.03759765625,-0.54931640625
162875,0.0313720703125,-0.0621337890625,1.1016845703125,-6.652831554412842,0.9155272841453552,-0.4272460639476776
162891,0.030029296875,-0.050537109375,1.073974609375,-6.408690929412842,0.7934569716453552,-0.3662109076976776
162908,0.028564453125,-0.0491943359375,1.068115234375,-5.493163585662842,1.15966796875,-0.30517578125
162926,0.029541015625,-0.0498046875,1.1058349609375,-4.5166015625,1.15966796875,-0.2441406100988388
162942,0.0252685546875,-0.058349609375,1.0977783203125,-3.601073980331421,0.6103515625,-0.3662109076976776
162973,0.0213623046875,-0.050537109375,1.0430908203125,-2.563476324081421,0.54931640625,-0.6103515625
162994,0.0267333984375,-0.03759765625,1.0662841796875,-1.5869139432907104,1.0986328125,-0.4882812201976776
163010,0.0330810546875,-0.0401611328125,1.1092529296875,-0.9155272841453552,0.8544921278953552,-0.4272460639476776
163027,0.02978515625,-0.0421142578125,1.091064453125,0.30517578125,-0.30517578125,-0.4882812201976776
163046,0.0208740234375,-0.047607421875,1.024658203125,1.220703125,-0.1220703050494194,-0.6103515625
163063,0.02099609375,-0.048095703125,1.0220947265625,1.7700194120407104,0.30517578125,-0.7934569716453552
163093,0.0208740234375,-0.0499267578125,1.0284423828125,2.44140625,0.3662109076976776,-0.7934569716453552
163115,0.0244140625,-0.04736328125,1.0531005859375,3.356933355331421,0.2441406100988388,-0.8544921278953552
163131,0.02587890625,-0.047607421875,1.04443359375,3.845214605331421,-0.0610351525247097,-0.8544921278953552
163143,0.030029296875,-0.0445556640625,1.058837890625,4.08935546875,-0.0610351525247097,-0.7934569716453552
163163,0.0594482421875,-0.0308837890625,1.2464599609375,2.0751953125,-0.4272460639476776,-0.6103515625
163180,0.06005859375,-0.0379638671875,1.1304931640625,-3.479003667831421,-5.0048828125,-0.1220703050494194
163196,-0.008056640625,-0.0291748046875,0.818359375,-2.44140625,-3.906249761581421,0.3662109076976776
163213,-0.0025634765625,-0.0479736328125,0.7921142578125,1.5258787870407104,1.8310545682907104,0.9155272841453552
163230,0.0242919921875,-0.05224609375,0.96240234375,1.03759765625,2.868652105331421,0.8544921278953552
163251,0.0263671875,-0.052001953125,1.0108642578125,-0.1220703050494194,1.8310545682907104,0.8544921278953552
163267,0.061767578125,-0.0557861328125,1.2264404296875,0.0610351525247097,-0.0610351525247097,0.6713866591453552
163279,0.0614013671875,-0.0550537109375,1.1029052734375,0.0610351525247097,-1.4648436307907104,0.6103515625
163328,0.017333984375,-0.068603515625,0.966064453125,-0.54931640625,0.4882812201976776,0.4882812201976776
163345,0.0513916015625,-0.0811767578125,1.15283203125,-0.6713866591453552,0.0,0.2441406100988388
163365,0.0404052734375,-0.0457763671875,1.0107421875,-1.9531248807907104,-0.7934569716453552,0.1831054538488388
163381,0.0198974609375,-0.0323486328125,0.959228515625,-1.7700194120407104,-0.4272460639476776,0.2441406100988388
163402,0.0189208984375,-0.0341796875,1.020263671875,-1.03759765625,0.1831054538488388,0.54931640625
163419,0.0255126953125,-0.0548095703125,1.0765380859375,-1.03759765625,-0.3662109076976776,0.4882812201976776
163435,0.0269775390625,-0.0452880859375,0.99462890625,-0.8544921278953552,-0.6103515625,0.4272460639476776
163452,0.0321044921875,-0.043212890625,1.010986328125,-0.2441406100988388,-0.2441406100988388,0.30517578125
163469,0.0343017578125,-0.041259765625,1.0419921875,-0.0610351525247097,-0.4272460639476776,0.30517578125
163485,0.0302734375,-0.0394287109375,1.029541015625,0.30517578125,-0.54931640625,0.3662109076976776
163522,0.0279541015625,-0.04345703125,1.03173828125,0.9155272841453552,-0.1831054538488388,0.3662109076976776
163538,0.027099609375,-0.0458984375,1.024658203125,1.15966796875,-0.2441406100988388,0.3662109076976776
163572,0.030029296875,-0.0382080078125,1.0330810546875,1.9531248807907104,-0.1831054538488388,0.2441406100988388
163588,0.031005859375,-0.0374755859375,1.02880859375,2.50244140625,-0.2441406100988388,0.2441406100988388
163605,0.0303955078125,-0.0382080078125,1.021484375,3.356933355331421,-0.30517578125,0.4272460639476776
