tMillis,ax,ay,az,gx,gy,gz
261488,0.02197265625,-0.102294921875,1.0201416015625,0.7934569716453552,-0.2441406100988388,0.3662109076976776
261505,0.02197265625,-0.10205078125,1.019287109375,0.7934569716453552,-0.1831054538488388,0.3662109076976776
261520,0.0224609375,-0.10107421875,1.0201416015625,0.8544921278953552,-0.2441406100988388,0.4272460639476776
261536,0.0224609375,-0.1021728515625,1.021728515625,0.7934569716453552,-0.2441406100988388,0.4272460639476776
261553,0.0224609375,-0.1021728515625,1.0218505859375,0.7934569716453552,-0.2441406100988388,0.4272460639476776
261575,0.0233154296875,-0.1015625,1.01904296875,0.8544921278953552,-0.2441406100988388,0.30517578125
261592,0.0228271484375,-0.1019287109375,1.017822265625,0.7934569716453552,-0.1220703050494194,0.3662109076976776
261609,0.0230712890625,-0.102783203125,1.021484375,0.8544921278953552,-0.1831054538488388,0.3662109076976776
261625,0.0223388671875,-0.102783203125,1.0189208984375,0.8544921278953552,-0.2441406100988388,0.3662109076976776
261644,0.0224609375,-0.103515625,1.025634765625,0.7934569716453552,-0.2441406100988388,0.4272460639476776
261662,0.023681640625,-0.1021728515625,1.0262451171875,0.8544921278953552,-0.2441406100988388,0.3662109076976776
261686,0.022705078125,-0.1015625,1.0159912109375,0.8544921278953552,-0.1831054538488388,0.30517578125
261702,0.0228271484375,-0.10205078125,1.0203857421875,0.7934569716453552,-0.1831054538488388,0.30517578125
261719,0.02294921875,-0.101806640625,1.020751953125,0.7934569716453552,-0.1831054538488388,0.30517578125
261737,0.022216796875,-0.1026611328125,1.0216064453125,0.8544921278953552,-0.1220703050494194,0.30517578125
261754,0.0218505859375,-0.1029052734375,1.0203857421875,0.7934569716453552,-0.1831054538488388,0.3662109076976776
261774,0.02294921875,-0.101806640625,1.020263671875,0.7934569716453552,-0.1831054538488388,0.3662109076976776
261793,0.023681640625,-0.1019287109375,1.023193359375,0.7934569716453552,-0.1831054538488388,0.4272460639476776
261812,0.023193359375,-0.102783203125,1.0205078125,0.8544921278953552,-0.1831054538488388,0.3662109076976776
261831,0.0216064453125,-0.10302734375,1.0225830078125,0.8544921278953552,-0.1831054538488388,0.3662109076976776
261848,0.022216796875,-0.10302734375,1.0208740234375,0.8544921278953552,-0.1831054538488388,0.3662109076976776
261867,0.0218505859375,-0.1024169921875,1.0216064453125,0.9155272841453552,-0.1831054538488388,0.4272460639476776
261885,0.0230712890625,-0.1016845703125,1.0216064453125,0.8544921278953552,-0.1831054538488388,0.4272460639476776
261906,0.0230712890625,-0.1016845703125,1.020751953125,0.8544921278953552,-0.1831054538488388,0.3662109076976776
261923,0.023193359375,-0.1026611328125,1.0205078125,0.7934569716453552,-0.1831054538488388,0.3662109076976776
261940,0.0224609375,-0.1029052734375,1.02099609375,0.8544921278953552,-0.1831054538488388,0.4272460639476776
261959,0.0220947265625,-0.1024169921875,1.020751953125,0.8544921278953552,-0.1831054538488388,0.4272460639476776
261979,0.0225830078125,-0.1005859375,1.0213623046875,0.7934569716453552,-0.1220703050494194,0.30517578125
261996,0.0228271484375,-0.1024169921875,1.020263671875,0.8544921278953552,-0.1220703050494194,0.3662109076976776
262014,0.0224609375,-0.103271484375,1.020263671875,0.8544921278953552,-0.30517578125,0.4272460639476776
262035,0.0230712890625,-0.1026611328125,1.02099609375,0.9155272841453552,-0.30517578125,0.3662109076976776
262053,0.0230712890625,-0.1031494140625,1.020751953125,0.9155272841453552,-0.2441406100988388,0.30517578125
262070,0.0233154296875,-0.1021728515625,1.0213623046875,0.8544921278953552,-0.1831054538488388,0.30517578125
262089,0.02392578125,-0.1019287109375,1.0205078125,0.8544921278953552,-0.1831054538488388,0.3662109076976776
262108,0.022705078125,-0.102783203125,1.0186767578125,0.8544921278953552,-0.1831054538488388,0.4272460639476776
262120,0.022705078125,-0.1036376953125,1.0205078125,0.7934569716453552,-0.1220703050494194,0.4272460639476776
262137,0.0234375,-0.1026611328125,1.021484375,0.8544921278953552,-0.1220703050494194,0.4272460639476776
262154,0.0235595703125,-0.1024169921875,1.020751953125,0.8544921278953552,-0.1831054538488388,0.3662109076976776
262172,0.0223388671875,-0.1026611328125,1.021240234375,0.8544921278953552,-0.1831054538488388,0.3662109076976776
262192,0.0223388671875,-0.1031494140625,1.0194091796875,0.8544921278953552,-0.1831054538488388,0.3662109076976776
262215,0.0225830078125,-0.102294921875,1.0203857421875,0.9155272841453552,-0.2441406100988388,0.3662109076976776
262231,0.0230712890625,-0.10302734375,1.020751953125,0.9155272841453552,-0.2441406100988388,0.4272460639476776
262247,0.0228271484375,-0.1031494140625,1.021484375,0.7934569716453552,-0.1831054538488388,0.3662109076976776
262264,0.0225830078125,-0.1024169921875,1.0201416015625,0.8544921278953552,-0.2441406100988388,0.3662109076976776
262282,0.0233154296875,-0.1021728515625,1.0208740234375,0.8544921278953552,-0.1220703050494194,0.4272460639476776
262300,0.0223388671875,-0.102294921875,1.020751953125,0.8544921278953552,-0.1831054538488388,0.3662109076976776
262318,0.02294921875,-0.102294921875,1.0203857421875,0.8544921278953552,-0.1831054538488388,0.3662109076976776
262343,0.023193359375,-0.1024169921875,1.0216064453125,0.7934569716453552,-0.1220703050494194,0.3662109076976776
262358,0.0230712890625,-0.1038818359375,1.021240234375,0.7934569716453552,-0.1831054538488388,0.4272460639476776
262374,0.0234375,-0.103271484375,1.02099609375,0.8544921278953552,-0.1831054538488388,0.3662109076976776
262394,0.02197265625,-0.1021728515625,1.02001953125,0.8544921278953552,-0.1831054538488388,0.3662109076976776
262413,0.0225830078125,-0.1031494140625,1.02099609375,0.8544921278953552,-0.2441406100988388,0.3662109076976776
262432,0.02294921875,-0.1026611328125,1.0184326171875,0.7934569716453552,-0.1831054538488388,0.30517578125
262456,0.023681640625,-0.102783203125,1.0205078125,0.8544921278953552,-0.1831054538488388,0.30517578125
262472,0.0223388671875,-0.1031494140625,1.02001953125,0.8544921278953552,-0.1831054538488388,0.3662109076976776
262489,0.02197265625,-0.10302734375,1.0216064453125,0.8544921278953552,-0.1831054538488388,0.30517578125
262508,0.0216064453125,-0.1026611328125,1.0213623046875,0.7934569716453552,-0.2441406100988388,0.3662109076976776
262527,0.0224609375,-0.1029052734375,1.01953125,0.7934569716453552,-0.1831054538488388,0.3662109076976776
262546,0.0235595703125,-0.1015625,1.0179443359375,0.8544921278953552,-0.1831054538488388,0.3662109076976776
262564,0.022705078125,-0.101318359375,1.0213623046875,0.8544921278953552,-0.1220703050494194,0.3662109076976776
262583,0.0218505859375,-0.102783203125,1.0194091796875,0.7934569716453552,-0.1220703050494194,0.30517578125
262608,0.0225830078125,-0.103271484375,1.0242919921875,0.8544921278953552,-0.2441406100988388,0.4272460639476776
262629,0.0224609375,-0.1025390625,1.021484375,0.7934569716453552,-0.1831054538488388,0.3662109076976776
262641,0.020751953125,-0.101806640625,1.0152587890625,0.7934569716453552,-0.1220703050494194,0.3662109076976776
262657,0.0218505859375,-0.1031494140625,1.024169921875,0.8544921278953552,-0.1831054538488388,0.3662109076976776
262676,0.024658203125,-0.102783203125,1.0205078125,0.9155272841453552,-0.1831054538488388,0.4272460639476776
262694,0.0230712890625,-0.102294921875,1.022216796875,0.7934569716453552,-0.2441406100988388,0.3662109076976776
262715,0.0216064453125,-0.103515625,1.0218505859375,0.7934569716453552,-0.2441406100988388,0.3662109076976776
262732,0.02294921875,-0.103515625,1.012939453125,0.7934569716453552,-0.1831054538488388,0.3662109076976776
262751,0.0235595703125,-0.1031494140625,1.0162353515625,0.7934569716453552,-0.2441406100988388,0.3662109076976776
262769,0.022705078125,-0.1031494140625,1.0225830078125,0.8544921278953552,-0.2441406100988388,0.4272460639476776
262786,0.02197265625,-0.1031494140625,1.02197265625,0.8544921278953552,-0.1220703050494194,0.3662109076976776
262835,0.022705078125,-0.1024169921875,1.0208740234375,0.8544921278953552,-0.1831054538488388,0.3662109076976776
262856,0.0220947265625,-0.1025390625,1.017333984375,0.8544921278953552,-0.2441406100988388,0.3662109076976776
262873,0.0230712890625,-0.103271484375,1.0255126953125,0.8544921278953552,-0.2441406100988388,0.3662109076976776
262890,0.023193359375,-0.103515625,1.026611328125,0.8544921278953552,-0.1831054538488388,0.3662109076976776
262906,0.02197265625,-0.1016845703125,1.017578125,0.8544921278953552,-0.2441406100988388,0.3662109076976776
262923,0.0225830078125,-0.1029052734375,1.01708984375,0.7934569716453552,-0.1831054538488388,0.3662109076976776
262956,0.023681640625,-0.10205078125,1.020263671875,0.7934569716453552,-0.1831054538488388,0.3662109076976776
262970,0.021728515625,-0.103515625,1.0263671875,0.8544921278953552,-0.1831054538488388,0.3662109076976776
262990,0.0216064453125,-0.1036376953125,1.0234375,0.7934569716453552,-0.1220703050494194,0.30517578125
263006,0.0233154296875,-0.1031494140625,1.02001953125,0.7934569716453552,-0.1220703050494194,0.30517578125
263072,0.0224609375,-0.104248046875,1.0206298828125,0.7934569716453552,-0.2441406100988388,0.4272460639476776
263150,0.0225830078125,-0.1029052734375,1.0206298828125,0.8544921278953552,-0.1831054538488388,0.4272460639476776
263167,0.0242919921875,-0.1031494140625,1.02294921875,0.8544921278953552,-0.1831054538488388,0.3662109076976776
263184,0.0216064453125,-0.103271484375,1.021484375,0.8544921278953552,-0.1831054538488388,0.3662109076976776
263204,0.021728515625,-0.1031494140625,1.0225830078125,0.7934569716453552,-0.1831054538488388,0.3662109076976776
263221,0.0223388671875,-0.1024169921875,1.019287109375,0.7934569716453552,-0.1831054538488388,0.3662109076976776
263237,0.0234375,-0.1026611328125,1.0208740234375,0.7934569716453552,-0.1831054538488388,0.3662109076976776
263254,0.0223388671875,-0.1036376953125,1.0206298828125,0.8544921278953552,-0.1831054538488388,0.3662109076976776
263270,0.0220947265625,-0.103515625,1.01953125,0.8544921278953552,-0.1831054538488388,0.3662109076976776
263286,0.0224609375,-0.1033935546875,1.01708984375,0.8544921278953552,-0.1831054538488388,0.3662109076976776
263324,0.023193359375,-0.102783203125,1.021484375,0.8544921278953552,-0.1831054538488388,0.3662109076976776
263340,0.0220947265625,-0.103271484375,1.0234375,0.7934569716453552,-0.2441406100988388,0.4272460639476776
263357,0.0225830078125,-0.102294921875,1.0191650390625,0.7934569716453552,-0.1831054538488388,0.3662109076976776
263374,0.023193359375,-0.10302734375,1.0186767578125,0.7934569716453552,-0.1831054538488388,0.3662109076976776
263389,0.02294921875,-0.10400390625,1.01953125,0.7934569716453552,-0.2441406100988388,0.4272460639476776
263406,0.022216796875,-0.10400390625,1.021240234375,0.7934569716453552,-0.1831054538488388,0.4272460639476776
263443,0.02294921875,-0.1029052734375,1.0220947265625,0.8544921278953552,-0.2441406100988388,0.3662109076976776
263465,0.023681640625,-0.1029052734375,1.02001953125,0.8544921278953552,-0.2441406100988388,0.30517578125
263481,0.0224609375,-0.09619140625,1.017822265625,1.15966796875,-0.3662109076976776,0.1831054538488388
263501,0.02294921875,-0.0821533203125,1.01904296875,2.0751953125,-0.3662109076976776,0.4272460639476776
263518,0.0234375,-0.102294921875,1.014404296875,2.50244140625,-0.30517578125,0.4882812201976776
263534,0.0252685546875,-0.0860595703125,1.0135498046875,3.173827886581421,0.1220703050494194,0.1831054538488388
263551,0.02001953125,-0.0777587890625,1.0130615234375,4.33349609375,1.15966796875,0.7934569716453552
263568,0.0045166015625,-0.09619140625,1.0203857421875,5.676269054412842,6.652831554412842,0.7934569716453552
263584,0.04638671875,-0.054931640625,1.2027587890625,9.21630859375,10.131834983825684,1.6479490995407104
263622,0.0411376953125,-0.098388671875,1.6873779296875,23.132322311401367,-0.6103515625,-0.4272460639476776
263638,0.046875,-0.1571044921875,1.7322998046875,27.038572311401367,-0.9155272841453552,-0.30517578125
263655,0.0382080078125,-0.169677734375,1.7220458984375,32.53173828125,-1.7700194120407104,-1.03759765625
263671,0.031982421875,-0.189453125,1.7176513671875,35.94970703125,-3.051757574081421,-1.5258787870407104
263688,0.0340576171875,-0.1669921875,1.634033203125,36.92626953125,-4.0283203125,-2.0751953125
263705,0.039794921875,-0.16259765625,1.5311279296875,36.4990234375,-4.21142578125,-2.01416015625
263739,0.025146484375,-0.2027587890625,1.46875,34.60693359375,-4.150390625,-1.4038084745407104
263755,0.0245361328125,-0.24951171875,1.4705810546875,31.555173873901367,-4.33349609375,-1.0986328125
263767,0.0196533203125,-0.2725830078125,1.4637451171875,28.747556686401367,-4.69970703125,-1.3427733182907104
263784,0.0166015625,-0.281494140625,1.4696044921875,27.648923873901367,-4.45556640625,-1.4648436307907104
263803,0.01513671875,-0.30517578125,1.55126953125,25.878904342651367,-5.554198741912842,-1.2817381620407104
263818,0.001708984375,-0.323974609375,1.4854736328125,23.681638717651367,-7.141112804412842,-1.6479490995407104
263835,-0.0059814453125,-0.334716796875,1.380615234375,20.751951217651367,-6.713866710662842,-1.8310545682907104
263851,-0.0040283203125,-0.3262939453125,1.3616943359375,18.798828125,-6.591796398162842,-1.8920897245407104
263903,-0.00830078125,-0.3277587890625,1.23974609375,8.48388671875,-6.347655773162842,-1.15966796875
263918,-0.003173828125,-0.3291015625,1.216796875,5.554198741912842,-6.347655773162842,-1.2817381620407104
263934,-0.00537109375,-0.323486328125,1.148681640625,4.0283203125,-6.530761241912842,-1.220703125
263951,-0.0059814453125,-0.319091796875,1.1123046875,1.0986328125,-6.469726085662842,-1.0986328125
263968,-0.0059814453125,-0.3150634765625,1.0189208984375,-2.01416015625,-6.286620616912842,-0.9765624403953552
263987,-0.0035400390625,-0.2764892578125,0.9200439453125,-5.065917491912842,-6.042479991912842,-1.03759765625
264007,-0.0042724609375,-0.2591552734375,0.8685302734375,-6.591796398162842,-5.920409679412842,-0.9155272841453552
264024,-0.0086669921875,-0.2181396484375,0.7491455078125,-9.70458984375,-5.187987804412842,-0.6103515625
264044,-0.0096435546875,-0.1915283203125,0.674072265625,-12.512206077575684,-4.08935546875,-0.1831054538488388
264061,-0.0084228515625,-0.166748046875,0.631591796875,-14.953612327575684,-3.662109136581421,0.2441406100988388
264093,-0.0072021484375,-0.13427734375,0.540771484375,-18.00537109375,-2.807616949081421,0.4882812201976776
264115,-0.0042724609375,-0.117431640625,0.4830322265625,-19.775390625,-2.50244140625,0.6713866591453552
264131,-0.0006103515625,-0.0966796875,0.4239501953125,-21.484373092651367,-2.13623046875,0.8544921278953552
264148,0.001708984375,-0.0782470703125,0.355224609375,-22.338865280151367,-1.9531248807907104,0.9765624403953552
264165,0.0020751953125,-0.0693359375,0.3262939453125,-23.986814498901367,-1.3427733182907104,1.220703125
264182,0.0023193359375,-0.0645751953125,0.3006591796875,-25.512693405151367,-0.30517578125,1.4648436307907104
264211,0.0091552734375,-0.0784912109375,0.415283203125,-26.977537155151367,0.7324218153953552,1.7089842557907104
264275,0.012451171875,-0.0858154296875,0.6353759765625,-26.367185592651367,0.8544921278953552,1.5258787870407104
264296,0.01708984375,-0.091064453125,0.734130859375,-25.634763717651367,1.03759765625,1.7089842557907104
264308,0.0162353515625,-0.099853515625,0.780517578125,-24.719236373901367,0.7324218153953552,1.8920897245407104
264325,0.0146484375,-0.1055908203125,0.820556640625,-24.108884811401367,0.4882812201976776,1.8310545682907104
264344,0.0123291015625,-0.10888671875,0.876708984375,-22.766111373901367,0.0,1.6479490995407104
264360,0.01123046875,-0.1004638671875,0.895751953125,-21.179197311401367,-0.0610351525247097,1.6479490995407104
264393,0.00390625,-0.099365234375,0.91259765625,-18.73779296875,0.0610351525247097,1.7700194120407104
264415,-0.001953125,-0.1024169921875,0.9205322265625,-16.90673828125,0.2441406100988388,1.7089842557907104
264431,-0.0030517578125,-0.094970703125,0.9378662109375,-15.014647483825684,0.4882812201976776,1.6479490995407104
264448,-0.0035400390625,-0.09423828125,0.9481201171875,-13.977049827575684,0.6713866591453552,1.6479490995407104
264467,-0.002685546875,-0.09130859375,0.9620361328125,-11.596678733825684,0.7934569716453552,1.7089842557907104
264484,-0.0054931640625,-0.09130859375,0.96142578125,-9.27734375,0.7934569716453552,1.7089842557907104
264515,-0.008056640625,-0.0799560546875,0.984619140625,-5.432128429412842,1.4648436307907104,1.6479490995407104
264537,-0.009521484375,-0.075439453125,0.9820556640625,-2.746581792831421,1.5869139432907104,1.6479490995407104
264553,-0.0076904296875,-0.06982421875,0.9940185546875,0.0610351525247097,2.197265625,1.6479490995407104
264570,-0.0048828125,-0.0712890625,1.0157470703125,1.3427733182907104,2.197265625,1.7089842557907104
264587,-0.0072021484375,-0.0731201171875,1.0103759765625,4.08935546875,2.25830078125,1.7089842557907104
264603,-0.0076904296875,-0.0697021484375,1.0185546875,7.019042491912842,2.624511480331421,1.5869139432907104
264637,-0.001220703125,-0.070068359375,1.0374755859375,11.596678733825684,2.685546636581421,1.5869139432907104
264653,0.0013427734375,-0.071533203125,1.0443115234375,14.221190452575684,2.685546636581421,1.5258787870407104
264670,0.0013427734375,-0.0814208984375,1.031982421875,16.357421875,2.44140625,1.4648436307907104
264690,0.0006103515625,-0.0924072265625,1.0101318359375,17.2119140625,2.38037109375,1.4648436307907104
264702,-0.0003662109375,-0.0968017578125,1.0050048828125,18.61572265625,2.38037109375,1.3427733182907104
264718,0.001953125,-0.0997314453125,1.0164794921875,19.1650390625,2.44140625,1.3427733182907104
264752,-0.0015869140625,-0.1044921875,1.017822265625,20.568845748901367,2.01416015625,1.2817381620407104
264769,0.0032958984375,-0.109619140625,1.05517578125,20.935056686401367,1.5258787870407104,1.2817381620407104
264790,0.0052490234375,-0.1141357421875,1.0631103515625,21.057126998901367,1.03759765625,1.2817381620407104
264806,0.007568359375,-0.1192626953125,1.0440673828125,21.240232467651367,0.4272460639476776,1.220703125
264868,0.00830078125,-0.14306640625,1.0211181640625,21.667478561401367,-1.4038084745407104,0.8544921278953552
264891,0.00830078125,-0.14794921875,1.011962890625,21.545408248901367,-1.5258787870407104,0.7934569716453552
264920,0.010498046875,-0.154541015625,1.0205078125,21.179197311401367,-1.7700194120407104,0.7324218153953552
264956,-0.001708984375,-0.170654296875,0.9886474609375,20.263669967651367,-2.13623046875,0.6103515625
265006,-0.001220703125,-0.179443359375,0.9959716796875,17.9443359375,-1.8310545682907104,0.3662109076976776
265023,-0.00146484375,-0.1829833984375,0.9967041015625,17.39501953125,-1.6479490995407104,0.4272460639476776
265054,-0.00048828125,-0.19189453125,0.9990234375,15.014647483825684,-1.15966796875,0.4272460639476776
265068,0.0009765625,-0.1968994140625,1.0035400390625,14.343260765075684,-1.03759765625,0.4272460639476776
265085,0.0006103515625,-0.203369140625,1.0050048828125,12.939452171325684,-0.9155272841453552,0.6103515625
265121,-0.0037841796875,-0.21142578125,0.9852294921875,10.925292015075684,-0.7934569716453552,0.4882812201976776
265137,-0.00146484375,-0.2120361328125,0.9783935546875,9.521484375,-0.30517578125,0.6103515625
265154,0.00048828125,-0.21923828125,0.98486328125,7.995604991912842,0.0610351525247097,0.54931640625
265171,0.0015869140625,-0.2225341796875,0.989990234375,7.202147960662842,0.1831054538488388,0.54931640625
265187,0.0018310546875,-0.22607421875,0.9937744140625,5.737304210662842,0.30517578125,0.7324218153953552
265203,0.00390625,-0.227783203125,1.00244140625,4.150390625,0.3662109076976776,0.7934569716453552
265235,0.007080078125,-0.231201171875,1.002685546875,1.8920897245407104,0.4272460639476776,0.7324218153953552
265252,0.007568359375,-0.2333984375,0.9979248046875,0.4882812201976776,0.4272460639476776,0.7324218153953552
265272,0.0096435546875,-0.23486328125,1.0001220703125,-0.1831054538488388,0.4882812201976776,0.7934569716453552
265289,0.0098876953125,-0.23681640625,1.0035400390625,-1.3427733182907104,0.4272460639476776,0.7934569716453552
265355,0.0068359375,-0.22509765625,0.955078125,-3.601073980331421,-0.3662109076976776,0.4882812201976776
265422,-0.005126953125,-0.216552734375,0.9114990234375,-4.2724609375,-0.7324218153953552,0.3662109076976776
265439,-0.0074462890625,-0.2120361328125,0.899658203125,-4.33349609375,-0.8544921278953552,0.3662109076976776
265472,-0.0120849609375,-0.20654296875,0.900390625,-4.150390625,-0.6103515625,0.3662109076976776
265489,-0.0135498046875,-0.2049560546875,0.9049072265625,-3.906249761581421,-0.7324218153953552,0.30517578125
265506,-0.0181884765625,-0.1981201171875,0.8721923828125,-3.540038824081421,-0.9765624403953552,0.1831054538488388
265527,-0.0169677734375,-0.1903076171875,0.837646484375,-3.662109136581421,-0.3662109076976776,0.2441406100988388
265546,-0.010986328125,-0.196533203125,0.85400390625,-3.967284917831421,0.1831054538488388,0.30517578125
265562,-0.010009765625,-0.197998046875,0.8756103515625,-4.0283203125,0.2441406100988388,0.2441406100988388
265594,-0.01220703125,-0.1873779296875,0.8931884765625,-2.990722417831421,-0.1220703050494194,-0.0610351525247097
265610,-0.0159912109375,-0.1785888671875,0.8343505859375,-2.746581792831421,-0.3662109076976776,-0.1220703050494194
265627,-0.0169677734375,-0.176025390625,0.7965087890625,-3.051757574081421,0.1220703050494194,0.0
265667,0.002685546875,-0.19189453125,0.8916015625,-4.57763671875,1.7700194120407104,0.0
265683,0.0087890625,-0.185302734375,0.93359375,-4.638671875,1.220703125,-0.1220703050494194
265700,0.004638671875,-0.1832275390625,0.9088134765625,-4.57763671875,-0.1220703050494194,-0.1220703050494194
265720,-0.0084228515625,-0.182373046875,0.822509765625,-5.249022960662842,0.4272460639476776,-0.1220703050494194
265737,-0.0074462890625,-0.1932373046875,0.8304443359375,-6.225585460662842,1.6479490995407104,-0.1220703050494194
265770,0.0091552734375,-0.195068359375,0.936279296875,-7.019042491912842,1.220703125,-0.4272460639476776
265788,0.0096435546875,-0.1900634765625,0.9234619140625,-6.896972179412842,0.30517578125,-0.6713866591453552
265809,-0.0008544921875,-0.17431640625,0.8338623046875,-7.080077648162842,0.0610351525247097,-0.8544921278953552
265825,-0.009765625,-0.1593017578125,0.7711181640625,-7.446288585662842,0.6713866591453552,-0.8544921278953552
265843,0.001708984375,-0.16943359375,0.8944091796875,-8.23974609375,2.563476324081421,-0.6103515625
265860,0.0084228515625,-0.176025390625,0.9781494140625,-7.995604991912842,2.624511480331421,-0.6103515625
265893,0.01953125,-0.1656494140625,1.0855712890625,-4.0283203125,-0.8544921278953552,-1.0986328125
265910,0.0150146484375,-0.159423828125,1.0301513671875,-3.173827886581421,-1.4648436307907104,-1.0986328125
265931,0.002685546875,-0.1566162109375,0.8973388671875,-2.44140625,-1.0986328125,-1.0986328125
265947,-0.0015869140625,-0.1593017578125,0.85791015625,-2.563476324081421,0.0,-0.9765624403953552
265966,-0.0009765625,-0.1693115234375,0.9232177734375,-2.685546636581421,0.4272460639476776,-0.9765624403953552
265983,0.0020751953125,-0.1654052734375,0.98046875,-2.624511480331421,0.1831054538488388,-1.15966796875
266015,0.0048828125,-0.1435546875,0.95361328125,-1.7089842557907104,-1.4038084745407104,-1.0986328125
266032,0.00146484375,-0.1400146484375,0.8985595703125,-1.7700194120407104,-0.7324218153953552,-0.7324218153953552
266049,-0.000732421875,-0.146240234375,0.9002685546875,-1.8310545682907104,-0.1220703050494194,-0.6713866591453552
266070,-0.00390625,-0.150146484375,0.9547119140625,-1.5258787870407104,0.4882812201976776,-0.6713866591453552
266086,-0.0084228515625,-0.14013671875,0.9959716796875,-1.03759765625,0.4272460639476776,-0.6713866591453552
266103,-0.0086669921875,-0.1312255859375,1.0087890625,0.4272460639476776,0.30517578125,-0.6103515625
266136,-0.005126953125,-0.1441650390625,0.9920654296875,2.197265625,0.4882812201976776,-0.3662109076976776
266153,-0.0015869140625,-0.1488037109375,0.991455078125,3.234863042831421,0.7934569716453552,-0.4272460639476776
266170,-0.0006103515625,-0.1417236328125,0.9930419921875,3.479003667831421,0.9155272841453552,-0.3662109076976776
266187,0.0025634765625,-0.13232421875,1.0302734375,4.33349609375,1.4648436307907104,-0.1831054538488388
266211,0.0078125,-0.1292724609375,1.0858154296875,5.493163585662842,1.15966796875,0.1831054538488388
266223,0.00830078125,-0.1304931640625,1.1173095703125,7.080077648162842,0.9765624403953552,0.30517578125
266240,0.01025390625,-0.1361083984375,1.1373291015625,7.995604991912842,0.7934569716453552,0.30517578125
266256,0.013916015625,-0.1441650390625,1.1439208984375,8.7890625,0.4272460639476776,0.30517578125
266273,0.0103759765625,-0.14306640625,1.086669921875,10.925292015075684,-0.30517578125,0.4882812201976776
266290,0.007568359375,-0.1412353515625,1.0555419921875,11.169432640075684,0.0610351525247097,0.54931640625
266307,0.0098876953125,-0.1448974609375,1.072509765625,11.474608421325684,0.9765624403953552,0.8544921278953552
266332,0.023193359375,-0.1651611328125,1.177978515625,11.840819358825684,0.9155272841453552,1.0986328125
266348,0.0294189453125,-0.182861328125,1.2454833984375,13.000487327575684,-0.8544921278953552,0.9765624403953552
266365,0.019287109375,-0.1846923828125,1.2003173828125,13.549803733825684,-1.5869139432907104,0.8544921278953552
266383,0.0155029296875,-0.18212890625,1.1746826171875,14.282225608825684,-1.9531248807907104,0.7934569716453552
266400,0.0120849609375,-0.184326171875,1.1636962890625,14.221190452575684,-1.6479490995407104,1.0986328125
266437,0.0135498046875,-0.2252197265625,1.180419921875,13.366698265075684,-2.929687261581421,1.220703125
266454,0.00634765625,-0.2325439453125,1.1241455078125,12.329100608825684,-2.868652105331421,1.220703125
266487,0.00146484375,-0.242431640625,1.1402587890625,10.803221702575684,-2.3193359375,1.3427733182907104
266505,0.0067138671875,-0.247802734375,1.1640625,9.1552734375,-2.50244140625,1.5258787870407104
266522,0.0064697265625,-0.251708984375,1.1436767578125,7.873534679412842,-3.051757574081421,1.5869139432907104
266554,-0.001220703125,-0.264404296875,1.040283203125,3.845214605331421,-1.7700194120407104,2.01416015625
266574,-0.0025634765625,-0.268798828125,1.0533447265625,2.50244140625,-1.5869139432907104,2.01416015625
266591,-0.00732421875,-0.2669677734375,1.0604248046875,-0.1220703050494194,-1.15966796875,2.0751953125
266608,-0.0091552734375,-0.254638671875,1.044677734375,-1.15966796875,-1.0986328125,2.13623046875
266627,-0.0113525390625,-0.241943359375,1.01416015625,-3.112792730331421,-0.54931640625,2.44140625
266643,-0.013671875,-0.24951171875,1.027587890625,-4.638671875,0.7934569716453552,2.929687261581421
266681,-0.0091552734375,-0.2586669921875,1.1116943359375,-6.652831554412842,1.8920897245407104,3.051757574081421
266697,-0.008056640625,-0.2496337890625,1.080078125,-6.958007335662842,1.8310545682907104,3.051757574081421
266714,-0.008544921875,-0.2418212890625,1.0457763671875,-7.812499523162842,2.25830078125,3.051757574081421
266731,-0.0086669921875,-0.2344970703125,1.019775390625,-8.72802734375,3.601073980331421,3.234863042831421
266747,-0.00341796875,-0.2354736328125,1.0545654296875,-9.1552734375,4.0283203125,3.356933355331421
266764,0.0010986328125,-0.2208251953125,1.0789794921875,-9.82666015625,4.2724609375,3.173827886581421
266794,0.0120849609375,-0.2032470703125,1.07470703125,-9.8876953125,4.150390625,3.234863042831421
266848,0.015380859375,-0.2318115234375,1.109375,-9.09423828125,4.82177734375,3.234863042831421
266888,0.0189208984375,-0.1982421875,1.068115234375,-7.385253429412842,3.173827886581421,2.3193359375
266922,0.0189208984375,-0.1956787109375,1.044677734375,-5.981444835662842,3.295898199081421,2.13623046875
266939,0.0206298828125,-0.2012939453125,1.0596923828125,-5.676269054412842,3.356933355331421,2.0751953125
266972,0.0235595703125,-0.1934814453125,1.071533203125,-3.662109136581421,2.0751953125,1.15966796875
266989,0.0203857421875,-0.1754150390625,1.0159912109375,-2.624511480331421,1.5869139432907104,1.03759765625
267006,0.0120849609375,-0.174072265625,0.96484375,-2.0751953125,2.13623046875,1.03759765625
267027,0.011962890625,-0.1767578125,0.9744873046875,-1.7700194120407104,2.50244140625,0.9765624403953552
267044,0.0181884765625,-0.191650390625,1.027587890625,-1.03759765625,2.197265625,0.54931640625
267060,0.017578125,-0.18359375,1.02294921875,0.1220703050494194,1.7700194120407104,0.1831054538488388
267093,0.019287109375,-0.172119140625,1.002685546875,1.7700194120407104,1.5869139432907104,-0.0610351525247097
267110,0.0223388671875,-0.1727294921875,1.009765625,2.807616949081421,1.7089842557907104,-0.0610351525247097
267127,0.0220947265625,-0.1754150390625,1.018310546875,3.601073980331421,1.5869139432907104,-0.1831054538488388
267167,0.0208740234375,-0.177734375,1.01318359375,4.7607421875,1.3427733182907104,-0.4882812201976776
267183,0.0218505859375,-0.1778564453125,1.003173828125,5.126952648162842,1.3427733182907104,-0.54931640625
267200,0.0225830078125,-0.183837890625,0.997802734375,5.187987804412842,1.5258787870407104,-0.6103515625
267221,0.0928955078125,-0.2064208984375,1.4278564453125,3.906249761581421,1.8310545682907104,-0.6713866591453552
267237,0.125,-0.1959228515625,1.3970947265625,-3.417968511581421,-2.50244140625,-0.7324218153953552
267254,0.0592041015625,-0.1627197265625,1.01171875,-6.164550304412842,-5.554198741912842,-0.9155272841453552
267271,0.02197265625,-0.151611328125,0.8760986328125,-8.85009765625,-3.295898199081421,-0.3662109076976776
267290,0.0311279296875,-0.1575927734375,0.953857421875,-7.812499523162842,-3.479003667831421,-0.2441406100988388
267311,0.0242919921875,-0.1546630859375,0.9486083984375,-9.033203125,-3.906249761581421,-0.4272460639476776
267327,0.013916015625,-0.1365966796875,0.90234375,-8.1787109375,-3.845214605331421,-0.30517578125
267345,-0.014892578125,-0.1251220703125,0.8389892578125,-6.591796398162842,-2.38037109375,0.1831054538488388
267362,-0.0443115234375,-0.0784912109375,0.7220458984375,1.9531248807907104,3.540038824081421,1.7700194120407104
267393,0.102294921875,-0.289306640625,1.6097412109375,0.4882812201976776,-2.38037109375,0.6103515625
267409,0.0223388671875,-0.10791015625,0.6844482421875,-1.8310545682907104,-3.112792730331421,0.30517578125
267425,-0.01611328125,-0.1025390625,0.5880126953125,-3.112792730331421,-0.0610351525247097,0.7324218153953552
267458,0.045654296875,-0.1824951171875,1.1390380859375,-3.601073980331421,-2.0751953125,-0.30517578125
267479,0.0352783203125,-0.1177978515625,0.87255859375,-3.295898199081421,-1.6479490995407104,-0.1220703050494194
267512,0.0228271484375,-0.17724609375,1.088623046875,-2.990722417831421,-0.8544921278953552,0.6103515625
267528,0.0113525390625,-0.1669921875,0.9267578125,-3.173827886581421,-0.7934569716453552,0.6103515625
267545,0.0115966796875,-0.17919921875,1.007080078125,-4.0283203125,-0.1220703050494194,0.3662109076976776
267579,0.025390625,-0.121826171875,0.9837646484375,-4.39453125,-0.2441406100988388,0.54931640625
267600,0.0213623046875,-0.1317138671875,1.0240478515625,-4.21142578125,-0.1220703050494194,0.6713866591453552
267616,0.0211181640625,-0.152587890625,1.0194091796875,-4.39453125,-0.30517578125,0.7324218153953552
267632,0.020263671875,-0.164306640625,1.001953125,-4.82177734375,-0.1220703050494194,0.54931640625
267699,0.02001953125,-0.1314697265625,1.0142822265625,-4.08935546875,-0.1831054538488388,0.6713866591453552
267716,0.0208740234375,-0.135498046875,1.007568359375,-3.967284917831421,-0.1831054538488388,0.6713866591453552
267735,0.0230712890625,-0.143310546875,1.0235595703125,-3.784179449081421,-0.1220703050494194,0.54931640625
267763,0.0216064453125,-0.1212158203125,1.013671875,-3.234863042831421,-0.0610351525247097,0.4882812201976776
267889,0.02392578125,-0.120361328125,1.0208740234375,-1.2817381620407104,-0.2441406100988388,0.4882812201976776
267901,0.0238037109375,-0.1214599609375,1.0172119140625,-0.7934569716453552,-0.30517578125,0.4272460639476776
267933,0.022216796875,-0.115478515625,1.0213623046875,-0.0610351525247097,-0.1831054538488388,0.3662109076976776
267948,0.0230712890625,-0.116943359375,1.02001953125,0.2441406100988388,-0.30517578125,0.4272460639476776
267965,0.02392578125,-0.118408203125,1.0203857421875,0.7324218153953552,-0.4272460639476776,0.4272460639476776
267997,0.023193359375,-0.1226806640625,1.019775390625,1.15966796875,-0.2441406100988388,0.3662109076976776
268035,0.0228271484375,-0.118896484375,1.016845703125,1.7700194120407104,-0.2441406100988388,0.2441406100988388
268088,0.020751953125,-0.1241455078125,1.009033203125,2.746581792831421,-0.54931640625,0.1220703050494194
268127,0.0230712890625,-0.123291015625,1.014892578125,3.173827886581421,-0.30517578125,0.1831054538488388
268143,0.022216796875,-0.12646484375,1.0152587890625,3.356933355331421,-0.3662109076976776,0.30517578125
268192,0.0224609375,-0.1319580078125,1.01611328125,3.601073980331421,-0.30517578125,0.30517578125
268247,0.0191650390625,-0.1414794921875,1.0164794921875,2.807616949081421,-0.30517578125,0.30517578125
268259,0.0218505859375,-0.138916015625,1.0186767578125,2.50244140625,-0.3662109076976776,0.2441406100988388
268292,0.022705078125,-0.140869140625,1.0169677734375,1.5869139432907104,-0.2441406100988388,0.30517578125
268428,0.021728515625,-0.135498046875,1.017822265625,-0.6103515625,-0.1831054538488388,0.3662109076976776
268440,0.0203857421875,-0.13330078125,1.0174560546875,-0.6713866591453552,-0.1220703050494194,0.4272460639476776
268473,0.0233154296875,-0.1314697265625,1.015869140625,-0.6713866591453552,-0.1220703050494194,0.4272460639476776
268489,0.0216064453125,-0.1317138671875,1.01611328125,-0.6103515625,-0.0610351525247097,0.3662109076976776
268506,0.0208740234375,-0.1328125,1.0159912109375,-0.6713866591453552,-0.1220703050494194,0.4272460639476776
268540,0.021484375,-0.13037109375,1.017822265625,-0.7324218153953552,-0.0610351525247097,0.3662109076976776
268609,0.0198974609375,-0.1292724609375,1.019287109375,-0.4272460639476776,-0.1220703050494194,0.4272460639476776
268621,0.0203857421875,-0.1292724609375,1.017333984375,-0.3662109076976776,-0.1220703050494194,0.4272460639476776
268654,0.0240478515625,-0.1280517578125,1.0166015625,-0.30517578125,-0.0610351525247097,0.4882812201976776
268671,0.023193359375,-0.12841796875,1.0186767578125,-0.30517578125,-0.1220703050494194,0.4272460639476776
268687,0.0225830078125,-0.1279296875,1.0198974609375,-0.30517578125,-0.1220703050494194,0.4882812201976776
268729,0.021240234375,-0.1265869140625,1.0189208984375,-0.1220703050494194,-0.2441406100988388,0.4272460639476776
268745,0.022705078125,-0.126220703125,1.0189208984375,-0.1220703050494194,-0.2441406100988388,0.4272460639476776
268757,0.0220947265625,-0.12744140625,1.018310546875,-0.0610351525247097,-0.1220703050494194,0.4272460639476776
268774,0.0213623046875,-0.126953125,1.017822265625,-0.0610351525247097,-0.1220703050494194,0.4882812201976776
268790,0.0223388671875,-0.125732421875,1.0186767578125,0.0610351525247097,-0.1220703050494194,0.4272460639476776
268844,0.0230712890625,-0.1246337890625,1.0181884765625,0.4272460639476776,-0.1831054538488388,0.4272460639476776
268860,0.021240234375,-0.12353515625,1.0196533203125,0.4272460639476776,-0.1831054538488388,0.3662109076976776
268896,0.02197265625,-0.12353515625,1.017822265625,0.6713866591453552,-0.1220703050494194,0.3662109076976776
268908,0.0225830078125,-0.1241455078125,1.0189208984375,0.7324218153953552,-0.1220703050494194,0.3662109076976776
268925,0.02197265625,-0.1239013671875,1.019775390625,0.7934569716453552,-0.1220703050494194,0.3662109076976776
268962,0.02294921875,-0.1239013671875,1.017822265625,0.9765624403953552,-0.1831054538488388,0.2441406100988388
269011,0.0224609375,-0.124267578125,1.018798828125,1.15966796875,-0.1831054538488388,0.3662109076976776
269034,0.022705078125,-0.1251220703125,1.01806640625,1.15966796875,-0.2441406100988388,0.3662109076976776
269050,0.0224609375,-0.1260986328125,1.01806640625,1.15966796875,-0.1831054538488388,0.3662109076976776
269067,0.022216796875,-0.1246337890625,1.018310546875,1.2817381620407104,-0.2441406100988388,0.3662109076976776
269086,0.022705078125,-0.126708984375,1.0196533203125,1.2817381620407104,-0.1831054538488388,0.3662109076976776
269102,0.0223388671875,-0.1273193359375,1.018798828125,1.3427733182907104,-0.2441406100988388,0.3662109076976776
269133,0.0216064453125,-0.1273193359375,1.0162353515625,1.0986328125,-0.1831054538488388,0.3662109076976776
269155,0.0223388671875,-0.127197265625,1.016845703125,1.03759765625,-0.1831054538488388,0.3662109076976776
269171,0.022216796875,-0.12841796875,1.0184326171875,1.03759765625,-0.2441406100988388,0.4272460639476776
269188,0.021240234375,-0.1279296875,1.018310546875,0.9155272841453552,-0.1831054538488388,0.3662109076976776
269207,0.0223388671875,-0.1287841796875,1.0181884765625,0.8544921278953552,-0.1831054538488388,0.3662109076976776
269224,0.0203857421875,-0.1287841796875,1.017333984375,0.6103515625,-0.1831054538488388,0.3662109076976776
269256,0.02294921875,-0.127685546875,1.018310546875,0.54931640625,-0.1831054538488388,0.3662109076976776
269305,0.0218505859375,-0.1278076171875,1.0174560546875,0.4882812201976776,-0.1831054538488388,0.3662109076976776
269324,0.0223388671875,-0.1280517578125,1.0186767578125,0.4272460639476776,-0.2441406100988388,0.3662109076976776
269341,0.0220947265625,-0.1268310546875,1.0185546875,0.3662109076976776,-0.1831054538488388,0.4272460639476776
269374,0.0218505859375,-0.1246337890625,1.02001953125,0.3662109076976776,-0.1220703050494194,0.3662109076976776
269390,0.0218505859375,-0.1246337890625,1.0186767578125,0.4272460639476776,-0.1220703050494194,0.3662109076976776
269407,0.0218505859375,-0.125244140625,1.0174560546875,0.4882812201976776,-0.1831054538488388,0.4272460639476776
269428,0.0234375,-0.124267578125,1.0189208984375,0.54931640625,-0.1831054538488388,0.4272460639476776
269444,0.0224609375,-0.124267578125,1.0174560546875,0.54931640625,-0.1831054538488388,0.4882812201976776
269456,0.0211181640625,-0.1241455078125,1.0177001953125,0.6103515625,-0.0610351525247097,0.4272460639476776
269489,0.0220947265625,-0.1204833984375,1.0089111328125,0.9765624403953552,0.7324218153953552,0.3662109076976776
269508,0.0263671875,-0.1044921875,1.00732421875,1.8920897245407104,2.197265625,0.6713866591453552
269525,0.02490234375,-0.113037109375,1.0479736328125,3.540038824081421,3.723144292831421,0.8544921278953552
269555,0.048583984375,-0.071044921875,1.1201171875,7.995604991912842,4.57763671875,0.3662109076976776
269576,0.0758056640625,-0.0860595703125,1.2469482421875,10.253905296325684,3.723144292831421,0.0610351525247097
269591,0.1002197265625,-0.0994873046875,1.501953125,14.953612327575684,-0.4272460639476776,-0.6713866591453552
269608,0.094482421875,-0.1256103515625,1.5172119140625,17.27294921875,-1.7700194120407104,-0.9765624403953552
269626,0.0814208984375,-0.162841796875,1.442626953125,20.385740280151367,-3.234863042831421,-1.5258787870407104
269643,0.072509765625,-0.1787109375,1.4154052734375,21.911619186401367,-3.417968511581421,-2.13623046875
269673,0.04931640625,-0.1873779296875,1.4830322265625,22.827146530151367,-3.356933355331421,-3.051757574081421
269693,0.0491943359375,-0.177978515625,1.502685546875,24.291990280151367,-3.967284917831421,-3.479003667831421
269709,0.054931640625,-0.1771240234375,1.5302734375,26.184080123901367,-5.493163585662842,-3.356933355331421
269726,0.0411376953125,-0.2176513671875,1.4420166015625,26.733396530151367,-5.920409679412842,-3.295898199081421
269745,0.0341796875,-0.2308349609375,1.408447265625,26.428220748901367,-5.615233898162842,-3.479003667831421
269762,0.0162353515625,-0.2578125,1.365478515625,25.329587936401367,-5.310058116912842,-3.601073980331421
269795,-0.00390625,-0.2860107421875,1.360595703125,22.094724655151367,-4.638671875,-3.662109136581421
269812,-0.0030517578125,-0.289306640625,1.35498046875,21.118162155151367,-4.69970703125,-3.540038824081421
269833,-0.0030517578125,-0.3084716796875,1.3126220703125,19.10400390625,-4.21142578125,-3.417968511581421
269849,-0.0086669921875,-0.314453125,1.290283203125,18.00537109375,-3.845214605331421,-3.356933355331421
269866,-0.020751953125,-0.3197021484375,1.237548828125,15.380858421325684,-3.417968511581421,-3.173827886581421
269883,-0.02490234375,-0.3209228515625,1.215576171875,12.695311546325684,-2.3193359375,-2.929687261581421
269916,-0.015869140625,-0.3004150390625,1.16455078125,7.385253429412842,-1.220703125,-2.563476324081421
269965,-0.014892578125,-0.273193359375,1.0205078125,0.9155272841453552,0.7934569716453552,-1.5258787870407104
269986,-0.0135498046875,-0.2652587890625,0.971435546875,-0.4272460639476776,1.0986328125,-1.4648436307907104
270003,-0.011474609375,-0.2572021484375,0.9481201171875,-2.929687261581421,1.7089842557907104,-1.3427733182907104
270034,-0.0059814453125,-0.222900390625,0.8782958984375,-5.859374523162842,2.25830078125,-1.03759765625
270050,-0.0045166015625,-0.2164306640625,0.853515625,-7.568358898162842,2.44140625,-0.8544921278953552
270067,0.001220703125,-0.2056884765625,0.8282470703125,-8.85009765625,2.50244140625,-0.7934569716453552
270109,0.01025390625,-0.1834716796875,0.7725830078125,-10.253905296325684,1.7700194120407104,-0.9765624403953552
270125,0.0062255859375,-0.16259765625,0.69287109375,-11.169432640075684,1.7089842557907104,-0.9155272841453552
270142,0.00927734375,-0.15380859375,0.6829833984375,-12.268065452575684,1.6479490995407104,-0.7324218153953552
270163,0.0086669921875,-0.1473388671875,0.67236328125,-12.878417015075684,1.0986328125,-0.7934569716453552
270179,0.0101318359375,-0.140625,0.6624755859375,-13.122557640075684,0.7934569716453552,-0.7934569716453552
270196,0.015869140625,-0.1204833984375,0.6588134765625,-13.671874046325684,-0.4272460639476776,-0.7934569716453552
270213,0.017333984375,-0.1160888671875,0.644775390625,-13.793944358825684,-0.9155272841453552,-0.7934569716453552
270230,0.018798828125,-0.100830078125,0.6053466796875,-13.793944358825684,-1.5869139432907104,-0.6713866591453552
270251,0.014404296875,-0.0999755859375,0.5948486328125,-13.916014671325684,-1.7700194120407104,-0.4882812201976776
270267,0.0142822265625,-0.1014404296875,0.618896484375,-13.854979515075684,-2.01416015625,-0.3662109076976776
270281,0.0140380859375,-0.1058349609375,0.6292724609375,-13.671874046325684,-2.563476324081421,-0.2441406100988388
270297,0.012451171875,-0.1107177734375,0.6485595703125,-13.366698265075684,-2.929687261581421,-0.1831054538488388
270330,0.006591796875,-0.1121826171875,0.631591796875,-12.023924827575684,-3.845214605331421,0.1220703050494194
270348,-0.0010986328125,-0.1129150390625,0.6220703125,-11.230467796325684,-3.540038824081421,0.3662109076976776
270364,-0.003662109375,-0.1142578125,0.6221923828125,-10.803221702575684,-3.295898199081421,0.4882812201976776
270400,-0.0118408203125,-0.1429443359375,0.710205078125,-9.58251953125,-2.197265625,0.8544921278953552
270416,-0.0093994140625,-0.1513671875,0.755615234375,-8.23974609375,-1.4648436307907104,1.03759765625
270433,-0.0050048828125,-0.1661376953125,0.8472900390625,-6.286620616912842,-1.220703125,1.220703125
270449,-0.0013427734375,-0.1802978515625,0.9298095703125,-5.126952648162842,-1.15966796875,1.15966796875
270468,-0.0047607421875,-0.192138671875,0.978515625,-1.3427733182907104,-1.5258787870407104,1.220703125
270485,-0.0074462890625,-0.1907958984375,0.986572265625,-0.1220703050494194,-1.5869139432907104,1.2817381620407104
270519,-0.009765625,-0.189697265625,1.02880859375,3.723144292831421,-1.4648436307907104,1.3427733182907104
270536,-0.010986328125,-0.18994140625,1.0296630859375,6.591796398162842,-1.7089842557907104,1.4038084745407104
270569,-0.010498046875,-0.1690673828125,1.0294189453125,10.986327171325684,-2.01416015625,1.4038084745407104
270635,-0.013427734375,-0.1622314453125,0.9520263671875,16.54052734375,-2.0751953125,1.7089842557907104
270719,-0.01513671875,-0.1893310546875,0.9913330078125,18.6767578125,-1.7700194120407104,1.9531248807907104
270768,-0.0157470703125,-0.211669921875,1.011962890625,19.04296875,-1.7700194120407104,2.01416015625
270785,-0.0135498046875,-0.2279052734375,1.0235595703125,18.73779296875,-1.7089842557907104,2.13623046875
270821,-0.0111083984375,-0.256591796875,1.0150146484375,18.12744140625,-2.3193359375,1.9531248807907104
270838,-0.0125732421875,-0.2613525390625,0.98291015625,17.333984375,-2.25830078125,2.01416015625
270855,-0.0137939453125,-0.262451171875,0.9703369140625,16.78466796875,-2.01416015625,2.01416015625
270871,-0.0113525390625,-0.2630615234375,0.978515625,16.11328125,-1.8310545682907104,2.01416015625
270883,-0.009033203125,-0.2635498046875,0.9840087890625,14.648436546325684,-1.8920897245407104,2.0751953125
270900,-0.0064697265625,-0.2672119140625,0.9713134765625,13.854979515075684,-2.01416015625,2.0751953125
270933,-0.00732421875,-0.2701416015625,0.9608154296875,10.437010765075684,-1.7700194120407104,2.01416015625
270949,-0.005126953125,-0.260986328125,0.9766845703125,8.9111328125,-1.6479490995407104,1.9531248807907104
270970,-0.0054931640625,-0.25830078125,0.983642578125,8.11767578125,-1.5869139432907104,1.9531248807907104
270987,-0.0047607421875,-0.2550048828125,1.000732421875,6.774901866912842,-1.5258787870407104,2.0751953125
271006,-0.003173828125,-0.2647705078125,1.008056640625,5.615233898162842,-1.7700194120407104,2.0751953125
271023,-0.005859375,-0.26806640625,0.9906005859375,4.2724609375,-1.6479490995407104,1.9531248807907104
271053,-0.0072021484375,-0.26513671875,0.9967041015625,2.25830078125,-1.15966796875,1.8310545682907104
271075,-0.00537109375,-0.2625732421875,1.0059814453125,1.03759765625,-1.220703125,1.8920897245407104
271090,-0.0062255859375,-0.2691650390625,0.992431640625,0.4272460639476776,-1.220703125,1.9531248807907104
271107,-0.00830078125,-0.2783203125,0.986328125,-0.9155272841453552,-1.03759765625,2.0751953125
271126,-0.01513671875,-0.2908935546875,0.9749755859375,-2.25830078125,-0.7324218153953552,1.8920897245407104
271142,-0.018310546875,-0.2900390625,0.9736328125,-2.929687261581421,-0.6713866591453552,1.8310545682907104
271173,-0.0146484375,-0.27783203125,0.97705078125,-5.493163585662842,-0.0610351525247097,1.8920897245407104
271193,-0.015625,-0.27880859375,0.9854736328125,-6.408690929412842,0.0,1.8310545682907104
271209,-0.0184326171875,-0.2747802734375,0.9796142578125,-6.835937023162842,0.0,1.7700194120407104
271261,-0.014404296875,-0.252197265625,0.9945068359375,-8.544921875,0.6713866591453552,1.5258787870407104
271306,-0.012451171875,-0.242431640625,0.9954833984375,-9.46044921875,0.8544921278953552,1.5258787870407104
271323,-0.0120849609375,-0.2420654296875,0.99609375,-9.58251953125,0.8544921278953552,1.5258787870407104
271353,-0.01416015625,-0.240478515625,0.9801025390625,-9.8876953125,0.9155272841453552,1.2817381620407104
271370,-0.0123291015625,-0.23681640625,0.97900390625,-9.82666015625,1.15966796875,1.220703125
271386,-0.0103759765625,-0.2364501953125,0.984619140625,-9.765625,1.0986328125,1.0986328125
271424,-0.008056640625,-0.23095703125,0.974609375,-9.1552734375,0.8544921278953552,0.9155272841453552
271440,-0.009033203125,-0.2239990234375,0.972412109375,-8.72802734375,0.9155272841453552,0.7934569716453552
271457,-0.0086669921875,-0.2220458984375,0.977294921875,-8.1787109375,0.9155272841453552,0.6103515625
271474,-0.009521484375,-0.214111328125,0.9881591796875,-7.812499523162842,0.8544921278953552,0.54931640625
271524,-0.008544921875,-0.2060546875,1.006103515625,-5.0048828125,0.1220703050494194,0.4272460639476776
271546,-0.009765625,-0.2037353515625,0.9976806640625,-4.08935546875,0.0610351525247097,0.2441406100988388
271563,-0.0084228515625,-0.20556640625,0.998046875,-3.662109136581421,0.0,0.2441406100988388
271596,-0.0068359375,-0.2080078125,0.989013671875,-2.01416015625,-0.3662109076976776,0.1220703050494194
271613,-0.0076904296875,-0.2086181640625,0.9774169921875,-1.4038084745407104,-0.54931640625,0.0610351525247097
271630,-0.0107421875,-0.2110595703125,0.959228515625,-1.15966796875,-0.54931640625,0.0
271646,-0.0098876953125,-0.2110595703125,0.9581298828125,-0.8544921278953552,-0.4882812201976776,-0.0610351525247097
271665,-0.0113525390625,-0.2127685546875,0.939697265625,-0.6103515625,-0.6103515625,-0.1831054538488388
271702,-0.014404296875,-0.2127685546875,0.9168701171875,-0.6713866591453552,-0.4882812201976776,-0.1831054538488388
271723,-0.015869140625,-0.211181640625,0.9056396484375,-1.15966796875,-0.3662109076976776,-0.2441406100988388
271740,-0.0184326171875,-0.2130126953125,0.9005126953125,-1.5869139432907104,0.1831054538488388,-0.2441406100988388
271756,-0.0169677734375,-0.21533203125,0.9254150390625,-1.9531248807907104,0.2441406100988388,-0.30517578125
271773,-0.0152587890625,-0.2125244140625,0.92626953125,-2.197265625,0.1220703050494194,-0.4272460639476776
271790,-0.0145263671875,-0.2117919921875,0.9163818359375,-2.3193359375,0.0610351525247097,-0.4882812201976776
271807,-0.011474609375,-0.20654296875,0.901611328125,-2.563476324081421,0.2441406100988388,-0.54931640625
271828,-0.01220703125,-0.2047119140625,0.8800048828125,-3.051757574081421,0.3662109076976776,-0.4882812201976776
271844,-0.0128173828125,-0.2030029296875,0.8807373046875,-3.295898199081421,0.6103515625,-0.4882812201976776
271861,-0.012451171875,-0.2060546875,0.8936767578125,-3.540038824081421,0.9765624403953552,-0.54931640625
271892,-0.0133056640625,-0.19482421875,0.8743896484375,-3.234863042831421,0.4272460639476776,-0.9155272841453552
271908,-0.0145263671875,-0.186767578125,0.8458251953125,-3.112792730331421,0.4882812201976776,-0.9155272841453552
271925,-0.0145263671875,-0.1854248046875,0.8162841796875,-3.356933355331421,1.220703125,-0.7324218153953552
271954,-0.0079345703125,-0.1959228515625,0.8590087890625,-3.906249761581421,2.38037109375,-0.7324218153953552
271976,-0.002685546875,-0.1949462890625,0.91357421875,-3.845214605331421,2.38037109375,-0.7934569716453552
271991,-0.005126953125,-0.187744140625,0.9091796875,-3.295898199081421,1.9531248807907104,-0.9765624403953552
272008,-0.0072021484375,-0.1800537109375,0.8896484375,-2.624511480331421,1.8920897245407104,-1.0986328125
272026,-0.0057373046875,-0.1751708984375,0.869140625,-2.38037109375,2.13623046875,-1.03759765625
272043,0.0018310546875,-0.177978515625,0.888916015625,-1.9531248807907104,2.807616949081421,-0.8544921278953552
272073,0.0059814453125,-0.1890869140625,0.91015625,-1.7089842557907104,2.807616949081421,-0.9155272841453552
272095,0.007080078125,-0.185302734375,0.9124755859375,-1.7700194120407104,2.563476324081421,-1.0986328125
272111,0.0029296875,-0.1541748046875,0.8702392578125,-1.8310545682907104,2.746581792831421,-1.03759765625
272128,0.0006103515625,-0.147705078125,0.8817138671875,-1.7700194120407104,3.662109136581421,-0.6713866591453552
272147,0.00341796875,-0.1500244140625,0.9576416015625,-1.6479490995407104,3.845214605331421,-0.54931640625
272164,0.00244140625,-0.1578369140625,0.9781494140625,-0.6713866591453552,3.112792730331421,-0.3662109076976776
272193,0.0133056640625,-0.153076171875,0.9493408203125,0.3662109076976776,2.44140625,-0.4272460639476776
272209,0.0140380859375,-0.145263671875,0.9151611328125,0.4272460639476776,2.563476324081421,-0.3662109076976776
272225,0.0128173828125,-0.1435546875,0.88232421875,0.1831054538488388,3.479003667831421,0.0
272245,0.010009765625,-0.15185546875,0.9044189453125,0.1831054538488388,4.150390625,0.1831054538488388
272265,0.010986328125,-0.171630859375,1.0465087890625,1.03759765625,4.2724609375,0.1220703050494194
272282,0.015625,-0.1768798828125,1.135009765625,2.746581792831421,2.3193359375,-0.1220703050494194
272315,0.0152587890625,-0.1666259765625,0.973388671875,5.371093273162842,2.01416015625,0.0
272332,0.0152587890625,-0.1798095703125,0.993408203125,5.554198741912842,2.38037109375,0.0
272348,0.0145263671875,-0.19580078125,1.0367431640625,5.737304210662842,1.6479490995407104,-0.30517578125
272364,0.0184326171875,-0.178466796875,1.013671875,5.920409679412842,1.03759765625,-0.6103515625
272384,0.0211181640625,-0.1639404296875,0.981689453125,5.859374523162842,1.0986328125,-0.3662109076976776
272406,0.021240234375,-0.16357421875,0.9866943359375,6.042479991912842,1.4648436307907104,-0.2441406100988388
272422,0.0233154296875,-0.182861328125,1.0789794921875,6.774901866912842,1.5869139432907104,-0.30517578125
272441,0.0234375,-0.1883544921875,1.148681640625,8.23974609375,0.2441406100988388,-0.6103515625
272458,0.02294921875,-0.18359375,1.1085205078125,8.97216796875,-0.4272460639476776,-0.7324218153953552
272491,0.0157470703125,-0.1905517578125,1.037841796875,10.253905296325684,-0.3662109076976776,-0.4882812201976776
272508,0.0111083984375,-0.203125,1.0460205078125,10.009765625,-0.4882812201976776,-0.7324218153953552
272523,0.0108642578125,-0.20166015625,1.0255126953125,9.8876953125,-0.6103515625,-0.9155272841453552
272543,0.0159912109375,-0.1925048828125,1.029296875,9.33837890625,-0.7324218153953552,-1.15966796875
272563,0.02001953125,-0.173828125,0.9937744140625,8.60595703125,-0.8544921278953552,-1.03759765625
272579,0.0218505859375,-0.175537109375,0.9869384765625,7.751464366912842,-0.4882812201976776,-0.7934569716453552
272611,0.009033203125,-0.2052001953125,1.0279541015625,6.652831554412842,-0.30517578125,-0.9155272841453552
272678,0.00732421875,-0.198974609375,0.990966796875,1.220703125,1.15966796875,-0.4882812201976776
272699,0.0079345703125,-0.218994140625,1.0599365234375,0.6713866591453552,1.2817381620407104,-0.4882812201976776
272715,0.0157470703125,-0.22021484375,1.0860595703125,-0.2441406100988388,0.9765624403953552,-0.6713866591453552
272745,0.0135498046875,-0.197509765625,0.98974609375,-1.03759765625,0.1831054538488388,-0.54931640625
272808,0.0155029296875,-0.2103271484375,1.078369140625,-2.624511480331421,1.220703125,-0.1220703050494194
272825,0.0203857421875,-0.1942138671875,1.043212890625,-2.197265625,0.9155272841453552,0.0
272842,0.0179443359375,-0.1937255859375,1.0308837890625,-1.6479490995407104,1.4038084745407104,0.4882812201976776
272862,0.0125732421875,-0.2037353515625,1.0584716796875,-1.3427733182907104,1.9531248807907104,0.6103515625
272879,0.0052490234375,-0.1990966796875,1.09033203125,-0.7934569716453552,1.5258787870407104,0.54931640625
272895,-0.000244140625,-0.16357421875,1.0701904296875,0.1220703050494194,1.8310545682907104,0.9155272841453552
272912,0.0091552734375,-0.155029296875,1.09716796875,0.8544921278953552,2.01416015625,1.2817381620407104
272929,0.027099609375,-0.1534423828125,1.11865234375,2.38037109375,1.15966796875,1.8920897245407104
272944,0.0260009765625,-0.1749267578125,1.083984375,3.173827886581421,0.9765624403953552,2.197265625
272961,0.02294921875,-0.1915283203125,1.087890625,4.5166015625,1.5258787870407104,2.50244140625
273031,0.0380859375,-0.20166015625,1.0802001953125,7.141112804412842,-0.4272460639476776,2.44140625
273050,0.0418701171875,-0.2352294921875,1.128173828125,7.568358898162842,-0.8544921278953552,2.563476324081421
273071,0.0399169921875,-0.265380859375,1.1326904296875,7.690429210662842,-1.8920897245407104,2.197265625
273087,0.03759765625,-0.2513427734375,1.091796875,7.629394054412842,-2.563476324081421,1.8920897245407104
273106,0.032958984375,-0.239990234375,1.0546875,7.385253429412842,-2.990722417831421,1.7700194120407104
273123,0.0286865234375,-0.2352294921875,1.0341796875,6.835937023162842,-2.929687261581421,2.01416015625
273153,0.0277099609375,-0.268310546875,1.04541015625,5.554198741912842,-2.868652105331421,2.13623046875
273170,0.0299072265625,-0.27197265625,1.0533447265625,4.94384765625,-2.990722417831421,1.9531248807907104
273187,0.0296630859375,-0.2606201171875,1.0582275390625,4.8828125,-3.173827886581421,1.8920897245407104
273208,0.0284423828125,-0.26416015625,1.066162109375,4.94384765625,-3.295898199081421,1.8920897245407104
273224,0.02392578125,-0.2750244140625,1.064208984375,4.94384765625,-3.356933355331421,1.7700194120407104
273241,0.0233154296875,-0.284912109375,1.0633544921875,4.94384765625,-3.356933355331421,1.5869139432907104
273274,0.02294921875,-0.28466796875,1.0675048828125,5.187987804412842,-3.479003667831421,1.220703125
273323,0.016845703125,-0.2833251953125,1.0626220703125,5.554198741912842,-3.540038824081421,0.6103515625
273357,0.01220703125,-0.2611083984375,1.009521484375,5.187987804412842,-3.540038824081421,0.4882812201976776
273406,-0.136962890625,-0.2900390625,0.856689453125,-1.8920897245407104,3.906249761581421,1.4038084745407104
273418,-0.0140380859375,-0.2059326171875,0.8382568359375,-10.253905296325684,10.620116233825684,2.563476324081421
273451,0.0296630859375,-0.264404296875,0.9647216796875,-6.958007335662842,10.192870140075684,2.807616949081421
273468,0.02734375,-0.2459716796875,0.9959716796875,-8.1787109375,9.46044921875,2.01416015625
273485,0.0281982421875,-0.25927734375,0.99462890625,-7.446288585662842,9.21630859375,1.8310545682907104
273521,0.0821533203125,-0.4981689453125,2.1981201171875,-7.812499523162842,4.8828125,0.6713866591453552
273537,0.0487060546875,-0.3709716796875,1.6214599609375,-11.718749046325684,-3.906249761581421,-1.5258787870407104
273554,0.0111083984375,-0.1251220703125,0.6383056640625,-11.779784202575684,-2.13623046875,-0.54931640625
273569,0.02294921875,-0.2100830078125,0.8951416015625,-12.268065452575684,-1.6479490995407104,-0.3662109076976776
273588,0.0159912109375,-0.2166748046875,0.9534912109375,-10.742186546325684,-3.356933355331421,-1.220703125
273604,0.0118408203125,-0.2093505859375,0.9244384765625,-10.742186546325684,-3.662109136581421,-1.4648436307907104
273637,-0.050537109375,-0.1131591796875,0.728515625,-3.356933355331421,-0.0610351525247097,-0.1220703050494194
273658,0.0198974609375,-0.2476806640625,1.423828125,-3.295898199081421,3.479003667831421,1.220703125
273674,0.0916748046875,-0.2235107421875,1.2584228515625,-6.530761241912842,-3.112792730331421,0.1220703050494194
273691,0.0069580078125,-0.096923828125,0.5377197265625,-5.493163585662842,-3.234863042831421,0.3662109076976776
273708,0.00244140625,-0.1669921875,0.78466796875,-2.197265625,1.7700194120407104,1.3427733182907104
273724,0.0380859375,-0.295654296875,1.338134765625,-2.990722417831421,-0.7934569716453552,0.2441406100988388
273758,0.015380859375,-0.1776123046875,1.0462646484375,-2.01416015625,0.0610351525247097,0.3662109076976776
273775,0.0177001953125,-0.2073974609375,1.1663818359375,-1.03759765625,-0.7324218153953552,0.30517578125
273796,0.0205078125,-0.173583984375,0.9222412109375,-0.4272460639476776,-1.03759765625,0.4272460639476776
273812,0.0130615234375,-0.217529296875,1.033935546875,-0.0610351525247097,-0.4272460639476776,0.54931640625
273829,0.0191650390625,-0.2034912109375,1.0123291015625,-0.3662109076976776,-0.4882812201976776,0.2441406100988388
273846,0.0220947265625,-0.180908203125,0.9654541015625,-0.1831054538488388,-0.4882812201976776,0.1831054538488388
273866,0.02099609375,-0.183837890625,1.031494140625,0.4882812201976776,-0.4882812201976776,0.4272460639476776
273884,0.0198974609375,-0.1961669921875,1.0064697265625,0.54931640625,-0.6713866591453552,0.30517578125
273901,0.0167236328125,-0.2083740234375,0.9952392578125,0.54931640625,-0.4882812201976776,0.30517578125
273933,0.0189208984375,-0.19140625,0.99755859375,0.4882812201976776,-0.4882812201976776,0.1831054538488388
273955,0.0203857421875,-0.1846923828125,1.0130615234375,0.9765624403953552,-0.6103515625,0.2441406100988388
273971,0.0159912109375,-0.193603515625,1.010498046875,1.15966796875,-0.6103515625,0.30517578125
273983,0.0155029296875,-0.1995849609375,1.0037841796875,1.2817381620407104,-0.3662109076976776,0.4272460639476776
274003,0.0189208984375,-0.200927734375,1.0018310546875,1.220703125,-0.3662109076976776,0.3662109076976776
274020,0.01806640625,-0.2030029296875,1.0059814453125,1.0986328125,-0.4882812201976776,0.1831054538488388
274037,0.017578125,-0.2022705078125,1.002197265625,1.03759765625,-0.4272460639476776,0.1220703050494194
274053,0.0174560546875,-0.1934814453125,1.00537109375,0.7934569716453552,-0.4272460639476776,0.4272460639476776
274075,0.01513671875,-0.2076416015625,1.005615234375,0.2441406100988388,-0.4272460639476776,0.4272460639476776
274091,0.017333984375,-0.21044921875,1.005859375,-0.0610351525247097,-0.2441406100988388,0.3662109076976776
274108,0.0174560546875,-0.208251953125,1.00927734375,-0.6713866591453552,-0.1220703050494194,0.30517578125
274174,0.0164794921875,-0.201171875,1.00341796875,-1.4648436307907104,-0.1831054538488388,0.4882812201976776
274194,0.017333984375,-0.199951171875,1.007568359375,-1.7700194120407104,-0.1220703050494194,0.4272460639476776
274210,0.0181884765625,-0.1956787109375,1.0059814453125,-1.8920897245407104,-0.1220703050494194,0.4272460639476776
274227,0.01806640625,-0.1942138671875,1.0057373046875,-2.197265625,-0.1831054538488388,0.4272460639476776
274246,0.0172119140625,-0.194580078125,1.00439453125,-2.563476324081421,-0.0610351525247097,0.4882812201976776
274263,0.0186767578125,-0.2000732421875,1.0084228515625,-2.868652105331421,-0.0610351525247097,0.4882812201976776
274296,0.017578125,-0.192138671875,1.00927734375,-3.417968511581421,0.0610351525247097,0.4882812201976776
274364,0.017333984375,-0.18603515625,1.0086669921875,-3.845214605331421,0.0,0.54931640625
274386,0.0191650390625,-0.183349609375,1.0115966796875,-3.906249761581421,0.0,0.54931640625
274402,0.0194091796875,-0.1805419921875,1.0091552734375,-3.967284917831421,0.0,0.54931640625
274423,0.01806640625,-0.1795654296875,1.0079345703125,-3.967284917831421,0.0,0.54931640625
274440,0.017578125,-0.178466796875,1.009521484375,-3.967284917831421,0.0610351525247097,0.6103515625
274473,0.01904296875,-0.1707763671875,1.0091552734375,-3.662109136581421,0.0610351525247097,0.54931640625
274489,0.0189208984375,-0.1702880859375,1.010986328125,-3.540038824081421,0.0610351525247097,0.4882812201976776
274522,0.018310546875,-0.168212890625,1.0107421875,-2.990722417831421,-0.0610351525247097,0.54931640625
274585,0.0198974609375,-0.1641845703125,1.0130615234375,-2.0751953125,-0.0610351525247097,0.4882812201976776
274606,0.0206298828125,-0.1640625,1.01318359375,-1.7700194120407104,0.0,0.4882812201976776
274623,0.0201416015625,-0.1610107421875,1.0128173828125,-1.5869139432907104,0.0,0.4882812201976776
274653,0.0189208984375,-0.1573486328125,1.0123291015625,-0.7934569716453552,-0.1220703050494194,0.4272460639476776
274670,0.0201416015625,-0.1573486328125,1.016357421875,-0.4882812201976776,-0.1220703050494194,0.3662109076976776
274687,0.0203857421875,-0.1585693359375,1.0145263671875,0.0610351525247097,-0.1831054538488388,0.4272460639476776
274706,0.020263671875,-0.1591796875,1.0113525390625,0.4272460639476776,-0.2441406100988388,0.30517578125
274727,0.02001953125,-0.15966796875,1.016357421875,0.8544921278953552,-0.1831054538488388,0.30517578125
274739,0.019775390625,-0.158203125,1.0135498046875,1.03759765625,-0.1831054538488388,0.3662109076976776
274772,0.0181884765625,-0.1602783203125,1.0137939453125,1.7700194120407104,-0.2441406100988388,0.30517578125
274789,0.0189208984375,-0.1602783203125,1.0126953125,1.8920897245407104,-0.30517578125,0.3662109076976776
274805,0.0208740234375,-0.1605224609375,1.0146484375,2.25830078125,-0.30517578125,0.30517578125
274835,0.020263671875,-0.1630859375,1.0103759765625,2.685546636581421,-0.2441406100988388,0.30517578125
274856,0.019287109375,-0.165771484375,1.0137939453125,2.746581792831421,-0.30517578125,0.30517578125
274873,0.0186767578125,-0.1678466796875,1.0120849609375,2.868652105331421,-0.2441406100988388,0.30517578125
274890,0.01904296875,-0.1688232421875,1.011962890625,2.868652105331421,-0.2441406100988388,0.30517578125
274909,0.01904296875,-0.1708984375,1.0106201171875,2.807616949081421,-0.30517578125,0.30517578125
274925,0.01953125,-0.172607421875,1.0101318359375,2.685546636581421,-0.30517578125,0.30517578125
274959,0.0191650390625,-0.1722412109375,1.014404296875,2.3193359375,-0.30517578125,0.30517578125
274979,0.017822265625,-0.1727294921875,1.0078125,2.197265625,-0.30517578125,0.3662109076976776
274996,0.0189208984375,-0.17724609375,1.0123291015625,2.01416015625,-0.30517578125,0.30517578125
275013,0.0181884765625,-0.1771240234375,1.0091552734375,1.5869139432907104,-0.2441406100988388,0.3662109076976776
275080,0.019775390625,-0.17626953125,1.0111083984375,0.3662109076976776,-0.1831054538488388,0.3662109076976776
275100,0.019287109375,-0.1751708984375,1.0120849609375,0.1220703050494194,-0.2441406100988388,0.3662109076976776
275117,0.017822265625,-0.173828125,1.010498046875,0.0,-0.1831054538488388,0.3662109076976776
275134,0.018798828125,-0.1717529296875,1.0113525390625,-0.1831054538488388,-0.1220703050494194,0.3662109076976776
275150,0.018798828125,-0.1707763671875,1.010009765625,-0.2441406100988388,-0.1831054538488388,0.4272460639476776
275166,0.019775390625,-0.1707763671875,1.010986328125,-0.1831054538488388,-0.1831054538488388,0.4272460639476776
275203,0.0181884765625,-0.17041015625,1.0130615234375,-0.2441406100988388,-0.1831054538488388,0.4882812201976776
275219,0.0177001953125,-0.169921875,1.01318359375,-0.2441406100988388,-0.1831054538488388,0.4882812201976776
275251,0.0194091796875,-0.169677734375,1.01123046875,-0.2441406100988388,-0.1220703050494194,0.4272460639476776
275272,0.0184326171875,-0.169189453125,1.012451171875,-0.30517578125,-0.0610351525247097,0.4272460639476776
275288,0.019287109375,-0.1671142578125,1.01123046875,-0.2441406100988388,-0.1831054538488388,0.4272460639476776
275305,0.0191650390625,-0.1663818359375,1.0145263671875,-0.1831054538488388,-0.2441406100988388,0.4272460639476776
275324,0.0196533203125,-0.1661376953125,1.0115966796875,-0.0610351525247097,-0.2441406100988388,0.4272460639476776
275341,0.0194091796875,-0.1651611328125,1.011962890625,0.1220703050494194,-0.2441406100988388,0.4272460639476776
275373,0.0186767578125,-0.1658935546875,1.0123291015625,0.4272460639476776,-0.1831054538488388,0.3662109076976776
275393,0.0185546875,-0.165771484375,1.0120849609375,0.54931640625,-0.1220703050494194,0.4272460639476776
275409,0.018310546875,-0.1658935546875,1.011474609375,0.6103515625,-0.1831054538488388,0.3662109076976776
275426,0.0196533203125,-0.16650390625,1.01171875,0.6713866591453552,-0.1831054538488388,0.3662109076976776
275445,0.01953125,-0.166015625,1.012451171875,0.7324218153953552,-0.1831054538488388,0.3662109076976776
275462,0.0191650390625,-0.1668701171875,1.011962890625,0.7324218153953552,-0.2441406100988388,0.30517578125
275494,0.018798828125,-0.1646728515625,1.0120849609375,0.9765624403953552,-0.2441406100988388,0.3662109076976776
275516,0.02001953125,-0.165283203125,1.0125732421875,1.03759765625,-0.2441406100988388,0.3662109076976776
275532,0.02001953125,-0.166015625,1.01220703125,1.15966796875,-0.1831054538488388,0.3662109076976776
275549,0.0185546875,-0.1650390625,1.0103759765625,1.2817381620407104,-0.2441406100988388,0.30517578125
275568,0.0185546875,-0.168212890625,1.0133056640625,1.3427733182907104,-0.30517578125,0.30517578125
275585,0.0194091796875,-0.16748046875,1.0115966796875,1.2817381620407104,-0.2441406100988388,0.3662109076976776
275616,0.0203857421875,-0.166748046875,1.013427734375,1.4038084745407104,-0.2441406100988388,0.3662109076976776
275632,0.0198974609375,-0.1673583984375,1.012451171875,1.3427733182907104,-0.2441406100988388,0.3662109076976776
275652,0.0189208984375,-0.16748046875,1.0120849609375,1.3427733182907104,-0.30517578125,0.4272460639476776
275669,0.018798828125,-0.1695556640625,1.0120849609375,1.4038084745407104,-0.2441406100988388,0.3662109076976776
275691,0.0194091796875,-0.169921875,1.0126953125,1.3427733182907104,-0.2441406100988388,0.3662109076976776
275707,0.019287109375,-0.1700439453125,1.01416015625,1.3427733182907104,-0.2441406100988388,0.3662109076976776
275724,0.01904296875,-0.1700439453125,1.0128173828125,1.220703125,-0.2441406100988388,0.4272460639476776
275743,0.018310546875,-0.1702880859375,1.0103759765625,1.0986328125,-0.2441406100988388,0.3662109076976776
275760,0.017822265625,-0.1702880859375,1.0128173828125,0.9765624403953552,-0.1831054538488388,0.3662109076976776
275776,0.0194091796875,-0.1705322265625,1.0107421875,0.8544921278953552,-0.1220703050494194,0.3662109076976776
275793,0.0198974609375,-0.1705322265625,1.0113525390625,0.7934569716453552,-0.1220703050494194,0.3662109076976776
275809,0.0196533203125,-0.17138671875,1.0106201171875,0.7324218153953552,-0.1831054538488388,0.3662109076976776
275824,0.0184326171875,-0.169677734375,1.0120849609375,0.6713866591453552,-0.1831054538488388,0.4272460639476776
275845,0.01806640625,-0.1690673828125,1.0115966796875,0.54931640625,-0.1831054538488388,0.30517578125
275864,0.0189208984375,-0.1690673828125,1.010986328125,0.54931640625,-0.1831054538488388,0.3662109076976776
275881,0.0206298828125,-0.1689453125,1.01318359375,0.4882812201976776,-0.1831054538488388,0.3662109076976776
275914,0.0179443359375,-0.169921875,1.011474609375,0.4272460639476776,-0.2441406100988388,0.3662109076976776
275931,0.0179443359375,-0.1693115234375,1.011474609375,0.4272460639476776,-0.1831054538488388,0.3662109076976776
275947,0.01953125,-0.1680908203125,1.008056640625,0.3662109076976776,-0.1220703050494194,0.4272460639476776
275980,0.018798828125,-0.1668701171875,1.011962890625,0.3662109076976776,-0.1831054538488388,0.4272460639476776
275996,0.01806640625,-0.1676025390625,1.011474609375,0.4272460639476776,-0.1831054538488388,0.4272460639476776
276013,0.0186767578125,-0.166748046875,1.0115966796875,0.4882812201976776,-0.1831054538488388,0.4272460639476776
276030,0.020751953125,-0.1658935546875,1.013427734375,0.54931640625,-0.1831054538488388,0.3662109076976776
276049,0.0189208984375,-0.1663818359375,1.012451171875,0.6103515625,-0.1831054538488388,0.30517578125
276065,0.01806640625,-0.1661376953125,1.013671875,0.7324218153953552,-0.1831054538488388,0.4272460639476776
276098,0.0194091796875,-0.1663818359375,1.0113525390625,0.8544921278953552,-0.1831054538488388,0.30517578125
276114,0.0206298828125,-0.1661376953125,1.011474609375,0.8544921278953552,-0.2441406100988388,0.3662109076976776
276131,0.019775390625,-0.166015625,1.0125732421875,0.9155272841453552,-0.2441406100988388,0.3662109076976776
276152,0.0185546875,-0.167236328125,1.0125732421875,0.9765624403953552,-0.2441406100988388,0.3662109076976776
276164,0.02001953125,-0.167724609375,1.0111083984375,1.03759765625,-0.2441406100988388,0.3662109076976776
276181,0.0196533203125,-0.1678466796875,1.0108642578125,1.03759765625,-0.2441406100988388,0.3662109076976776
276213,0.0185546875,-0.167236328125,1.013427734375,0.9155272841453552,-0.1831054538488388,0.30517578125
276230,0.018310546875,-0.1678466796875,1.010986328125,0.9155272841453552,-0.1831054538488388,0.30517578125
276247,0.01904296875,-0.167724609375,1.01123046875,0.9765624403953552,-0.1831054538488388,0.3662109076976776
276268,0.018798828125,-0.1676025390625,1.010986328125,0.9765624403953552,-0.1831054538488388,0.3662109076976776
276286,0.0191650390625,-0.1671142578125,1.0135498046875,0.9765624403953552,-0.1831054538488388,0.3662109076976776
276297,0.018798828125,-0.1683349609375,1.012451171875,0.9765624403953552,-0.1831054538488388,0.3662109076976776
276331,0.0184326171875,-0.1680908203125,1.0126953125,1.03759765625,-0.1831054538488388,0.30517578125
276348,0.0189208984375,-0.1680908203125,1.011474609375,0.9155272841453552,-0.1831054538488388,0.3662109076976776
276364,0.019287109375,-0.168701171875,1.0103759765625,0.9155272841453552,-0.2441406100988388,0.4272460639476776
276401,0.0184326171875,-0.168212890625,1.0111083984375,1.03759765625,-0.1831054538488388,0.4272460639476776
276417,0.0185546875,-0.1693115234375,1.0126953125,1.03759765625,-0.1831054538488388,0.4272460639476776
276434,0.019287109375,-0.16943359375,1.01220703125,0.9765624403953552,-0.1831054538488388,0.30517578125
276450,0.01904296875,-0.1697998046875,1.0106201171875,0.9765624403953552,-0.1831054538488388,0.3662109076976776
276467,0.01904296875,-0.1705322265625,1.0115966796875,0.8544921278953552,-0.1220703050494194,0.3662109076976776
276532,0.01806640625,-0.1700439453125,1.0107421875,0.6103515625,-0.1220703050494194,0.3662109076976776
276587,0.0181884765625,-0.167236328125,1.011474609375,0.6103515625,-0.1831054538488388,0.3662109076976776
276603,0.0196533203125,-0.1680908203125,1.0108642578125,0.6713866591453552,-0.1831054538488388,0.4272460639476776
276636,0.0181884765625,-0.16748046875,1.01220703125,0.7324218153953552,-0.1220703050494194,0.4272460639476776
276653,0.0194091796875,-0.16845703125,1.01318359375,0.7324218153953552,-0.1220703050494194,0.3662109076976776
276670,0.018798828125,-0.1685791015625,1.0113525390625,0.7934569716453552,-0.1831054538488388,0.3662109076976776
276687,0.018798828125,-0.16796875,1.0107421875,0.7934569716453552,-0.1831054538488388,0.3662109076976776
276763,0.0185546875,-0.16748046875,1.0101318359375,0.7324218153953552,-0.2441406100988388,0.3662109076976776
276779,0.018310546875,-0.1680908203125,1.011474609375,0.7324218153953552,-0.1220703050494194,0.4272460639476776
276796,0.018310546875,-0.168212890625,1.0118408203125,0.6103515625,-0.1831054538488388,0.3662109076976776
276813,0.0184326171875,-0.1678466796875,1.011962890625,0.6103515625,-0.1831054538488388,0.4272460639476776
276829,0.0186767578125,-0.166259765625,1.0107421875,0.6713866591453552,-0.1220703050494194,0.4272460639476776
276865,0.020263671875,-0.166748046875,1.0137939453125,0.7934569716453552,-0.1831054538488388,0.4272460639476776
276885,0.0184326171875,-0.16650390625,1.010986328125,0.8544921278953552,-0.1831054538488388,0.3662109076976776
276901,0.019287109375,-0.1673583984375,1.0130615234375,0.9155272841453552,-0.2441406100988388,0.30517578125
276930,0.01953125,-0.1688232421875,1.0107421875,0.9765624403953552,-0.1831054538488388,0.3662109076976776
276946,0.0184326171875,-0.16845703125,1.011962890625,0.9765624403953552,-0.1831054538488388,0.3662109076976776
276994,0.01904296875,-0.16650390625,1.01025390625,1.03759765625,-0.1220703050494194,0.3662109076976776
277016,0.0185546875,-0.160400390625,1.0025634765625,1.3427733182907104,0.0610351525247097,0.1831054538488388
277032,0.0213623046875,-0.149169921875,1.000244140625,1.7089842557907104,0.4272460639476776,0.1831054538488388
277049,0.0235595703125,-0.140625,1.0035400390625,3.234863042831421,2.197265625,0.4882812201976776
277066,0.0205078125,-0.1231689453125,1.0491943359375,6.225585460662842,4.8828125,1.0986328125
277083,0.037353515625,-0.1041259765625,1.0848388671875,10.314940452575684,5.676269054412842,1.03759765625
277116,0.06298828125,-0.229736328125,1.4437255859375,14.831542015075684,0.9765624403953552,-0.7324218153953552
277132,0.0455322265625,-0.2255859375,1.4796142578125,16.11328125,-0.6713866591453552,-1.4648436307907104
277148,0.0416259765625,-0.238525390625,1.4683837890625,16.4794921875,-0.30517578125,-1.7089842557907104
277203,0.0426025390625,-0.220458984375,1.495361328125,14.648436546325684,-0.7934569716453552,-2.563476324081421
277249,0.048095703125,-0.23974609375,1.52294921875,11.657713890075684,-0.2441406100988388,-1.4038084745407104
277266,0.0384521484375,-0.292724609375,1.4996337890625,9.1552734375,-0.6103515625,-1.5258787870407104
277283,0.0413818359375,-0.3162841796875,1.4906005859375,7.690429210662842,-0.4272460639476776,-1.7700194120407104
277301,0.0523681640625,-0.3197021484375,1.553955078125,5.126952648162842,-0.30517578125,-2.01416015625
277318,0.0513916015625,-0.316650390625,1.5439453125,2.746581792831421,-2.13623046875,-2.197265625
277335,0.0433349609375,-0.3023681640625,1.461181640625,0.0610351525247097,-2.990722417831421,-1.8310545682907104
277351,0.032470703125,-0.3236083984375,1.41162109375,-3.662109136581421,-3.234863042831421,-1.5258787870407104
277404,0.018798828125,-0.339599609375,1.3255615234375,-12.145995140075684,-4.8828125,-1.8920897245407104
277445,0.0125732421875,-0.27392578125,1.1866455078125,-19.95849609375,-6.469726085662842,-1.6479490995407104
277487,-0.0135498046875,-0.2354736328125,0.99169921875,-24.841306686401367,-6.286620616912842,-1.15966796875
277499,-0.01220703125,-0.2117919921875,0.9332275390625,-25.756834030151367,-6.042479991912842,-1.0986328125
277531,-0.0068359375,-0.1571044921875,0.81494140625,-28.320310592651367,-6.347655773162842,-0.7934569716453552
277549,-0.008056640625,-0.1451416015625,0.7655029296875,-28.808591842651367,-6.164550304412842,-0.6713866591453552
277567,-0.0107421875,-0.122314453125,0.706298828125,-29.357908248901367,-5.676269054412842,-0.4882812201976776
277605,-0.0142822265625,-0.0897216796875,0.6131591796875,-29.296873092651367,-5.187987804412842,-0.1831054538488388
277621,-0.01171875,-0.076171875,0.5904541015625,-28.686521530151367,-4.69970703125,-0.0610351525247097
277633,-0.010986328125,-0.0694580078125,0.5787353515625,-27.770994186401367,-4.33349609375,0.1220703050494194
277650,-0.01171875,-0.0655517578125,0.5687255859375,-27.099607467651367,-4.08935546875,0.1220703050494194
277669,-0.0098876953125,-0.0472412109375,0.5667724609375,-25.390623092651367,-3.967284917831421,0.30517578125
277685,-0.01416015625,-0.0411376953125,0.5234375,-23.498533248901367,-3.601073980331421,0.3662109076976776
277719,-0.0179443359375,-0.044921875,0.4925537109375,-21.118162155151367,-2.563476324081421,0.54931640625
277740,-0.0159912109375,-0.0545654296875,0.53662109375,-19.83642578125,-2.13623046875,0.54931640625
277756,-0.013916015625,-0.0377197265625,0.58349609375,-19.10400390625,-2.13623046875,0.3662109076976776
277772,-0.010498046875,-0.0277099609375,0.619873046875,-16.7236328125,-2.3193359375,0.4882812201976776
277788,-0.0107421875,-0.0230712890625,0.63671875,-13.793944358825684,-2.44140625,0.3662109076976776
277805,-0.02001953125,-0.0213623046875,0.6475830078125,-10.620116233825684,-2.563476324081421,0.4272460639476776
277839,-0.024658203125,-0.030029296875,0.68603515625,-5.981444835662842,-1.9531248807907104,0.3662109076976776
277860,-0.0233154296875,-0.024169921875,0.73486328125,-2.624511480331421,-1.6479490995407104,0.1220703050494194
277876,-0.0208740234375,-0.0213623046875,0.7825927734375,-0.8544921278953552,-1.6479490995407104,0.0610351525247097
277922,-0.021240234375,-0.0042724609375,0.897705078125,9.765625,-1.3427733182907104,-0.2441406100988388
277970,-0.0159912109375,-0.01806640625,0.9703369140625,21.972654342651367,-2.0751953125,-0.30517578125
277987,-0.01611328125,-0.0284423828125,0.93798828125,24.353025436401367,-2.3193359375,-0.4272460639476776
278004,-0.015869140625,-0.047607421875,0.9508056640625,28.869626998901367,-2.01416015625,-0.4272460639476776
278024,-0.02001953125,-0.074462890625,0.985595703125,34.60693359375,-1.8310545682907104,-0.54931640625
278040,-0.019775390625,-0.08642578125,1.006103515625,36.1328125,-2.01416015625,-0.6103515625
278057,-0.023681640625,-0.1142578125,1.0091552734375,38.75732421875,-2.563476324081421,-0.7324218153953552
278074,-0.023681640625,-0.123779296875,0.986328125,40.771480560302734,-2.624511480331421,-0.7324218153953552
278094,-0.0213623046875,-0.1285400390625,0.979736328125,41.625972747802734,-2.563476324081421,-0.6713866591453552
278110,-0.0224609375,-0.143798828125,0.9622802734375,42.724605560302734,-2.13623046875,-0.4882812201976776
278127,-0.0174560546875,-0.1641845703125,0.9801025390625,43.029781341552734,-2.01416015625,-0.3662109076976776
278146,-0.01708984375,-0.1773681640625,0.9677734375,43.273921966552734,-2.13623046875,-0.1220703050494194
278194,-0.0155029296875,-0.20947265625,0.9705810546875,40.832515716552734,-1.5869139432907104,0.6713866591453552
278214,-0.01708984375,-0.2078857421875,0.968505859375,40.10009765625,-1.4648436307907104,0.7934569716453552
278230,-0.0174560546875,-0.2119140625,0.98388671875,38.330078125,-1.15966796875,1.0986328125
278242,-0.014892578125,-0.2247314453125,1.0062255859375,37.2314453125,-1.220703125,1.220703125
278263,-0.015869140625,-0.231201171875,1.0029296875,34.66796875,-1.4038084745407104,1.4038084745407104
278279,-0.0189208984375,-0.2421875,0.995849609375,31.982419967651367,-1.220703125,1.5258787870407104
278296,-0.0223388671875,-0.2479248046875,1.004150390625,28.930662155151367,-1.15966796875,1.6479490995407104
278313,-0.0238037109375,-0.253662109375,1.008544921875,27.343748092651367,-1.0986328125,1.7089842557907104
278377,-0.03076171875,-0.2957763671875,0.998779296875,15.197752952575684,-1.2817381620407104,2.25830078125
278415,-0.0408935546875,-0.3155517578125,0.9666748046875,10.070799827575684,-0.9155272841453552,2.38037109375
278451,-0.0369873046875,-0.330322265625,0.961181640625,2.807616949081421,-0.3662109076976776,2.624511480331421
278468,-0.0357666015625,-0.3330078125,0.9522705078125,1.0986328125,-0.2441406100988388,2.685546636581421
278485,-0.0335693359375,-0.3291015625,0.9583740234375,-2.13623046875,0.1831054538488388,2.624511480331421
278504,-0.0296630859375,-0.3201904296875,0.9615478515625,-5.126952648162842,0.4272460639476776,2.685546636581421
278553,-0.022216796875,-0.299072265625,0.98974609375,-11.352538108825684,0.7324218153953552,2.929687261581421
278576,-0.0213623046875,-0.2940673828125,0.993408203125,-13.000487327575684,0.6103515625,2.868652105331421
278592,-0.020751953125,-0.282470703125,0.9833984375,-14.221190452575684,0.6103515625,2.746581792831421
278609,-0.0191650390625,-0.2677001953125,0.9833984375,-14.648436546325684,0.6713866591453552,2.746581792831421
278628,-0.0181884765625,-0.2587890625,0.9847412109375,-15.441893577575684,0.6713866591453552,2.868652105331421
278645,-0.0172119140625,-0.2503662109375,0.97705078125,-16.11328125,0.6103515625,2.807616949081421
278678,-0.0162353515625,-0.2425537109375,0.9564208984375,-16.17431640625,0.30517578125,2.807616949081421
278695,-0.01513671875,-0.244873046875,0.948974609375,-16.05224609375,0.3662109076976776,2.746581792831421
278714,-0.0164794921875,-0.24609375,0.9412841796875,-15.624999046325684,0.1831054538488388,2.44140625
278730,-0.017822265625,-0.2403564453125,0.9178466796875,-14.953612327575684,0.0,2.197265625
278747,-0.0145263671875,-0.231201171875,0.9044189453125,-14.465331077575684,-0.0610351525247097,2.13623046875
278764,-0.01220703125,-0.2254638671875,0.8988037109375,-13.305663108825684,-0.4272460639476776,2.01416015625
278797,-0.012939453125,-0.207275390625,0.8787841796875,-9.58251953125,-0.6713866591453552,1.6479490995407104
278814,-0.0155029296875,-0.2093505859375,0.8790283203125,-8.48388671875,-0.8544921278953552,1.4648436307907104
278831,-0.02001953125,-0.2086181640625,0.85791015625,-6.103515148162842,-1.03759765625,1.0986328125
278850,-0.024658203125,-0.20263671875,0.8455810546875,-3.845214605331421,-0.6713866591453552,0.9765624403953552
278912,-0.0333251953125,-0.20263671875,0.763916015625,0.7934569716453552,-0.2441406100988388,0.4272460639476776
278931,-0.02978515625,-0.2032470703125,0.745849609375,1.4038084745407104,0.6713866591453552,0.3662109076976776
278947,-0.02294921875,-0.200439453125,0.7581787109375,1.6479490995407104,1.03759765625,0.30517578125
278979,-0.0228271484375,-0.1912841796875,0.7730712890625,2.13623046875,2.25830078125,0.2441406100988388
278995,-0.0196533203125,-0.19482421875,0.8458251953125,2.38037109375,2.44140625,0.30517578125
279011,-0.01953125,-0.194580078125,0.849853515625,3.051757574081421,1.8920897245407104,0.1831054538488388
279028,-0.015380859375,-0.1900634765625,0.8218994140625,3.295898199081421,1.7700194120407104,0.30517578125
279052,-0.0167236328125,-0.1961669921875,0.7989501953125,3.112792730331421,2.3193359375,0.4272460639476776
279069,-0.0216064453125,-0.2044677734375,0.8026123046875,2.868652105331421,2.50244140625,0.3662109076976776
279086,-0.0233154296875,-0.20654296875,0.8125,2.685546636581421,3.051757574081421,0.3662109076976776
279105,-0.01806640625,-0.2159423828125,0.87109375,2.990722417831421,3.295898199081421,0.30517578125
279121,-0.009765625,-0.2178955078125,0.919189453125,4.0283203125,2.44140625,0.0
279154,-0.0103759765625,-0.19287109375,0.8509521484375,5.981444835662842,2.13623046875,-0.1831054538488388
279176,-0.0137939453125,-0.197509765625,0.849609375,6.896972179412842,3.173827886581421,0.0
279192,-0.010009765625,-0.2257080078125,0.9617919921875,7.995604991912842,3.479003667831421,-0.0610351525247097
279209,-0.006103515625,-0.236083984375,1.021728515625,8.72802734375,2.807616949081421,-0.3662109076976776
279228,-0.00390625,-0.2249755859375,0.99658203125,10.009765625,1.2817381620407104,-0.9155272841453552
279244,-0.007080078125,-0.2008056640625,0.896728515625,10.742186546325684,1.4648436307907104,-0.9155272841453552
279277,-0.00537109375,-0.242919921875,1.009521484375,10.864256858825684,3.051757574081421,-0.54931640625
279294,-0.001220703125,-0.248779296875,1.05126953125,11.108397483825684,2.685546636581421,-0.7324218153953552
279329,-0.0003662109375,-0.2244873046875,0.9815673828125,12.390135765075684,0.6103515625,-1.15966796875
279345,-0.002197265625,-0.2210693359375,0.96044921875,12.390135765075684,1.3427733182907104,-0.9155272841453552
279362,0.0037841796875,-0.2271728515625,0.9747314453125,12.023924827575684,1.6479490995407104,-0.8544921278953552
279392,0.010009765625,-0.233642578125,1.01220703125,10.742186546325684,1.6479490995407104,-0.8544921278953552
279409,0.00390625,-0.241943359375,1.0557861328125,11.169432640075684,1.7700194120407104,-0.6103515625
279460,0.010009765625,-0.27978515625,1.085693359375,12.512206077575684,0.6713866591453552,-1.0986328125
279476,0.012451171875,-0.27392578125,1.0582275390625,12.329100608825684,0.1220703050494194,-1.4038084745407104
279492,0.0072021484375,-0.2645263671875,0.9912109375,11.352538108825684,0.7324218153953552,-1.03759765625
279509,-0.00244140625,-0.29345703125,1.03125,10.742186546325684,1.3427733182907104,-0.8544921278953552
279559,-0.002197265625,-0.2740478515625,1.0687255859375,9.27734375,-0.2441406100988388,-1.3427733182907104
279587,-0.00634765625,-0.272705078125,1.0274658203125,8.544921875,0.3662109076976776,-1.03759765625
279604,-0.0118408203125,-0.2935791015625,1.0718994140625,7.568358898162842,1.0986328125,-0.8544921278953552
279637,-0.00732421875,-0.2972412109375,1.084716796875,6.713866710662842,0.4272460639476776,-1.0986328125
279670,-0.01318359375,-0.305908203125,1.0555419921875,5.676269054412842,1.9531248807907104,-0.4882812201976776
279729,-0.014892578125,-0.314453125,1.0877685546875,3.906249761581421,1.4038084745407104,-0.8544921278953552
279767,-0.0111083984375,-0.3326416015625,1.0810546875,1.220703125,2.685546636581421,-0.2441406100988388
279784,-0.00634765625,-0.3466796875,1.0902099609375,-1.03759765625,2.38037109375,-0.4272460639476776
279817,-0.0069580078125,-0.32470703125,1.0457763671875,-4.0283203125,2.746581792831421,-0.4272460639476776
279834,-0.00732421875,-0.316650390625,1.0606689453125,-5.493163585662842,3.173827886581421,-0.1220703050494194
279851,-0.003173828125,-0.3359375,1.0919189453125,-6.958007335662842,2.990722417831421,-0.1831054538488388
279868,-0.000732421875,-0.33544921875,1.1014404296875,-7.690429210662842,2.746581792831421,-0.30517578125
279891,0.00244140625,-0.3292236328125,1.0780029296875,-9.1552734375,2.3193359375,-0.4882812201976776
279907,0.0057373046875,-0.318359375,1.06005859375,-10.253905296325684,2.563476324081421,-0.30517578125
279924,0.00390625,-0.320068359375,1.07275390625,-11.413573265075684,2.746581792831421,-0.2441406100988388
279944,0.0032958984375,-0.32080078125,1.111328125,-11.901854515075684,2.563476324081421,-0.4882812201976776
279961,0.0057373046875,-0.310302734375,1.124267578125,-11.962889671325684,2.0751953125,-0.6103515625
279994,0.0098876953125,-0.3017578125,1.1123046875,-11.230467796325684,1.5258787870407104,-0.54931640625
280011,0.0135498046875,-0.3079833984375,1.1495361328125,-10.314940452575684,1.5869139432907104,-0.54931640625
280032,0.01513671875,-0.318359375,1.1729736328125,-9.765625,0.9765624403953552,-0.7324218153953552
280048,0.011474609375,-0.2979736328125,1.1387939453125,-8.6669921875,-0.1220703050494194,-1.220703125
280067,0.007080078125,-0.2744140625,1.0833740234375,-7.690429210662842,-0.3662109076976776,-1.220703125
280084,0.00439453125,-0.2677001953125,1.0457763671875,-7.507323741912842,-0.30517578125,-1.0986328125
280117,0.0074462890625,-0.2777099609375,1.082763671875,-6.042479991912842,-0.54931640625,-1.15966796875
280134,0.0048828125,-0.2655029296875,1.063720703125,-4.69970703125,-0.6103515625,-1.220703125
280150,0.0067138671875,-0.260986328125,1.060546875,-3.540038824081421,-0.9765624403953552,-1.220703125
280166,0.0057373046875,-0.2586669921875,1.046875,-2.929687261581421,-1.220703125,-1.2817381620407104
280189,0.003662109375,-0.2528076171875,1.007080078125,-2.197265625,-1.0986328125,-1.15966796875
280205,0.005615234375,-0.2576904296875,1.0137939453125,-1.220703125,-0.6713866591453552,-1.0986328125
280217,0.004638671875,-0.248291015625,1.021484375,-0.7324218153953552,-0.8544921278953552,-1.0986328125
280234,0.0040283203125,-0.2401123046875,1.0191650390625,-0.2441406100988388,-0.9765624403953552,-1.03759765625
280250,0.001708984375,-0.230712890625,1.0037841796875,1.0986328125,-1.0986328125,-0.9765624403953552
280267,0.0006103515625,-0.2330322265625,0.998779296875,2.01416015625,-0.9765624403953552,-0.6103515625
280303,0.0076904296875,-0.2353515625,0.9844970703125,3.540038824081421,-0.9765624403953552,-0.3662109076976776
280324,0.009765625,-0.235595703125,0.9866943359375,4.0283203125,-0.9155272841453552,-0.2441406100988388
280362,0.009765625,-0.2427978515625,1.0101318359375,5.798339366912842,-1.220703125,0.1220703050494194
280378,0.0037841796875,-0.2410888671875,0.981201171875,6.530761241912842,-1.220703125,0.1831054538488388
280395,0.0069580078125,-0.24658203125,1.0047607421875,7.629394054412842,-0.9765624403953552,0.30517578125
280412,0.01123046875,-0.2467041015625,1.01611328125,8.48388671875,-1.5869139432907104,0.3662109076976776
280431,0.0108642578125,-0.236572265625,0.9781494140625,9.09423828125,-1.7700194120407104,0.4272460639476776
280447,0.010498046875,-0.2347412109375,0.96630859375,9.82666015625,-1.4038084745407104,0.6713866591453552
280464,0.009033203125,-0.250244140625,0.9869384765625,10.131834983825684,-1.03759765625,0.8544921278953552
280485,0.0054931640625,-0.261474609375,1.0008544921875,10.498045921325684,-1.0986328125,0.9765624403953552
280501,-0.0115966796875,-0.2706298828125,0.887939453125,3.845214605331421,0.3662109076976776,0.9765624403953552
280518,0.0015869140625,-0.228759765625,0.8692626953125,-5.432128429412842,3.906249761581421,1.3427733182907104
280535,0.0142822265625,-0.2205810546875,0.90625,-2.563476324081421,4.69970703125,1.9531248807907104
280551,0.01708984375,-0.2506103515625,0.9468994140625,-2.807616949081421,4.21142578125,1.9531248807907104
280567,0.0166015625,-0.241455078125,0.9468994140625,-1.3427733182907104,3.967284917831421,1.8310545682907104
280605,-0.005126953125,-0.227783203125,0.9110107421875,3.112792730331421,4.2724609375,2.25830078125
280621,-0.01513671875,-0.2379150390625,0.884765625,4.94384765625,5.493163585662842,2.807616949081421
280638,-0.0115966796875,-0.236328125,0.887451171875,2.25830078125,6.774901866912842,3.234863042831421
280655,0.02001953125,-0.39208984375,1.3543701171875,2.25830078125,7.141112804412842,3.234863042831421
280670,0.1343994140625,-0.6256103515625,2.1107177734375,5.310058116912842,0.0610351525247097,0.7324218153953552
280687,0.0743408203125,-0.318115234375,1.1270751953125,2.3193359375,-8.36181640625,-2.197265625
280722,0.0223388671875,-0.2945556640625,0.9493408203125,5.798339366912842,3.051757574081421,1.8920897245407104
280742,0.0455322265625,-0.44287109375,1.4720458984375,7.263183116912842,-0.2441406100988388,0.7934569716453552
280758,0.041259765625,-0.3155517578125,1.001953125,4.8828125,-3.662109136581421,-0.8544921278953552
280771,0.000244140625,-0.2115478515625,0.7484130859375,4.57763671875,-1.4038084745407104,-0.54931640625
280788,-0.004150390625,-0.306884765625,1.083984375,6.347655773162842,0.0,0.1831054538488388
280805,0.0091552734375,-0.2562255859375,1.0313720703125,5.615233898162842,-1.7089842557907104,-0.4272460639476776
280835,0.02392578125,-0.2801513671875,1.033935546875,7.080077648162842,-0.4882812201976776,0.30517578125
280856,0.0191650390625,-0.3037109375,0.9617919921875,6.896972179412842,-1.0986328125,0.2441406100988388
280872,0.0052490234375,-0.2950439453125,0.9818115234375,6.347655773162842,-0.9765624403953552,-0.1220703050494194
280889,0.0028076171875,-0.3021240234375,1.0126953125,5.676269054412842,-1.03759765625,-0.0610351525247097
280908,0.0130615234375,-0.2691650390625,0.9591064453125,5.432128429412842,-0.9765624403953552,-0.0610351525247097
280925,0.0174560546875,-0.2904052734375,1.006103515625,5.798339366912842,-0.8544921278953552,0.0610351525247097
280958,0.0107421875,-0.28759765625,0.96337890625,5.920409679412842,-0.7934569716453552,0.0
280975,0.009033203125,-0.2867431640625,0.98193359375,6.103515148162842,-0.6713866591453552,0.0
281012,0.013916015625,-0.2840576171875,0.982177734375,6.774901866912842,-0.6713866591453552,0.1220703050494194
281029,0.011962890625,-0.2999267578125,0.9808349609375,6.896972179412842,-0.7324218153953552,0.1831054538488388
281045,0.009521484375,-0.30322265625,0.979736328125,6.835937023162842,-0.6103515625,0.0610351525247097
281079,0.0125732421875,-0.2998046875,0.9798583984375,6.652831554412842,-0.6103515625,0.1220703050494194
281095,0.0106201171875,-0.3006591796875,0.9791259765625,6.652831554412842,-0.6713866591453552,0.1220703050494194
281116,0.0111083984375,-0.3016357421875,0.9722900390625,6.652831554412842,-0.54931640625,0.1831054538488388
281162,0.0101318359375,-0.3101806640625,0.9737548828125,6.042479991912842,-0.4882812201976776,0.0610351525247097
281206,0.0079345703125,-0.316162109375,0.9776611328125,5.920409679412842,-0.54931640625,0.1831054538488388
281223,0.008056640625,-0.318359375,0.9757080078125,5.676269054412842,-0.4882812201976776,0.1831054538488388
281256,0.0089111328125,-0.31787109375,0.97119140625,5.310058116912842,-0.54931640625,0.1831054538488388
281273,0.01025390625,-0.318603515625,0.9744873046875,5.0048828125,-0.4272460639476776,0.1831054538488388
281290,0.009765625,-0.3218994140625,0.9755859375,4.7607421875,-0.4882812201976776,0.1831054538488388
281307,0.007080078125,-0.3223876953125,0.971435546875,4.5166015625,-0.4272460639476776,0.2441406100988388
281330,0.00927734375,-0.3251953125,0.970458984375,4.2724609375,-0.4272460639476776,0.1831054538488388
281342,0.00927734375,-0.3238525390625,0.972412109375,4.150390625,-0.4882812201976776,0.1831054538488388
281359,0.0086669921875,-0.3248291015625,0.9747314453125,3.906249761581421,-0.3662109076976776,0.2441406100988388
281373,0.008056640625,-0.325927734375,0.97119140625,3.784179449081421,-0.30517578125,0.30517578125
281389,0.0078125,-0.328369140625,0.9686279296875,3.417968511581421,-0.3662109076976776,0.30517578125
281406,0.009521484375,-0.3289794921875,0.968994140625,3.051757574081421,-0.2441406100988388,0.2441406100988388
281443,0.0086669921875,-0.3287353515625,0.971435546875,2.624511480331421,-0.30517578125,0.30517578125
281459,0.00830078125,-0.329833984375,0.9693603515625,2.3193359375,-0.30517578125,0.3662109076976776
281476,0.00732421875,-0.331298828125,0.9686279296875,2.197265625,-0.30517578125,0.3662109076976776
281492,0.0086669921875,-0.3309326171875,0.9678955078125,1.8310545682907104,-0.2441406100988388,0.3662109076976776
281509,0.0089111328125,-0.331298828125,0.9720458984375,1.4648436307907104,-0.2441406100988388,0.4272460639476776
281526,0.0087890625,-0.3291015625,0.9683837890625,1.0986328125,-0.1831054538488388,0.4272460639476776
281559,0.0076904296875,-0.3319091796875,0.9697265625,0.54931640625,-0.1831054538488388,0.3662109076976776
281580,0.0074462890625,-0.33251953125,0.9678955078125,0.1831054538488388,-0.1220703050494194,0.30517578125
281596,0.0086669921875,-0.3306884765625,0.9705810546875,0.0,-0.1220703050494194,0.3662109076976776
281613,0.0081787109375,-0.329833984375,0.970947265625,-0.2441406100988388,-0.1831054538488388,0.3662109076976776
281630,0.007568359375,-0.3289794921875,0.9713134765625,-0.54931640625,-0.1831054538488388,0.3662109076976776
281645,0.008544921875,-0.3287353515625,0.9691162109375,-0.6713866591453552,-0.1220703050494194,0.4272460639476776
281679,0.009521484375,-0.327392578125,0.9708251953125,-1.15966796875,-0.1220703050494194,0.4882812201976776
281731,0.0098876953125,-0.3253173828125,0.9715576171875,-1.5869139432907104,-0.0610351525247097,0.4882812201976776
281748,0.009765625,-0.324951171875,0.971435546875,-1.6479490995407104,-0.0610351525247097,0.4882812201976776
281764,0.0091552734375,-0.3245849609375,0.9708251953125,-1.8310545682907104,-0.0610351525247097,0.54931640625
281797,0.0076904296875,-0.3201904296875,0.97216796875,-2.0751953125,-0.0610351525247097,0.4882812201976776
281814,0.0084228515625,-0.3199462890625,0.9737548828125,-2.0751953125,0.0,0.4272460639476776
281830,0.00927734375,-0.32080078125,0.97509765625,-2.13623046875,-0.0610351525247097,0.4272460639476776
281846,0.0086669921875,-0.3170166015625,0.9752197265625,-2.0751953125,-0.1220703050494194,0.4882812201976776
281864,0.00927734375,-0.315673828125,0.972900390625,-2.13623046875,-0.0610351525247097,0.4882812201976776
281886,0.01025390625,-0.3143310546875,0.9720458984375,-2.13623046875,0.0,0.4882812201976776
281902,0.009521484375,-0.3135986328125,0.9757080078125,-2.0751953125,-0.0610351525247097,0.54931640625
281923,0.0101318359375,-0.3138427734375,0.975341796875,-1.9531248807907104,-0.0610351525247097,0.54931640625
281940,0.0098876953125,-0.31201171875,0.9747314453125,-1.8920897245407104,-0.0610351525247097,0.4882812201976776
281973,0.01025390625,-0.310546875,0.978759765625,-1.5869139432907104,0.0,0.4272460639476776
281990,0.009521484375,-0.308349609375,0.976318359375,-1.4038084745407104,-0.0610351525247097,0.4882812201976776
282006,0.0093994140625,-0.3092041015625,0.977294921875,-1.2817381620407104,-0.1220703050494194,0.4882812201976776
282042,0.011474609375,-0.309326171875,0.9794921875,-1.03759765625,-0.0610351525247097,0.4272460639476776
282058,0.0107421875,-0.3079833984375,0.974853515625,-1.03759765625,-0.1220703050494194,0.4272460639476776
282075,0.0096435546875,-0.3089599609375,0.9749755859375,-0.9765624403953552,-0.1220703050494194,0.4882812201976776
282091,0.0091552734375,-0.30712890625,0.9781494140625,-0.9155272841453552,-0.1220703050494194,0.4272460639476776
282108,0.01025390625,-0.30615234375,0.978271484375,-0.7934569716453552,-0.0610351525247097,0.4272460639476776
282125,0.010986328125,-0.3050537109375,0.9781494140625,-0.7324218153953552,-0.1220703050494194,0.3662109076976776
282154,0.0101318359375,-0.3048095703125,0.97900390625,-0.4272460639476776,-0.1831054538488388,0.4272460639476776
282176,0.0096435546875,-0.3045654296875,0.9791259765625,-0.2441406100988388,-0.2441406100988388,0.3662109076976776
282192,0.0103759765625,-0.3050537109375,0.97802734375,0.0,-0.1831054538488388,0.4272460639476776
282209,0.011474609375,-0.304931640625,0.9779052734375,0.0610351525247097,-0.1831054538488388,0.4272460639476776
282276,0.0107421875,-0.304443359375,0.9793701171875,0.4272460639476776,-0.1831054538488388,0.3662109076976776
282292,0.010009765625,-0.30322265625,0.97705078125,0.54931640625,-0.1831054538488388,0.4272460639476776
282308,0.0084228515625,-0.30322265625,0.979736328125,0.6713866591453552,-0.1831054538488388,0.3662109076976776
282347,0.009765625,-0.303466796875,0.978515625,0.8544921278953552,-0.1831054538488388,0.30517578125
282380,0.0089111328125,-0.3037109375,0.97802734375,1.15966796875,-0.1831054538488388,0.3662109076976776
282408,0.0086669921875,-0.3035888671875,0.97802734375,1.3427733182907104,-0.2441406100988388,0.30517578125
282424,0.0107421875,-0.3065185546875,0.977783203125,1.4648436307907104,-0.30517578125,0.30517578125
282458,0.0086669921875,-0.307861328125,0.9771728515625,1.5869139432907104,-0.30517578125,0.3662109076976776
282474,0.0086669921875,-0.30859375,0.97705078125,1.5258787870407104,-0.2441406100988388,0.3662109076976776
282490,0.010498046875,-0.30810546875,0.9786376953125,1.4648436307907104,-0.2441406100988388,0.3662109076976776
282506,0.010986328125,-0.3076171875,0.977783203125,1.4038084745407104,-0.2441406100988388,0.3662109076976776
282526,0.010498046875,-0.3094482421875,0.9757080078125,1.2817381620407104,-0.1831054538488388,0.3662109076976776
282548,0.009765625,-0.310546875,0.9779052734375,1.0986328125,-0.2441406100988388,0.3662109076976776
282564,0.009521484375,-0.30908203125,0.9771728515625,0.9155272841453552,-0.2441406100988388,0.4272460639476776
282582,0.00830078125,-0.308837890625,0.9764404296875,0.8544921278953552,-0.1831054538488388,0.3662109076976776
282599,0.009521484375,-0.3092041015625,0.9769287109375,0.7324218153953552,-0.1831054538488388,0.4272460639476776
282632,0.00927734375,-0.30859375,0.975830078125,0.4882812201976776,-0.1220703050494194,0.3662109076976776
282649,0.0096435546875,-0.3099365234375,0.978271484375,0.4272460639476776,-0.1220703050494194,0.3662109076976776
282665,0.009765625,-0.308349609375,0.978515625,0.4272460639476776,-0.1220703050494194,0.3662109076976776
282703,0.01025390625,-0.3074951171875,0.9779052734375,0.3662109076976776,-0.1220703050494194,0.4272460639476776
282720,0.00927734375,-0.30810546875,0.9786376953125,0.3662109076976776,-0.1831054538488388,0.4272460639476776
282737,0.0091552734375,-0.3076171875,0.9776611328125,0.30517578125,-0.1831054538488388,0.4272460639476776
282753,0.009765625,-0.307373046875,0.9775390625,0.2441406100988388,-0.1831054538488388,0.4272460639476776
282770,0.0098876953125,-0.3077392578125,0.9775390625,0.1220703050494194,-0.1220703050494194,0.3662109076976776
282787,0.009765625,-0.3079833984375,0.9776611328125,0.1220703050494194,-0.1220703050494194,0.4272460639476776
282820,0.009521484375,-0.30615234375,0.9766845703125,0.0610351525247097,-0.1831054538488388,0.3662109076976776
282839,0.0101318359375,-0.30615234375,0.9769287109375,-0.0610351525247097,-0.1220703050494194,0.30517578125
282855,0.0107421875,-0.3062744140625,0.9774169921875,-0.0610351525247097,-0.1831054538488388,0.4272460639476776
282872,0.0096435546875,-0.30517578125,0.978759765625,-0.1220703050494194,-0.1831054538488388,0.4272460639476776
282888,0.010498046875,-0.304443359375,0.9779052734375,-0.1220703050494194,-0.1831054538488388,0.4272460639476776
282905,0.0101318359375,-0.3046875,0.978271484375,-0.2441406100988388,-0.1220703050494194,0.4272460639476776
282939,0.0103759765625,-0.3035888671875,0.9776611328125,-0.30517578125,-0.0610351525247097,0.4272460639476776
282955,0.009765625,-0.303466796875,0.9791259765625,-0.30517578125,-0.1220703050494194,0.4882812201976776
282972,0.009033203125,-0.3048095703125,0.9793701171875,-0.30517578125,-0.1831054538488388,0.4882812201976776
282989,0.0096435546875,-0.3038330078125,0.977294921875,-0.30517578125,-0.1220703050494194,0.4882812201976776
283058,0.0107421875,-0.302734375,0.97998046875,-0.30517578125,-0.1220703050494194,0.4272460639476776
283074,0.009765625,-0.3017578125,0.9793701171875,-0.30517578125,-0.1831054538488388,0.4272460639476776
283091,0.010986328125,-0.3016357421875,0.9783935546875,-0.3662109076976776,-0.2441406100988388,0.4272460639476776
283108,0.0107421875,-0.3011474609375,0.979248046875,-0.3662109076976776,-0.1831054538488388,0.4882812201976776
283158,0.010009765625,-0.29931640625,0.980712890625,-0.1831054538488388,-0.1220703050494194,0.3662109076976776
283188,0.01025390625,-0.298828125,0.9794921875,-0.1220703050494194,-0.1220703050494194,0.4882812201976776
283205,0.01123046875,-0.298583984375,0.979736328125,-0.1220703050494194,-0.1220703050494194,0.4272460639476776
283238,0.01123046875,-0.29931640625,0.98046875,0.0,-0.1831054538488388,0.4272460639476776
283255,0.01025390625,-0.298583984375,0.97998046875,-0.0610351525247097,-0.1220703050494194,0.4882812201976776
283271,0.010009765625,-0.2977294921875,0.9805908203125,-0.1220703050494194,-0.1220703050494194,0.4272460639476776
283287,0.0106201171875,-0.29833984375,0.981201171875,-0.0610351525247097,-0.1220703050494194,0.3662109076976776
283307,0.0111083984375,-0.298095703125,0.981201171875,-0.0610351525247097,-0.1831054538488388,0.3662109076976776
283323,0.0107421875,-0.297119140625,0.98046875,0.0,-0.1831054538488388,0.3662109076976776
283343,0.010498046875,-0.296142578125,0.980712890625,0.0,-0.1831054538488388,0.3662109076976776
283362,0.010498046875,-0.2962646484375,0.980712890625,0.0610351525247097,-0.1220703050494194,0.4882812201976776
283373,0.01025390625,-0.297119140625,0.982177734375,0.1220703050494194,-0.1831054538488388,0.4882812201976776
283406,0.010498046875,-0.295654296875,0.980224609375,0.1831054538488388,-0.1220703050494194,0.3662109076976776
283425,0.0113525390625,-0.2952880859375,0.9813232421875,0.2441406100988388,-0.1831054538488388,0.4272460639476776
283441,0.0106201171875,-0.294677734375,0.9801025390625,0.30517578125,-0.1831054538488388,0.4272460639476776
283458,0.0103759765625,-0.2955322265625,0.9805908203125,0.30517578125,-0.1831054538488388,0.4272460639476776
283479,0.00927734375,-0.29541015625,0.9805908203125,0.3662109076976776,-0.1831054538488388,0.4272460639476776
283495,0.011474609375,-0.295166015625,0.9801025390625,0.4882812201976776,-0.1220703050494194,0.4272460639476776
283512,0.01123046875,-0.2939453125,0.9803466796875,0.6713866591453552,-0.1831054538488388,0.4272460639476776
283529,0.0111083984375,-0.294189453125,0.9814453125,0.6713866591453552,-0.1831054538488388,0.3662109076976776
283548,0.0096435546875,-0.29443359375,0.9818115234375,0.6713866591453552,-0.1831054538488388,0.4272460639476776
283564,0.0111083984375,-0.2960205078125,0.9796142578125,0.8544921278953552,-0.1831054538488388,0.4272460639476776
283597,0.0103759765625,-0.2955322265625,0.9813232421875,0.9155272841453552,-0.1831054538488388,0.4272460639476776
283659,0.0103759765625,-0.2958984375,0.9796142578125,0.9765624403953552,-0.1220703050494194,0.3662109076976776
283746,0.0108642578125,-0.29736328125,0.9801025390625,1.220703125,-0.1831054538488388,0.3662109076976776
283791,0.0111083984375,-0.2978515625,0.98046875,0.9765624403953552,-0.2441406100988388,0.30517578125
283808,0.010498046875,-0.2982177734375,0.97998046875,0.9765624403953552,-0.1831054538488388,0.3662109076976776
283825,0.0101318359375,-0.298583984375,0.980712890625,0.9155272841453552,-0.2441406100988388,0.4272460639476776
283843,0.0108642578125,-0.298828125,0.9796142578125,0.7324218153953552,-0.2441406100988388,0.3662109076976776
283859,0.0113525390625,-0.298583984375,0.979736328125,0.7324218153953552,-0.2441406100988388,0.3662109076976776
283876,0.01025390625,-0.2982177734375,0.980712890625,0.6103515625,-0.2441406100988388,0.4272460639476776
283893,0.0111083984375,-0.298583984375,0.980224609375,0.4882812201976776,-0.1220703050494194,0.4272460639476776
283913,0.0108642578125,-0.2978515625,0.979736328125,0.4272460639476776,-0.1220703050494194,0.4272460639476776
283929,0.0115966796875,-0.2969970703125,0.9786376953125,0.4272460639476776,-0.1220703050494194,0.4272460639476776
283945,0.010009765625,-0.296630859375,0.9815673828125,0.4272460639476776,-0.1220703050494194,0.4272460639476776
283962,0.010009765625,-0.2957763671875,0.980224609375,0.3662109076976776,-0.1831054538488388,0.4272460639476776
283979,0.010009765625,-0.2955322265625,0.9788818359375,0.4272460639476776,-0.1831054538488388,0.3662109076976776
284011,0.0106201171875,-0.2969970703125,0.982421875,0.3662109076976776,-0.1220703050494194,0.3662109076976776
284030,0.010009765625,-0.2960205078125,0.9793701171875,0.4272460639476776,-0.1831054538488388,0.4272460639476776
284049,0.01025390625,-0.296142578125,0.9820556640625,0.4272460639476776,-0.1220703050494194,0.3662109076976776
284065,0.0133056640625,-0.2957763671875,0.982177734375,0.4272460639476776,-0.1831054538488388,0.3662109076976776
284084,0.0123291015625,-0.295166015625,0.9822998046875,0.4272460639476776,-0.1831054538488388,0.3662109076976776
284101,0.0093994140625,-0.2945556640625,0.9801025390625,0.4882812201976776,-0.1220703050494194,0.4272460639476776
284134,0.011474609375,-0.29541015625,0.9818115234375,0.6713866591453552,-0.2441406100988388,0.3662109076976776
284151,0.0111083984375,-0.293701171875,0.9808349609375,0.6713866591453552,-0.2441406100988388,0.3662109076976776
284197,0.01123046875,-0.293701171875,0.9808349609375,0.9155272841453552,-0.1831054538488388,0.4272460639476776
284218,0.0111083984375,-0.294189453125,0.98095703125,0.9765624403953552,-0.1831054538488388,0.3662109076976776
284230,0.0107421875,-0.2926025390625,0.98095703125,1.0986328125,-0.1220703050494194,0.3662109076976776
284247,0.01025390625,-0.2913818359375,0.9805908203125,1.220703125,-0.1831054538488388,0.3662109076976776
284265,0.0106201171875,-0.2891845703125,0.9755859375,1.4648436307907104,-0.0610351525247097,0.3662109076976776
284281,0.011474609375,-0.2845458984375,0.9722900390625,1.9531248807907104,0.4272460639476776,0.3662109076976776
284314,0.0118408203125,-0.271484375,1.006591796875,5.310058116912842,2.807616949081421,1.4038084745407104
284334,0.0120849609375,-0.2808837890625,1.0179443359375,6.408690929412842,2.929687261581421,1.3427733182907104
284350,0.0247802734375,-0.275146484375,1.0111083984375,8.48388671875,2.990722417831421,1.0986328125
284367,0.0506591796875,-0.2657470703125,1.0185546875,9.46044921875,2.624511480331421,0.9765624403953552
284386,0.063720703125,-0.267822265625,1.094482421875,11.291502952575684,2.685546636581421,1.2817381620407104
284403,0.0570068359375,-0.3809814453125,1.3397216796875,13.000487327575684,1.7089842557907104,0.9765624403953552
284436,0.0487060546875,-0.514892578125,1.6036376953125,18.61572265625,-1.7700194120407104,-1.7089842557907104
284452,0.056396484375,-0.5076904296875,1.6226806640625,19.83642578125,-2.50244140625,-2.13623046875
284468,0.0599365234375,-0.4813232421875,1.585205078125,21.423337936401367,-3.967284917831421,-2.807616949081421
284504,0.0322265625,-0.4268798828125,1.4124755859375,20.568845748901367,-4.150390625,-2.685546636581421
284526,0.028076171875,-0.430419921875,1.390625,18.9208984375,-3.662109136581421,-2.13623046875
284542,0.0201416015625,-0.4517822265625,1.37353515625,16.66259765625,-3.112792730331421,-1.8920897245407104
284561,0.017822265625,-0.4869384765625,1.38525390625,14.587401390075684,-2.990722417831421,-1.8920897245407104
284578,0.0166015625,-0.5096435546875,1.3780517578125,13.244627952575684,-3.112792730331421,-1.9531248807907104
284594,0.0155029296875,-0.5264892578125,1.3780517578125,10.986327171325684,-2.929687261581421,-1.8920897245407104
284611,0.0169677734375,-0.533447265625,1.387939453125,9.033203125,-3.112792730331421,-1.9531248807907104
284630,0.0107421875,-0.519287109375,1.353271484375,6.896972179412842,-3.662109136581421,-2.0751953125
284646,0.002685546875,-0.4969482421875,1.2996826171875,4.7607421875,-3.356933355331421,-1.3427733182907104
284679,0.000244140625,-0.5152587890625,1.2708740234375,3.112792730331421,-3.662109136581421,-1.5869139432907104
284699,-0.0054931640625,-0.4693603515625,1.1746826171875,1.6479490995407104,-3.784179449081421,-1.6479490995407104
284716,-0.0106201171875,-0.41845703125,1.1019287109375,-0.4272460639476776,-3.112792730331421,-1.220703125
284733,-0.0113525390625,-0.41845703125,1.0938720703125,-1.5869139432907104,-2.13623046875,-0.54931640625
284799,-0.0184326171875,-0.3265380859375,0.8677978515625,-7.507323741912842,-0.1220703050494194,0.4272460639476776
284818,-0.0157470703125,-0.30224609375,0.816650390625,-8.544921875,0.1220703050494194,0.54931640625
284834,-0.0166015625,-0.2989501953125,0.7821044921875,-10.253905296325684,0.4882812201976776,0.7934569716453552
284851,-0.016845703125,-0.2677001953125,0.6978759765625,-12.634276390075684,0.6713866591453552,0.9765624403953552
284868,-0.0206298828125,-0.235107421875,0.591064453125,-13.671874046325684,0.9155272841453552,1.03759765625
284884,-0.0186767578125,-0.2171630859375,0.5645751953125,-15.808104515075684,1.6479490995407104,1.220703125
284918,-0.0107421875,-0.16650390625,0.4571533203125,-19.775390625,2.563476324081421,1.7700194120407104
284934,-0.009033203125,-0.1673583984375,0.457763671875,-20.629880905151367,2.929687261581421,1.8920897245407104
284950,-0.00537109375,-0.1534423828125,0.48876953125,-21.484373092651367,2.868652105331421,1.9531248807907104
284967,-0.00390625,-0.14501953125,0.493896484375,-21.972654342651367,2.50244140625,2.01416015625
284990,-0.0015869140625,-0.14013671875,0.4835205078125,-22.033689498901367,2.3193359375,2.197265625
285006,0.0030517578125,-0.1446533203125,0.5244140625,-22.033689498901367,2.50244140625,2.25830078125
285023,0.0047607421875,-0.152099609375,0.563232421875,-21.484373092651367,2.50244140625,2.38037109375
285042,0.0042724609375,-0.1610107421875,0.6343994140625,-20.324705123901367,1.8310545682907104,2.197265625
285059,0.0010986328125,-0.157958984375,0.6678466796875,-18.5546875,1.0986328125,2.01416015625
285074,0.0023193359375,-0.154541015625,0.68017578125,-17.63916015625,0.6103515625,2.01416015625
285091,-0.0003662109375,-0.1575927734375,0.657470703125,-16.11328125,-0.54931640625,1.9531248807907104
285109,-0.0032958984375,-0.145263671875,0.5916748046875,-15.197752952575684,-0.4272460639476776,2.01416015625
285130,-0.002197265625,-0.1474609375,0.5850830078125,-14.892577171325684,-0.1220703050494194,2.197265625
285146,-0.0001220703125,-0.1575927734375,0.6220703125,-14.038084983825684,0.0,2.197265625
285164,-0.0054931640625,-0.1688232421875,0.6683349609375,-12.695311546325684,0.0,2.50244140625
285181,-0.005615234375,-0.1998291015625,0.759765625,-11.657713890075684,0.1831054538488388,2.746581792831421
285214,-0.0111083984375,-0.282958984375,0.85009765625,-6.652831554412842,-0.9155272841453552,2.929687261581421
285231,-0.010009765625,-0.3167724609375,0.8802490234375,-4.08935546875,-0.9155272841453552,3.051757574081421
285247,-0.00732421875,-0.3509521484375,0.951416015625,-1.0986328125,-0.9155272841453552,3.051757574081421
285285,-0.0064697265625,-0.347900390625,1.0330810546875,3.906249761581421,-1.6479490995407104,2.13623046875
285301,0.0028076171875,-0.2911376953125,1.078125,5.859374523162842,-1.8920897245407104,1.8920897245407104
285313,0.011474609375,-0.256103515625,1.09765625,9.46044921875,-2.624511480331421,2.0751953125
285330,0.013427734375,-0.250732421875,1.0909423828125,11.230467796325684,-3.051757574081421,2.197265625
285348,0.012451171875,-0.2440185546875,1.059814453125,14.282225608825684,-3.784179449081421,2.197265625
285364,0.0093994140625,-0.2398681640625,1.0462646484375,16.9677734375,-3.967284917831421,1.9531248807907104
285395,0.0062255859375,-0.228271484375,1.00830078125,20.141599655151367,-4.45556640625,1.7089842557907104
285416,0.003662109375,-0.2235107421875,0.9813232421875,21.362302780151367,-4.7607421875,1.5258787870407104
285433,-0.000732421875,-0.2310791015625,0.9632568359375,22.094724655151367,-4.638671875,1.7700194120407104
285450,-0.00927734375,-0.2608642578125,0.9429931640625,22.277830123901367,-4.8828125,1.8310545682907104
285468,-0.013671875,-0.2901611328125,0.92919921875,22.521970748901367,-5.065917491912842,1.8310545682907104
285484,-0.0140380859375,-0.3067626953125,0.9388427734375,22.460935592651367,-4.94384765625,1.8310545682907104
285513,-0.0185546875,-0.3419189453125,0.93994140625,21.423337936401367,-5.554198741912842,1.5258787870407104
285568,-0.01611328125,-0.35107421875,0.9893798828125,19.4091796875,-5.493163585662842,1.5258787870407104
285618,-0.023681640625,-0.339599609375,0.95947265625,16.90673828125,-5.493163585662842,1.5258787870407104
285651,-0.0260009765625,-0.3416748046875,0.9639892578125,15.441893577575684,-5.0048828125,1.7089842557907104
285685,-0.026123046875,-0.3580322265625,0.9539794921875,13.305663108825684,-5.0048828125,1.7700194120407104
285707,-0.02685546875,-0.363525390625,0.9296875,11.779784202575684,-4.7607421875,1.7700194120407104
285724,-0.025146484375,-0.3681640625,0.9197998046875,10.070799827575684,-4.39453125,1.7700194120407104
285757,-0.02392578125,-0.3787841796875,0.918701171875,7.324218273162842,-3.967284917831421,1.7089842557907104
285774,-0.0245361328125,-0.380615234375,0.9124755859375,5.554198741912842,-3.906249761581421,1.7089842557907104
285790,-0.0263671875,-0.3790283203125,0.8948974609375,3.845214605331421,-3.845214605331421,1.5258787870407104
285807,-0.025634765625,-0.375244140625,0.887451171875,3.051757574081421,-3.784179449081421,1.4038084745407104
285827,-0.0228271484375,-0.361083984375,0.8623046875,1.5869139432907104,-3.417968511581421,1.3427733182907104
285844,-0.0145263671875,-0.3551025390625,0.8660888671875,0.9765624403953552,-3.173827886581421,1.4648436307907104
285860,-0.0174560546875,-0.357666015625,0.8564453125,-0.2441406100988388,-3.234863042831421,1.4648436307907104
285877,-0.021484375,-0.35546875,0.8468017578125,-1.15966796875,-2.929687261581421,1.4038084745407104
285894,-0.0269775390625,-0.3638916015625,0.8612060546875,-1.9531248807907104,-2.563476324081421,1.3427733182907104
285911,-0.033447265625,-0.3668212890625,0.8648681640625,-2.624511480331421,-2.624511480331421,0.9765624403953552
285932,-0.0369873046875,-0.3636474609375,0.85693359375,-2.929687261581421,-2.563476324081421,0.7934569716453552
285948,-0.03955078125,-0.3524169921875,0.85107421875,-3.234863042831421,-2.0751953125,0.6713866591453552
285960,-0.037353515625,-0.342529296875,0.865478515625,-3.417968511581421,-1.8310545682907104,0.4882812201976776
285992,-0.039794921875,-0.3248291015625,0.835205078125,-3.356933355331421,-1.8920897245407104,0.2441406100988388
286041,-0.0400390625,-0.3291015625,0.8499755859375,-5.310058116912842,-0.4882812201976776,0.2441406100988388
286089,-0.0338134765625,-0.2982177734375,0.81884765625,-6.469726085662842,0.1220703050494194,0.4882812201976776
286126,-0.0247802734375,-0.29736328125,0.8642578125,-7.812499523162842,0.9155272841453552,0.7934569716453552
286142,-0.025146484375,-0.295166015625,0.8961181640625,-7.873534679412842,1.03759765625,0.8544921278953552
286175,-0.0263671875,-0.29931640625,0.939453125,-7.141112804412842,0.3662109076976776,0.9765624403953552
286191,-0.0283203125,-0.279296875,0.8885498046875,-6.774901866912842,0.3662109076976776,1.0986328125
286208,-0.026611328125,-0.27685546875,0.8800048828125,-6.530761241912842,0.8544921278953552,1.3427733182907104
286250,-0.0146484375,-0.3194580078125,0.9893798828125,-5.187987804412842,0.30517578125,1.7700194120407104
286267,-0.021728515625,-0.314453125,0.9329833984375,-4.45556640625,-0.7324218153953552,1.5258787870407104
286284,-0.030029296875,-0.2879638671875,0.8372802734375,-4.2724609375,-0.6713866591453552,1.5258787870407104
286302,-0.021484375,-0.297119140625,0.839111328125,-4.39453125,0.4272460639476776,1.8920897245407104
286351,-0.016845703125,-0.333984375,0.970947265625,-4.21142578125,0.1220703050494194,1.8310545682907104
286375,-0.020263671875,-0.3223876953125,0.9583740234375,-3.540038824081421,-0.2441406100988388,1.6479490995407104
286391,-0.0162353515625,-0.3111572265625,0.9139404296875,-2.746581792831421,-0.4272460639476776,1.5258787870407104
286408,-0.010986328125,-0.3154296875,0.92041015625,-2.44140625,0.0,1.7089842557907104
286426,-0.0113525390625,-0.3350830078125,0.9422607421875,-2.44140625,0.1831054538488388,1.7700194120407104
286443,-0.015380859375,-0.359130859375,0.996826171875,-2.25830078125,-0.1831054538488388,1.4648436307907104
286474,-0.0286865234375,-0.345947265625,0.96728515625,-2.0751953125,-1.03759765625,0.9765624403953552
286495,-0.032470703125,-0.32763671875,0.8988037109375,-2.197265625,-1.03759765625,1.03759765625
