tMillis,ax,ay,az,gx,gy,gz
343990,0.035400390625,0.1285400390625,1.017822265625,0.6713866591453552,-0.30517578125,0.2441406100988388
344002,0.0347900390625,0.127685546875,1.0164794921875,0.6713866591453552,-0.2441406100988388,0.2441406100988388
344019,0.0347900390625,0.1279296875,1.0164794921875,0.6713866591453552,-0.2441406100988388,0.2441406100988388
344033,0.0357666015625,0.1300048828125,1.0177001953125,0.6713866591453552,-0.2441406100988388,0.2441406100988388
344050,0.034912109375,0.128662109375,1.0166015625,0.6713866591453552,-0.2441406100988388,0.2441406100988388
344069,0.0338134765625,0.1279296875,1.0157470703125,0.7324218153953552,-0.2441406100988388,0.2441406100988388
344092,0.0345458984375,0.1285400390625,1.0159912109375,0.7324218153953552,-0.2441406100988388,0.30517578125
344106,0.035400390625,0.1290283203125,1.017822265625,0.6713866591453552,-0.2441406100988388,0.2441406100988388
344123,0.03466796875,0.1282958984375,1.0159912109375,0.6713866591453552,-0.2441406100988388,0.1831054538488388
344140,0.034912109375,0.1278076171875,1.013671875,0.7324218153953552,-0.2441406100988388,0.1831054538488388
344159,0.0345458984375,0.12841796875,1.01416015625,0.7324218153953552,-0.2441406100988388,0.2441406100988388
344180,0.0343017578125,0.129150390625,1.015380859375,0.6103515625,-0.2441406100988388,0.1831054538488388
344196,0.035400390625,0.1297607421875,1.01513671875,0.6713866591453552,-0.1831054538488388,0.2441406100988388
344216,0.0355224609375,0.1290283203125,1.01611328125,0.6713866591453552,-0.2441406100988388,0.30517578125
344235,0.03515625,0.1290283203125,1.0166015625,0.6713866591453552,-0.2441406100988388,0.2441406100988388
344254,0.035888671875,0.129638671875,1.02001953125,0.6713866591453552,-0.2441406100988388,0.2441406100988388
344272,0.03515625,0.130126953125,1.0208740234375,0.7324218153953552,-0.2441406100988388,0.2441406100988388
344290,0.035888671875,0.129150390625,1.01611328125,0.7324218153953552,-0.2441406100988388,0.30517578125
344305,0.0362548828125,0.1287841796875,1.0150146484375,0.7934569716453552,-0.1831054538488388,0.30517578125
344325,0.035888671875,0.1278076171875,1.0140380859375,0.7934569716453552,-0.1831054538488388,0.30517578125
344343,0.034912109375,0.129638671875,1.015625,0.7324218153953552,-0.2441406100988388,0.2441406100988388
344360,0.03515625,0.12939453125,1.0152587890625,0.6713866591453552,-0.2441406100988388,0.2441406100988388
344377,0.0345458984375,0.1279296875,1.016357421875,0.7324218153953552,-0.1831054538488388,0.30517578125
344398,0.034423828125,0.12939453125,1.0167236328125,0.7324218153953552,-0.1831054538488388,0.30517578125
344417,0.035400390625,0.1279296875,1.0164794921875,0.7324218153953552,-0.2441406100988388,0.30517578125
344432,0.03466796875,0.1290283203125,1.01904296875,0.6713866591453552,-0.2441406100988388,0.30517578125
344448,0.03466796875,0.1295166015625,1.0184326171875,0.6713866591453552,-0.2441406100988388,0.30517578125
344465,0.03564453125,0.127685546875,1.0157470703125,0.6713866591453552,-0.2441406100988388,0.2441406100988388
344482,0.03466796875,0.128173828125,1.0152587890625,0.6103515625,-0.1831054538488388,0.2441406100988388
344501,0.035400390625,0.1287841796875,1.015869140625,0.6103515625,-0.2441406100988388,0.2441406100988388
344524,0.035400390625,0.1279296875,1.017578125,0.7324218153953552,-0.30517578125,0.2441406100988388
344540,0.0343017578125,0.1285400390625,1.0159912109375,0.6713866591453552,-0.2441406100988388,0.2441406100988388
344556,0.0355224609375,0.1285400390625,1.0179443359375,0.6103515625,-0.2441406100988388,0.3662109076976776
344572,0.0355224609375,0.1285400390625,1.016845703125,0.6713866591453552,-0.2441406100988388,0.30517578125
344592,0.0345458984375,0.1287841796875,1.01708984375,0.6713866591453552,-0.2441406100988388,0.2441406100988388
344610,0.03515625,0.1285400390625,1.0162353515625,0.6713866591453552,-0.2441406100988388,0.2441406100988388
344627,0.035888671875,0.12841796875,1.015869140625,0.6713866591453552,-0.2441406100988388,0.30517578125
344652,0.0350341796875,0.1282958984375,1.01708984375,0.6713866591453552,-0.2441406100988388,0.2441406100988388
344664,0.035400390625,0.12939453125,1.016357421875,0.6713866591453552,-0.1831054538488388,0.2441406100988388
344683,0.0352783203125,0.1292724609375,1.015869140625,0.6713866591453552,-0.1831054538488388,0.2441406100988388
344701,0.0343017578125,0.1282958984375,1.016357421875,0.7324218153953552,-0.2441406100988388,0.30517578125
344719,0.0343017578125,0.12841796875,1.01611328125,0.7934569716453552,-0.30517578125,0.30517578125
344741,0.0350341796875,0.128173828125,1.017333984375,0.7324218153953552,-0.2441406100988388,0.2441406100988388
344757,0.0347900390625,0.12890625,1.0166015625,0.6713866591453552,-0.2441406100988388,0.1831054538488388
344769,0.034423828125,0.1287841796875,1.0167236328125,0.6713866591453552,-0.2441406100988388,0.2441406100988388
344783,0.0345458984375,0.12841796875,1.016845703125,0.6713866591453552,-0.2441406100988388,0.30517578125
344800,0.034912109375,0.1280517578125,1.016357421875,0.6103515625,-0.30517578125,0.2441406100988388
344818,0.0357666015625,0.128662109375,1.016357421875,0.6103515625,-0.2441406100988388,0.2441406100988388
344838,0.0350341796875,0.1290283203125,1.0162353515625,0.6713866591453552,-0.2441406100988388,0.30517578125
344861,0.0347900390625,0.12890625,1.0167236328125,0.6103515625,-0.1831054538488388,0.3662109076976776
344874,0.035400390625,0.128662109375,1.01513671875,0.6713866591453552,-0.1831054538488388,0.30517578125
344891,0.0355224609375,0.1292724609375,1.015625,0.6713866591453552,-0.2441406100988388,0.30517578125
344910,0.034423828125,0.12890625,1.0172119140625,0.7324218153953552,-0.30517578125,0.30517578125
344931,0.034912109375,0.12841796875,1.0174560546875,0.6713866591453552,-0.2441406100988388,0.1831054538488388
344956,0.035888671875,0.1282958984375,1.015380859375,0.6713866591453552,-0.2441406100988388,0.2441406100988388
344968,0.0360107421875,0.1279296875,1.01513671875,0.6713866591453552,-0.2441406100988388,0.30517578125
344985,0.0350341796875,0.1280517578125,1.0166015625,0.6103515625,-0.2441406100988388,0.30517578125
345004,0.0355224609375,0.1279296875,1.0159912109375,0.6713866591453552,-0.2441406100988388,0.2441406100988388
345023,0.0364990234375,0.129150390625,1.0164794921875,0.6103515625,-0.1831054538488388,0.2441406100988388
345041,0.0361328125,0.12939453125,1.0162353515625,0.6713866591453552,-0.2441406100988388,0.30517578125
345058,0.035888671875,0.1285400390625,1.01708984375,0.6103515625,-0.2441406100988388,0.30517578125
345079,0.03564453125,0.1285400390625,1.017578125,0.6103515625,-0.1831054538488388,0.2441406100988388
345095,0.0364990234375,0.1278076171875,1.01611328125,0.6713866591453552,-0.2441406100988388,0.2441406100988388
345108,0.0369873046875,0.1282958984375,1.0157470703125,0.6713866591453552,-0.2441406100988388,0.30517578125
345125,0.0350341796875,0.1279296875,1.016357421875,0.7324218153953552,-0.2441406100988388,0.30517578125
345142,0.0345458984375,0.1282958984375,1.0159912109375,0.6713866591453552,-0.2441406100988388,0.30517578125
345172,0.0350341796875,0.1279296875,1.0172119140625,0.6103515625,-0.2441406100988388,0.1831054538488388
345193,0.0355224609375,0.1282958984375,1.0172119140625,0.6713866591453552,-0.2441406100988388,0.2441406100988388
345209,0.0364990234375,0.127685546875,1.0174560546875,0.6713866591453552,-0.2441406100988388,0.30517578125
345226,0.03662109375,0.1285400390625,1.0164794921875,0.6713866591453552,-0.2441406100988388,0.2441406100988388
345244,0.036376953125,0.1279296875,1.0177001953125,0.6713866591453552,-0.1831054538488388,0.2441406100988388
345260,0.034423828125,0.128662109375,1.0174560546875,0.6713866591453552,-0.1831054538488388,0.2441406100988388
345294,0.0350341796875,0.129150390625,1.0167236328125,0.6103515625,-0.2441406100988388,0.1831054538488388
345343,0.0345458984375,0.12841796875,1.016357421875,0.6103515625,-0.2441406100988388,0.1831054538488388
345362,0.0340576171875,0.1278076171875,1.0169677734375,0.6713866591453552,-0.2441406100988388,0.2441406100988388
345379,0.0347900390625,0.12841796875,1.016845703125,0.6713866591453552,-0.2441406100988388,0.2441406100988388
345396,0.0350341796875,0.1287841796875,1.0167236328125,0.7324218153953552,-0.30517578125,0.30517578125
345412,0.03515625,0.129150390625,1.017578125,0.6713866591453552,-0.30517578125,0.30517578125
345434,0.035888671875,0.1282958984375,1.016845703125,0.6713866591453552,-0.2441406100988388,0.2441406100988388
345450,0.0357666015625,0.12841796875,1.0172119140625,0.6713866591453552,-0.30517578125,0.2441406100988388
345467,0.03515625,0.1282958984375,1.0172119140625,0.6713866591453552,-0.30517578125,0.2441406100988388
345534,0.03515625,0.12890625,1.0172119140625,0.6713866591453552,-0.2441406100988388,0.1831054538488388
345550,0.034912109375,0.128662109375,1.0174560546875,0.6103515625,-0.1831054538488388,0.2441406100988388
345566,0.034423828125,0.128662109375,1.015625,0.7324218153953552,-0.2441406100988388,0.30517578125
345608,0.034912109375,0.129150390625,1.0159912109375,0.6103515625,-0.2441406100988388,0.30517578125
345624,0.03564453125,0.128173828125,1.0164794921875,0.6713866591453552,-0.2441406100988388,0.1831054538488388
345641,0.0350341796875,0.1290283203125,1.017333984375,0.6713866591453552,-0.1831054538488388,0.1831054538488388
345660,0.03515625,0.12939453125,1.0174560546875,0.6103515625,-0.2441406100988388,0.2441406100988388
345677,0.0355224609375,0.1287841796875,1.0164794921875,0.6713866591453552,-0.2441406100988388,0.2441406100988388
345692,0.034912109375,0.1285400390625,1.016845703125,0.6713866591453552,-0.2441406100988388,0.30517578125
345709,0.0343017578125,0.1287841796875,1.01611328125,0.6713866591453552,-0.2441406100988388,0.2441406100988388
345728,0.0350341796875,0.1282958984375,1.0159912109375,0.7324218153953552,-0.2441406100988388,0.2441406100988388
345744,0.0347900390625,0.1287841796875,1.0159912109375,0.7324218153953552,-0.30517578125,0.2441406100988388
345761,0.0345458984375,0.1287841796875,1.0164794921875,0.6713866591453552,-0.30517578125,0.2441406100988388
345782,0.0355224609375,0.12890625,1.0162353515625,0.6713866591453552,-0.30517578125,0.30517578125
345798,0.0357666015625,0.1287841796875,1.0164794921875,0.6713866591453552,-0.2441406100988388,0.30517578125
345815,0.03515625,0.1278076171875,1.0167236328125,0.6103515625,-0.1831054538488388,0.2441406100988388
345832,0.0347900390625,0.127685546875,1.01611328125,0.6713866591453552,-0.2441406100988388,0.2441406100988388
345849,0.035888671875,0.1279296875,1.0166015625,0.7324218153953552,-0.2441406100988388,0.30517578125
345870,0.035888671875,0.129150390625,1.0164794921875,0.7324218153953552,-0.30517578125,0.30517578125
345886,0.03515625,0.12939453125,1.0179443359375,0.6713866591453552,-0.30517578125,0.30517578125
345905,0.0345458984375,0.129150390625,1.01708984375,0.6713866591453552,-0.30517578125,0.3662109076976776
345922,0.0350341796875,0.1282958984375,1.0162353515625,0.6713866591453552,-0.2441406100988388,0.30517578125
345951,0.0357666015625,0.1287841796875,1.0166015625,0.6713866591453552,-0.30517578125,0.2441406100988388
345968,0.034423828125,0.12744140625,1.0152587890625,0.6713866591453552,-0.2441406100988388,0.30517578125
345984,0.0343017578125,0.1278076171875,1.0157470703125,0.6713866591453552,-0.2441406100988388,0.30517578125
346018,0.035400390625,0.129150390625,1.017578125,0.7324218153953552,-0.30517578125,0.2441406100988388
346034,0.0350341796875,0.12939453125,1.01806640625,0.6713866591453552,-0.30517578125,0.2441406100988388
346051,0.0352783203125,0.129638671875,1.0166015625,0.6103515625,-0.2441406100988388,0.2441406100988388
346067,0.0350341796875,0.128662109375,1.0152587890625,0.6713866591453552,-0.2441406100988388,0.2441406100988388
346086,0.0340576171875,0.12841796875,1.0169677734375,0.6713866591453552,-0.2441406100988388,0.30517578125
346103,0.035400390625,0.128173828125,1.0166015625,0.6713866591453552,-0.2441406100988388,0.2441406100988388
346133,0.03515625,0.128173828125,1.0174560546875,0.7324218153953552,-0.30517578125,0.2441406100988388
346149,0.0350341796875,0.1292724609375,1.0177001953125,0.6713866591453552,-0.2441406100988388,0.2441406100988388
346166,0.03564453125,0.129150390625,1.0169677734375,0.6713866591453552,-0.1831054538488388,0.2441406100988388
346183,0.035400390625,0.1285400390625,1.015380859375,0.6713866591453552,-0.2441406100988388,0.2441406100988388
346203,0.03515625,0.1287841796875,1.0164794921875,0.6713866591453552,-0.2441406100988388,0.30517578125
346220,0.035888671875,0.128662109375,1.017578125,0.6713866591453552,-0.2441406100988388,0.30517578125
346237,0.0350341796875,0.12939453125,1.0162353515625,0.6713866591453552,-0.2441406100988388,0.30517578125
346253,0.03515625,0.129150390625,1.0169677734375,0.6103515625,-0.1831054538488388,0.1831054538488388
346275,0.0343017578125,0.1287841796875,1.0172119140625,0.6713866591453552,-0.2441406100988388,0.2441406100988388
346291,0.0345458984375,0.1278076171875,1.0157470703125,0.6713866591453552,-0.2441406100988388,0.2441406100988388
346308,0.0352783203125,0.12890625,1.0177001953125,0.7324218153953552,-0.2441406100988388,0.30517578125
346325,0.035888671875,0.1290283203125,1.017333984375,0.7324218153953552,-0.30517578125,0.30517578125
346341,0.035888671875,0.129150390625,1.015625,0.6713866591453552,-0.30517578125,0.30517578125
346375,0.0352783203125,0.1285400390625,1.0155029296875,0.6713866591453552,-0.1831054538488388,0.30517578125
346391,0.0352783203125,0.128173828125,1.0147705078125,0.6713866591453552,-0.2441406100988388,0.2441406100988388
346407,0.0355224609375,0.1292724609375,1.01953125,0.6713866591453552,-0.30517578125,0.2441406100988388
346424,0.0352783203125,0.1287841796875,1.019775390625,0.7324218153953552,-0.30517578125,0.2441406100988388
346448,0.0340576171875,0.128662109375,1.01806640625,0.7324218153953552,-0.1831054538488388,0.2441406100988388
346465,0.0361328125,0.1273193359375,1.0125732421875,0.6713866591453552,-0.1831054538488388,0.2441406100988388
346477,0.0361328125,0.1278076171875,1.018798828125,0.6713866591453552,-0.2441406100988388,0.2441406100988388
346493,0.0350341796875,0.1285400390625,1.0216064453125,0.7324218153953552,-0.30517578125,0.30517578125
346510,0.0338134765625,0.1285400390625,1.0166015625,0.6713866591453552,-0.2441406100988388,0.2441406100988388
346527,0.0341796875,0.128662109375,1.0152587890625,0.6713866591453552,-0.1831054538488388,0.1831054538488388
346544,0.0372314453125,0.128173828125,1.0174560546875,0.6713866591453552,-0.1831054538488388,0.2441406100988388
346568,0.035400390625,0.1279296875,1.0152587890625,0.6713866591453552,-0.1831054538488388,0.1831054538488388
346585,0.0345458984375,0.1295166015625,1.017822265625,0.6713866591453552,-0.30517578125,0.2441406100988388
346597,0.0352783203125,0.1287841796875,1.018798828125,0.6713866591453552,-0.30517578125,0.2441406100988388
346614,0.0350341796875,0.128662109375,1.017578125,0.6713866591453552,-0.2441406100988388,0.30517578125
346630,0.03466796875,0.1279296875,1.0167236328125,0.6713866591453552,-0.2441406100988388,0.30517578125
346646,0.034912109375,0.1275634765625,1.016357421875,0.6713866591453552,-0.2441406100988388,0.30517578125
346681,0.0340576171875,0.1285400390625,1.0169677734375,0.6713866591453552,-0.1831054538488388,0.2441406100988388
346733,0.0345458984375,0.1275634765625,1.015625,0.6713866591453552,-0.1831054538488388,0.2441406100988388
346766,0.03564453125,0.1280517578125,1.015380859375,0.6103515625,-0.2441406100988388,0.30517578125
346810,0.03515625,0.1285400390625,1.0169677734375,0.6713866591453552,-0.2441406100988388,0.30517578125
346822,0.035400390625,0.12890625,1.015380859375,0.6713866591453552,-0.1831054538488388,0.2441406100988388
346852,0.03564453125,0.1287841796875,1.0152587890625,0.6103515625,-0.2441406100988388,0.2441406100988388
346868,0.035400390625,0.128173828125,1.012939453125,0.6103515625,-0.2441406100988388,0.2441406100988388
346885,0.034912109375,0.12890625,1.01904296875,0.6713866591453552,-0.30517578125,0.2441406100988388
346923,0.0341796875,0.1285400390625,1.0166015625,0.6713866591453552,-0.1831054538488388,0.2441406100988388
346939,0.03515625,0.1278076171875,1.0164794921875,0.6713866591453552,-0.2441406100988388,0.2441406100988388
346956,0.036376953125,0.12841796875,1.0177001953125,0.6713866591453552,-0.30517578125,0.2441406100988388
346973,0.03515625,0.1285400390625,1.015625,0.6713866591453552,-0.2441406100988388,0.30517578125
346988,0.03564453125,0.1282958984375,1.0140380859375,0.6713866591453552,-0.1831054538488388,0.2441406100988388
347005,0.0361328125,0.12890625,1.016357421875,0.6713866591453552,-0.2441406100988388,0.1831054538488388
347038,0.0345458984375,0.12841796875,1.015869140625,0.6103515625,-0.2441406100988388,0.30517578125
347058,0.03466796875,0.1282958984375,1.01416015625,0.6713866591453552,-0.1831054538488388,0.30517578125
347075,0.03662109375,0.1278076171875,1.0169677734375,0.6713866591453552,-0.1831054538488388,0.2441406100988388
347092,0.0362548828125,0.1279296875,1.016357421875,0.6713866591453552,-0.30517578125,0.2441406100988388
347108,0.035400390625,0.1282958984375,1.016357421875,0.6713866591453552,-0.2441406100988388,0.2441406100988388
347125,0.0338134765625,0.1279296875,1.0169677734375,0.6103515625,-0.30517578125,0.30517578125
347157,0.0361328125,0.127685546875,1.0174560546875,0.6713866591453552,-0.2441406100988388,0.2441406100988388
347178,0.036376953125,0.128662109375,1.0179443359375,0.6103515625,-0.2441406100988388,0.2441406100988388
347195,0.0340576171875,0.129150390625,1.016357421875,0.6713866591453552,-0.30517578125,0.2441406100988388
347212,0.033935546875,0.1292724609375,1.0164794921875,0.6103515625,-0.30517578125,0.2441406100988388
347228,0.0347900390625,0.1295166015625,1.01611328125,0.6713866591453552,-0.30517578125,0.30517578125
347244,0.0361328125,0.1285400390625,1.0181884765625,0.6713866591453552,-0.1831054538488388,0.2441406100988388
347278,0.035400390625,0.1285400390625,1.0123291015625,0.6103515625,-0.2441406100988388,0.2441406100988388
347298,0.03515625,0.1297607421875,1.018310546875,0.6713866591453552,-0.2441406100988388,0.2441406100988388
347315,0.03466796875,0.1282958984375,1.0186767578125,0.6713866591453552,-0.1831054538488388,0.2441406100988388
347330,0.03466796875,0.12744140625,1.01318359375,0.6713866591453552,-0.1831054538488388,0.30517578125
347347,0.03515625,0.128173828125,1.01806640625,0.6713866591453552,-0.2441406100988388,0.30517578125
347364,0.03515625,0.12841796875,1.0169677734375,0.6713866591453552,-0.1831054538488388,0.2441406100988388
347399,0.034912109375,0.1275634765625,1.0133056640625,0.6713866591453552,-0.2441406100988388,0.30517578125
347414,0.03564453125,0.1298828125,1.0206298828125,0.7324218153953552,-0.2441406100988388,0.30517578125
347431,0.0361328125,0.1304931640625,1.0220947265625,0.6713866591453552,-0.2441406100988388,0.30517578125
347447,0.0341796875,0.1282958984375,1.016357421875,0.6713866591453552,-0.1831054538488388,0.2441406100988388
347466,0.034912109375,0.128173828125,1.01416015625,0.6103515625,-0.2441406100988388,0.30517578125
347515,0.034912109375,0.12890625,1.0186767578125,0.7324218153953552,-0.2441406100988388,0.2441406100988388
347532,0.034912109375,0.1295166015625,1.0205078125,0.7324218153953552,-0.2441406100988388,0.2441406100988388
347553,0.035400390625,0.1290283203125,1.0181884765625,0.6103515625,-0.1831054538488388,0.2441406100988388
347568,0.0350341796875,0.1287841796875,1.0150146484375,0.6713866591453552,-0.2441406100988388,0.30517578125
347634,0.0367431640625,0.1290283203125,1.015380859375,0.6713866591453552,-0.1831054538488388,0.2441406100988388
347651,0.0369873046875,0.12890625,1.0181884765625,0.6103515625,-0.2441406100988388,0.2441406100988388
347667,0.0355224609375,0.128173828125,1.0213623046875,0.6713866591453552,-0.2441406100988388,0.2441406100988388
347683,0.0345458984375,0.1287841796875,1.0140380859375,0.6713866591453552,-0.2441406100988388,0.2441406100988388
347702,0.0367431640625,0.12939453125,1.0155029296875,0.6713866591453552,-0.2441406100988388,0.2441406100988388
347724,0.0364990234375,0.1297607421875,1.0152587890625,0.6713866591453552,-0.2441406100988388,0.2441406100988388
347740,0.0343017578125,0.129638671875,1.0169677734375,0.6713866591453552,-0.2441406100988388,0.2441406100988388
347761,0.0343017578125,0.1278076171875,1.0169677734375,0.7324218153953552,-0.2441406100988388,0.2441406100988388
347778,0.035888671875,0.128173828125,1.014892578125,0.6713866591453552,-0.1831054538488388,0.30517578125
347794,0.036376953125,0.129150390625,1.017333984375,0.6713866591453552,-0.1831054538488388,0.2441406100988388
347844,0.0345458984375,0.12939453125,1.01513671875,0.6103515625,-0.2441406100988388,0.2441406100988388
347885,0.0362548828125,0.1278076171875,1.0179443359375,0.6713866591453552,-0.1831054538488388,0.30517578125
347902,0.0367431640625,0.127685546875,1.017333984375,0.6713866591453552,-0.1831054538488388,0.2441406100988388
347935,0.0355224609375,0.1298828125,1.01513671875,0.6713866591453552,-0.30517578125,0.30517578125
347952,0.0357666015625,0.1292724609375,1.015869140625,0.7324218153953552,-0.30517578125,0.30517578125
347968,0.0355224609375,0.127197265625,1.0179443359375,0.7324218153953552,-0.2441406100988388,0.30517578125
347984,0.033935546875,0.1278076171875,1.0166015625,0.6713866591453552,-0.2441406100988388,0.2441406100988388
348004,0.0357666015625,0.1282958984375,1.0155029296875,0.6103515625,-0.1831054538488388,0.2441406100988388
348026,0.0360107421875,0.1285400390625,1.016357421875,0.6103515625,-0.2441406100988388,0.30517578125
348042,0.0347900390625,0.129150390625,1.01708984375,0.54931640625,-0.30517578125,0.30517578125
348061,0.034912109375,0.1285400390625,1.0166015625,0.6103515625,-0.1831054538488388,0.2441406100988388
348078,0.0350341796875,0.1280517578125,1.017578125,0.6713866591453552,-0.1831054538488388,0.30517578125
348111,0.035888671875,0.1287841796875,1.017333984375,0.7324218153953552,-0.30517578125,0.30517578125
348128,0.0343017578125,0.1290283203125,1.0162353515625,0.6713866591453552,-0.2441406100988388,0.2441406100988388
348144,0.0347900390625,0.12890625,1.01611328125,0.6103515625,-0.2441406100988388,0.2441406100988388
348179,0.0355224609375,0.1290283203125,1.01806640625,0.7324218153953552,-0.1831054538488388,0.30517578125
348195,0.0350341796875,0.1285400390625,1.0164794921875,0.6713866591453552,-0.1831054538488388,0.30517578125
348212,0.03466796875,0.1287841796875,1.01611328125,0.6713866591453552,-0.2441406100988388,0.30517578125
348228,0.0350341796875,0.129638671875,1.0174560546875,0.7324218153953552,-0.2441406100988388,0.2441406100988388
348245,0.0357666015625,0.1278076171875,1.0172119140625,0.7324218153953552,-0.2441406100988388,0.2441406100988388
348262,0.03515625,0.1278076171875,1.0177001953125,0.7324218153953552,-0.1831054538488388,0.2441406100988388
348299,0.0355224609375,0.1292724609375,1.016357421875,0.7324218153953552,-0.1831054538488388,0.2441406100988388
348314,0.0357666015625,0.12744140625,1.0174560546875,0.7934569716453552,-0.2441406100988388,0.2441406100988388
348331,0.0357666015625,0.127197265625,1.0167236328125,0.7324218153953552,-0.2441406100988388,0.2441406100988388
348348,0.0357666015625,0.1280517578125,1.0157470703125,0.6713866591453552,-0.2441406100988388,0.2441406100988388
348366,0.0361328125,0.1282958984375,1.0181884765625,0.6103515625,-0.1831054538488388,0.2441406100988388
348382,0.03564453125,0.1285400390625,1.0166015625,0.6103515625,-0.1831054538488388,0.1831054538488388
348414,0.0350341796875,0.12890625,1.0164794921875,0.54931640625,-0.2441406100988388,0.2441406100988388
348435,0.0355224609375,0.1295166015625,1.0169677734375,0.54931640625,-0.2441406100988388,0.30517578125
348451,0.0340576171875,0.1309814453125,1.0167236328125,0.6103515625,-0.1831054538488388,0.30517578125
348468,0.035400390625,0.1318359375,1.0159912109375,0.6103515625,-0.2441406100988388,0.30517578125
348485,0.0357666015625,0.13037109375,1.014892578125,1.03759765625,-0.30517578125,0.30517578125
348501,0.0350341796875,0.1376953125,1.0174560546875,1.7700194120407104,-0.3662109076976776,0.2441406100988388
348535,0.0372314453125,0.1341552734375,1.0155029296875,2.3193359375,-0.4882812201976776,0.2441406100988388
348551,0.035400390625,0.13623046875,1.0152587890625,2.929687261581421,-0.4882812201976776,0.1831054538488388
348567,0.0345458984375,0.1375732421875,1.017822265625,3.662109136581421,-0.54931640625,0.1831054538488388
348584,0.0352783203125,0.134521484375,1.0159912109375,3.967284917831421,-0.54931640625,0.1831054538488388
348607,0.0377197265625,0.1292724609375,1.0166015625,4.39453125,-0.54931640625,0.1831054538488388
348649,0.035888671875,0.13037109375,1.01953125,5.554198741912842,-0.7934569716453552,0.0610351525247097
348715,0.03369140625,0.118896484375,1.0172119140625,6.896972179412842,-0.9155272841453552,0.0
348731,0.033203125,0.1185302734375,1.0179443359375,7.263183116912842,-0.9765624403953552,0.0610351525247097
348748,0.033935546875,0.1175537109375,1.0189208984375,7.507323741912842,-1.03759765625,0.0
348764,0.034423828125,0.1170654296875,1.0177001953125,7.873534679412842,-0.9765624403953552,0.0
348784,0.0333251953125,0.1114501953125,1.01904296875,8.30078125,-1.03759765625,0.0
348801,0.0321044921875,0.1075439453125,1.019287109375,8.60595703125,-1.0986328125,0.0
348833,0.0325927734375,0.1048583984375,1.02001953125,9.033203125,-1.15966796875,0.0
348854,0.0316162109375,0.1019287109375,1.0186767578125,9.33837890625,-1.220703125,0.0
348870,0.0318603515625,0.098388671875,1.0208740234375,9.521484375,-1.2817381620407104,0.0
348887,0.0311279296875,0.095458984375,1.02099609375,9.765625,-1.15966796875,0.0
348905,0.03125,0.0928955078125,1.020263671875,10.009765625,-1.220703125,-0.0610351525247097
348922,0.0308837890625,0.08984375,1.02099609375,10.253905296325684,-1.2817381620407104,0.0
348955,0.0301513671875,0.08544921875,1.0223388671875,10.620116233825684,-1.2817381620407104,0.0
348970,0.030029296875,0.080810546875,1.022216796875,10.864256858825684,-1.3427733182907104,-0.0610351525247097
348990,0.029052734375,0.077880859375,1.0220947265625,11.047362327575684,-1.3427733182907104,-0.0610351525247097
349006,0.029052734375,0.07568359375,1.0233154296875,11.108397483825684,-1.3427733182907104,0.0
349020,0.029052734375,0.0718994140625,1.0220947265625,11.230467796325684,-1.4038084745407104,0.0
349037,0.0283203125,0.0687255859375,1.02392578125,11.352538108825684,-1.4038084745407104,0.0
349070,0.026611328125,0.0625,1.02197265625,11.596678733825684,-1.4038084745407104,-0.0610351525247097
349087,0.028076171875,0.0587158203125,1.02587890625,11.718749046325684,-1.4038084745407104,-0.0610351525247097
349104,0.027099609375,0.05615234375,1.0234375,11.840819358825684,-1.4648436307907104,-0.0610351525247097
349125,0.026611328125,0.052978515625,1.01904296875,11.901854515075684,-1.4648436307907104,-0.0610351525247097
349143,0.027099609375,0.050048828125,1.026611328125,12.023924827575684,-1.4648436307907104,-0.1220703050494194
349159,0.026123046875,0.0457763671875,1.025146484375,12.084959983825684,-1.4648436307907104,-0.1220703050494194
349189,0.0240478515625,0.0399169921875,1.02392578125,12.390135765075684,-1.5258787870407104,-0.0610351525247097
349254,0.0230712890625,0.0191650390625,1.0242919921875,12.084959983825684,-1.4648436307907104,0.0
349276,0.0234375,0.0133056640625,1.0291748046875,11.535643577575684,-1.4648436307907104,0.0
349292,0.022705078125,0.0059814453125,1.0255126953125,11.291502952575684,-1.4648436307907104,0.0610351525247097
349304,0.021484375,-0.00244140625,1.02783203125,10.498045921325684,-1.4038084745407104,0.1831054538488388
349324,0.0208740234375,-0.0086669921875,1.0299072265625,9.033203125,-1.15966796875,0.1220703050494194
349341,0.0228271484375,-0.01904296875,1.026611328125,7.019042491912842,-1.3427733182907104,0.1220703050494194
349373,0.0169677734375,-0.01318359375,1.02880859375,4.5166015625,-0.8544921278953552,0.0
349392,-0.0015869140625,0.00732421875,1.026611328125,3.601073980331421,-0.2441406100988388,0.0
349408,0.0189208984375,0.011962890625,1.023681640625,3.479003667831421,-0.1220703050494194,0.0610351525247097
349425,0.0361328125,0.00732421875,1.0260009765625,3.540038824081421,-0.30517578125,0.2441406100988388
349445,0.0364990234375,-0.00634765625,1.026123046875,3.234863042831421,-0.4272460639476776,0.1831054538488388
349462,0.0098876953125,-0.0003662109375,1.0235595703125,3.112792730331421,-0.30517578125,0.0610351525247097
349494,0.0252685546875,0.0172119140625,1.029296875,3.845214605331421,-0.4882812201976776,0.0610351525247097
349516,0.0283203125,0.00830078125,1.027099609375,4.33349609375,-0.7324218153953552,0.4272460639476776
349532,0.0155029296875,-0.00830078125,1.0213623046875,4.2724609375,-0.9155272841453552,0.30517578125
349549,0.0191650390625,-0.016845703125,1.0284423828125,3.784179449081421,-0.7934569716453552,0.30517578125
349566,0.0205078125,-0.012451171875,1.0267333984375,2.990722417831421,-0.6713866591453552,0.1220703050494194
349582,0.0216064453125,-0.0062255859375,1.02685546875,2.624511480331421,-0.54931640625,0.1831054538488388
349614,0.0145263671875,-0.0115966796875,1.026123046875,1.7700194120407104,-0.4882812201976776,0.3662109076976776
349636,0.00927734375,-0.01904296875,1.025634765625,0.8544921278953552,-0.4272460639476776,0.2441406100988388
349652,0.024169921875,-0.0208740234375,1.033935546875,0.54931640625,-0.54931640625,0.3662109076976776
349669,0.028564453125,-0.0362548828125,1.020263671875,-0.54931640625,-1.15966796875,0.1220703050494194
349686,0.0400390625,-0.002197265625,1.0357666015625,-1.7700194120407104,-0.1220703050494194,0.1220703050494194
349702,-0.005859375,0.0079345703125,1.0179443359375,-1.8920897245407104,0.2441406100988388,0.2441406100988388
349732,0.0225830078125,-0.0057373046875,1.0223388671875,-0.8544921278953552,0.6103515625,0.30517578125
349752,0.0537109375,0.0057373046875,1.0291748046875,-0.6713866591453552,0.4272460639476776,0.2441406100988388
349767,0.0386962890625,0.0003662109375,1.0272216796875,-0.1220703050494194,0.1220703050494194,0.1831054538488388
349784,0.0048828125,0.027587890625,1.0233154296875,0.2441406100988388,0.0610351525247097,0.0610351525247097
349802,0.0118408203125,0.010986328125,1.0186767578125,1.3427733182907104,0.2441406100988388,0.54931640625
349819,0.03173828125,-0.0047607421875,1.02978515625,1.8920897245407104,0.3662109076976776,0.4882812201976776
349852,0.019287109375,-0.00341796875,1.0289306640625,1.15966796875,0.30517578125,0.1831054538488388
349868,0.011962890625,-0.0040283203125,1.017333984375,1.0986328125,0.4272460639476776,0.0610351525247097
349885,0.0159912109375,0.0091552734375,1.0257568359375,1.5258787870407104,0.7934569716453552,0.0610351525247097
349906,0.022216796875,0.01318359375,1.03076171875,2.50244140625,0.9155272841453552,-0.2441406100988388
349925,0.027587890625,0.034423828125,1.0228271484375,3.417968511581421,0.7324218153953552,-0.1831054538488388
349941,0.0318603515625,0.05517578125,1.0240478515625,5.981444835662842,0.4882812201976776,-0.1831054538488388
349973,0.0118408203125,0.052978515625,1.0498046875,11.352538108825684,0.1831054538488388,0.1220703050494194
349989,0.0054931640625,0.021484375,1.0286865234375,13.732909202575684,0.1831054538488388,0.30517578125
350006,0.0076904296875,0.0283203125,1.0316162109375,16.66259765625,0.30517578125,-0.0610351525247097
350042,0.02392578125,0.03955078125,1.1492919921875,18.4326171875,0.4882812201976776,-0.4272460639476776
350058,0.0322265625,0.0228271484375,1.3116455078125,19.53125,-0.4272460639476776,-0.3662109076976776
350070,0.02880859375,0.00048828125,1.378173828125,19.4091796875,-0.8544921278953552,-0.3662109076976776
350087,0.0252685546875,-0.0123291015625,1.36669921875,18.310546875,-1.4648436307907104,-0.3662109076976776
350105,0.0238037109375,-0.03515625,1.328857421875,16.78466796875,-1.15966796875,-0.6103515625
350122,0.03076171875,-0.0506591796875,1.3121337890625,13.793944358825684,-0.4882812201976776,-0.8544921278953552
350158,0.035888671875,-0.05615234375,1.244140625,9.033203125,0.6713866591453552,-0.7934569716453552
350174,0.0501708984375,-0.0516357421875,1.25244140625,7.385253429412842,1.4038084745407104,-0.6713866591453552
350191,0.06298828125,-0.0670166015625,1.3018798828125,4.5166015625,2.3193359375,-0.4882812201976776
350208,0.0648193359375,-0.0775146484375,1.3302001953125,2.3193359375,2.563476324081421,-0.3662109076976776
350227,0.0634765625,-0.1077880859375,1.38916015625,0.6103515625,1.8920897245407104,-0.7324218153953552
350243,0.0660400390625,-0.11572265625,1.430908203125,-0.8544921278953552,0.7934569716453552,-1.15966796875
350277,0.0628662109375,-0.1109619140625,1.42431640625,-3.295898199081421,-1.2817381620407104,-1.8920897245407104
350298,0.0443115234375,-0.111328125,1.362060546875,-4.7607421875,-2.0751953125,-2.38037109375
350314,0.0316162109375,-0.101806640625,1.3326416015625,-5.371093273162842,-2.01416015625,-2.624511480331421
350330,0.031494140625,-0.0982666015625,1.350830078125,-6.530761241912842,-1.7700194120407104,-2.990722417831421
350346,0.030517578125,-0.0841064453125,1.36279296875,-7.629394054412842,-2.25830078125,-3.234863042831421
350363,0.0257568359375,-0.0621337890625,1.3128662109375,-8.97216796875,-2.197265625,-3.234863042831421
350397,0.0166015625,-0.0594482421875,1.2139892578125,-10.375975608825684,-0.4882812201976776,-3.112792730331421
350417,0.011962890625,-0.057861328125,1.1826171875,-11.230467796325684,0.9155272841453552,-2.868652105331421
350433,0.008056640625,-0.061279296875,1.1634521484375,-11.535643577575684,1.5869139432907104,-2.929687261581421
350450,0.0087890625,-0.0604248046875,1.1622314453125,-12.207030296325684,2.990722417831421,-2.990722417831421
350467,0.014404296875,-0.0489501953125,1.17919921875,-12.878417015075684,3.662109136581421,-2.929687261581421
350483,0.0089111328125,-0.05517578125,1.1300048828125,-13.183592796325684,3.845214605331421,-2.685546636581421
350513,0.0113525390625,-0.06201171875,1.0599365234375,-15.441893577575684,5.615233898162842,-2.50244140625
350529,0.0150146484375,-0.062255859375,1.0538330078125,-16.11328125,5.798339366912842,-2.563476324081421
350545,0.01953125,-0.05712890625,1.03125,-17.02880859375,6.042479991912842,-2.563476324081421
350583,0.0233154296875,-0.03955078125,0.998291015625,-18.00537109375,5.920409679412842,-2.563476324081421
350628,0.0269775390625,-0.00732421875,0.8790283203125,-17.88330078125,3.723144292831421,-2.44140625
350652,0.024658203125,0.004150390625,0.75048828125,-17.578125,2.929687261581421,-2.13623046875
350664,0.0216064453125,0.0089111328125,0.7000732421875,-17.333984375,1.9531248807907104,-2.0751953125
350681,0.0191650390625,0.011474609375,0.6517333984375,-17.2119140625,1.6479490995407104,-2.01416015625
350701,0.013916015625,0.0078125,0.56396484375,-17.2119140625,1.0986328125,-1.8920897245407104
350718,0.0130615234375,0.0130615234375,0.4937744140625,-17.2119140625,0.7934569716453552,-1.7700194120407104
350735,0.0087890625,0.00830078125,0.439453125,-17.15087890625,0.3662109076976776,-1.7089842557907104
350752,0.0047607421875,0.0106201171875,0.4168701171875,-17.02880859375,0.4272460639476776,-1.7089842557907104
350768,0.002197265625,0.0145263671875,0.41748046875,-16.41845703125,0.6103515625,-1.7700194120407104
350785,0.0006103515625,0.0318603515625,0.452392578125,-15.930174827575684,0.54931640625,-1.8310545682907104
350802,-0.000732421875,0.042724609375,0.4716796875,-14.648436546325684,0.2441406100988388,-1.8310545682907104
350820,0.00341796875,0.071533203125,0.5537109375,-12.817381858825684,0.0610351525247097,-1.7700194120407104
350837,0.0050048828125,0.0806884765625,0.5830078125,-10.681151390075684,-0.2441406100988388,-1.5869139432907104
350854,0.0128173828125,0.09521484375,0.6763916015625,-8.6669921875,-0.4882812201976776,-1.4648436307907104
350870,0.015380859375,0.100341796875,0.7200927734375,-7.568358898162842,-0.7324218153953552,-1.4038084745407104
350892,0.02685546875,0.1138916015625,0.819580078125,-5.249022960662842,-1.15966796875,-1.3427733182907104
350908,0.0423583984375,0.1302490234375,0.9268798828125,-2.868652105331421,-1.9531248807907104,-1.03759765625
350925,0.048095703125,0.135986328125,0.989501953125,-1.5869139432907104,-2.50244140625,-0.8544921278953552
350944,0.049072265625,0.13134765625,1.0079345703125,0.9765624403953552,-3.234863042831421,-0.4882812201976776
350960,0.046875,0.1129150390625,1.0296630859375,3.173827886581421,-3.662109136581421,-0.3662109076976776
350993,0.052734375,0.09423828125,1.0391845703125,6.042479991912842,-4.150390625,-0.3662109076976776
351012,0.0545654296875,0.0919189453125,1.041015625,7.690429210662842,-4.21142578125,-0.3662109076976776
351028,0.0518798828125,0.0823974609375,1.0279541015625,8.4228515625,-4.33349609375,-0.30517578125
351044,0.0450439453125,0.064208984375,1.00390625,9.521484375,-4.57763671875,-0.1831054538488388
351063,0.0439453125,0.0577392578125,0.9927978515625,10.009765625,-4.57763671875,-0.2441406100988388
351080,0.0423583984375,0.0467529296875,0.97607421875,10.009765625,-4.2724609375,-0.2441406100988388
351112,0.0472412109375,0.0494384765625,1.0113525390625,9.82666015625,-4.33349609375,-0.1831054538488388
351134,0.0452880859375,0.0513916015625,1.013671875,10.253905296325684,-4.57763671875,-0.0610351525247097
351150,0.0426025390625,0.0494384765625,1.012939453125,10.803221702575684,-4.7607421875,-0.0610351525247097
351167,0.036376953125,0.0443115234375,0.997802734375,11.108397483825684,-4.82177734375,-0.1220703050494194
351186,0.0323486328125,0.0411376953125,0.9937744140625,11.535643577575684,-4.57763671875,-0.1831054538488388
351203,0.02685546875,0.037353515625,0.9945068359375,11.840819358825684,-4.33349609375,-0.1831054538488388
351235,0.01953125,0.038818359375,1.01708984375,12.390135765075684,-3.662109136581421,0.0
351252,0.01806640625,0.03955078125,1.02099609375,12.390135765075684,-3.540038824081421,0.0610351525247097
351272,0.0206298828125,0.0435791015625,1.03515625,12.268065452575684,-3.417968511581421,0.30517578125
351289,0.021728515625,0.0413818359375,1.0235595703125,12.207030296325684,-3.417968511581421,0.4882812201976776
351306,0.0238037109375,0.0347900390625,1.02490234375,11.840819358825684,-3.051757574081421,0.7324218153953552
351322,0.0235595703125,0.0301513671875,1.02880859375,11.352538108825684,-2.624511480331421,1.03759765625
351354,0.030029296875,0.0399169921875,1.10009765625,10.803221702575684,-2.563476324081421,1.2817381620407104
351370,0.030517578125,0.04296875,1.100830078125,10.742186546325684,-3.295898199081421,1.6479490995407104
351386,0.0274658203125,0.029052734375,1.0657958984375,10.559081077575684,-3.662109136581421,2.0751953125
351427,0.0250244140625,0.0030517578125,1.0234375,9.46044921875,-3.662109136581421,2.3193359375
351444,0.0196533203125,-0.0086669921875,0.99462890625,8.30078125,-3.601073980331421,2.50244140625
351461,0.0113525390625,-0.013671875,0.9698486328125,6.835937023162842,-3.356933355331421,2.44140625
351481,0.0054931640625,-0.0137939453125,0.968017578125,5.554198741912842,-2.868652105331421,2.38037109375
351498,0.0042724609375,-0.008056640625,0.9898681640625,4.57763671875,-2.563476324081421,2.3193359375
351515,-0.000732421875,0.0008544921875,0.998046875,4.21142578125,-2.563476324081421,2.25830078125
351534,-0.00341796875,0.006591796875,1.002197265625,3.601073980331421,-2.44140625,2.197265625
351589,-0.0059814453125,0.0074462890625,0.980224609375,2.868652105331421,-1.9531248807907104,2.01416015625
351606,-0.0072021484375,0.0069580078125,0.97412109375,2.50244140625,-1.4038084745407104,1.8310545682907104
351622,-0.0059814453125,0.009521484375,0.9815673828125,2.25830078125,-0.6713866591453552,1.7089842557907104
351656,-0.0003662109375,0.0284423828125,1.0198974609375,2.13623046875,-0.1220703050494194,1.7089842557907104
351710,0.0086669921875,0.04248046875,1.04736328125,3.051757574081421,0.0610351525247097,2.0751953125
351727,0.013916015625,0.03369140625,1.0511474609375,3.479003667831421,0.0,2.25830078125
351743,0.0155029296875,0.0244140625,1.0440673828125,3.417968511581421,-0.30517578125,2.38037109375
351777,0.0206298828125,-0.004638671875,1.0372314453125,1.8920897245407104,-0.2441406100988388,2.44140625
351793,0.0201416015625,-0.0068359375,1.04052734375,1.4648436307907104,-0.3662109076976776,2.38037109375
351814,0.01904296875,-0.00390625,1.0357666015625,0.4882812201976776,-0.6103515625,2.44140625
351830,0.016845703125,-0.0050048828125,1.0201416015625,0.0,-0.6713866591453552,2.50244140625
351842,0.01416015625,-0.008544921875,1.0152587890625,-1.220703125,-0.6103515625,2.563476324081421
351859,0.0120849609375,-0.009521484375,1.0203857421875,-1.8310545682907104,-0.6103515625,2.563476324081421
351892,0.0068359375,-0.0125732421875,1.0240478515625,-4.21142578125,-0.9155272841453552,2.746581792831421
351909,0.010498046875,-0.0108642578125,1.026123046875,-5.249022960662842,-0.7934569716453552,2.746581792831421
351925,0.013427734375,-0.0091552734375,1.0384521484375,-5.737304210662842,-0.8544921278953552,2.807616949081421
351958,-0.0003662109375,-0.0023193359375,1.0224609375,-7.446288585662842,-1.4038084745407104,2.929687261581421
351979,-0.0006103515625,-0.0013427734375,1.0185546875,-7.690429210662842,-1.220703125,2.929687261581421
351995,-0.0006103515625,-0.00244140625,1.02392578125,-8.23974609375,-1.15966796875,2.990722417831421
352009,-0.00390625,-0.000732421875,1.0272216796875,-8.7890625,-1.220703125,3.051757574081421
352026,-0.0067138671875,-0.000244140625,1.02294921875,-8.97216796875,-1.2817381620407104,3.112792730331421
352043,-0.0059814453125,0.0008544921875,1.0235595703125,-9.21630859375,-1.220703125,3.112792730331421
352076,-0.0047607421875,-0.0018310546875,1.0184326171875,-9.521484375,-1.4648436307907104,2.990722417831421
352092,-0.0037841796875,-0.0028076171875,1.01220703125,-9.58251953125,-1.5869139432907104,3.051757574081421
352109,0.000732421875,0.0032958984375,1.008544921875,-9.521484375,-1.5258787870407104,2.929687261581421
352125,0.003173828125,0.0040283203125,1.00927734375,-9.27734375,-1.5869139432907104,2.868652105331421
352139,0.0054931640625,0.0106201171875,1.0230712890625,-8.48388671875,-1.7700194120407104,2.868652105331421
352156,0.0059814453125,0.0074462890625,1.0313720703125,-8.1787109375,-2.01416015625,2.868652105331421
352189,0.0166015625,0.0120849609375,1.0400390625,-6.774901866912842,-2.197265625,2.25830078125
352208,0.017822265625,0.0220947265625,1.0621337890625,-5.798339366912842,-2.685546636581421,2.13623046875
352225,0.0169677734375,0.0240478515625,1.060302734375,-5.432128429412842,-2.929687261581421,2.0751953125
352246,0.0150146484375,0.02880859375,1.054931640625,-4.69970703125,-2.990722417831421,1.8920897245407104
352263,0.020263671875,0.041259765625,1.077392578125,-4.2724609375,-3.173827886581421,1.8310545682907104
352279,0.0208740234375,0.0504150390625,1.0806884765625,-4.0283203125,-3.479003667831421,1.8920897245407104
352312,0.0106201171875,0.04638671875,1.021484375,-3.845214605331421,-4.150390625,1.9531248807907104
352329,0.0064697265625,0.0469970703125,1.0064697265625,-4.21142578125,-3.845214605331421,2.0751953125
352345,0.00390625,0.041748046875,0.999267578125,-4.39453125,-3.723144292831421,2.13623046875
352377,-0.0152587890625,0.0318603515625,0.959716796875,-4.8828125,-3.112792730331421,2.13623046875
352394,-0.017333984375,0.0340576171875,0.9578857421875,-5.187987804412842,-2.38037109375,2.0751953125
352413,-0.0186767578125,0.0306396484375,0.9686279296875,-5.249022960662842,-1.7700194120407104,2.0751953125
352429,-0.021240234375,0.0281982421875,0.9549560546875,-5.249022960662842,-1.5258787870407104,2.01416015625
352445,-0.0238037109375,0.02099609375,0.9395751953125,-5.432128429412842,-0.7324218153953552,1.8920897245407104
352462,-0.0230712890625,0.0238037109375,0.927490234375,-5.493163585662842,-0.1220703050494194,1.7700194120407104
352495,-0.0223388671875,0.0299072265625,0.947265625,-5.737304210662842,1.4648436307907104,1.7700194120407104
352544,-0.0172119140625,0.0184326171875,0.918212890625,-5.798339366912842,3.051757574081421,1.6479490995407104
352566,-0.0135498046875,0.0166015625,0.9111328125,-6.164550304412842,3.784179449081421,1.6479490995407104
352583,-0.01171875,0.0162353515625,0.912353515625,-6.469726085662842,4.08935546875,1.5869139432907104
352616,-0.007568359375,0.0238037109375,0.926513671875,-7.873534679412842,4.94384765625,1.3427733182907104
352633,-0.003662109375,0.0306396484375,0.929931640625,-8.6669921875,5.187987804412842,1.2817381620407104
352649,0.0013427734375,0.0372314453125,0.9256591796875,-9.27734375,5.187987804412842,1.03759765625
352665,-0.001220703125,0.035888671875,0.906982421875,-9.3994140625,5.432128429412842,0.9765624403953552
352688,0.0008544921875,0.04541015625,0.937744140625,-9.27734375,6.347655773162842,0.6713866591453552
352704,0.0067138671875,0.056884765625,0.9964599609375,-8.4228515625,5.798339366912842,0.4272460639476776
352721,0.0087890625,0.070068359375,0.9775390625,-7.812499523162842,5.371093273162842,0.30517578125
352742,0.0093994140625,0.0699462890625,0.9541015625,-6.591796398162842,4.94384765625,0.1831054538488388
352758,0.0123291015625,0.069580078125,0.9217529296875,-5.615233898162842,4.69970703125,0.2441406100988388
352775,0.0137939453125,0.0599365234375,0.8914794921875,-5.126952648162842,4.45556640625,0.1220703050494194
352792,0.01318359375,0.056884765625,0.87890625,-4.94384765625,4.45556640625,0.0
352808,0.013427734375,0.05615234375,0.887939453125,-4.82177734375,4.33349609375,-0.1220703050494194
352824,0.0140380859375,0.0660400390625,0.9010009765625,-4.2724609375,3.784179449081421,-0.2441406100988388
352879,0.016357421875,0.068115234375,0.9005126953125,-2.50244140625,3.356933355331421,-0.6103515625
352923,0.0157470703125,0.10693359375,0.9859619140625,1.0986328125,1.220703125,-1.2817381620407104
352940,0.0155029296875,0.1014404296875,0.943115234375,2.807616949081421,0.1220703050494194,-1.4648436307907104
352971,0.015380859375,0.09033203125,0.930419921875,3.479003667831421,0.7324218153953552,-1.7089842557907104
352987,0.01904296875,0.103515625,0.9788818359375,3.845214605331421,0.8544921278953552,-1.9531248807907104
353004,0.03125,0.1328125,1.061279296875,5.0048828125,-0.7324218153953552,-1.9531248807907104
353036,0.0238037109375,0.1273193359375,0.937744140625,7.019042491912842,-2.929687261581421,-1.5258787870407104
353073,0.0086669921875,0.101318359375,0.8258056640625,6.896972179412842,-1.0986328125,-1.5258787870407104
353109,0.0157470703125,0.1243896484375,0.9931640625,6.408690929412842,-1.15966796875,-1.5258787870407104
353126,0.022705078125,0.1302490234375,1.002197265625,6.958007335662842,-2.38037109375,-1.0986328125
353143,0.0186767578125,0.12646484375,0.934814453125,7.141112804412842,-2.563476324081421,-0.9765624403953552
353163,0.0157470703125,0.1236572265625,0.935791015625,7.324218273162842,-1.9531248807907104,-0.7324218153953552
353180,0.01611328125,0.1328125,0.98046875,7.324218273162842,-1.4038084745407104,-0.54931640625
353197,0.01416015625,0.127685546875,0.9940185546875,7.812499523162842,-1.2817381620407104,-0.1831054538488388
353214,0.0106201171875,0.122314453125,1.0208740234375,8.23974609375,-1.4038084745407104,-0.0610351525247097
353235,0.0,0.110107421875,0.970458984375,8.36181640625,-1.5869139432907104,0.0610351525247097
353251,-0.0042724609375,0.11474609375,0.92041015625,8.23974609375,-0.8544921278953552,0.1220703050494194
353268,-0.00244140625,0.1134033203125,0.9349365234375,7.751464366912842,1.03759765625,0.3662109076976776
353287,0.0025634765625,0.12890625,1.0133056640625,7.873534679412842,1.7089842557907104,0.6713866591453552
353304,0.00537109375,0.1329345703125,1.053955078125,8.544921875,1.4648436307907104,0.9155272841453552
353337,-0.0064697265625,0.114501953125,0.9578857421875,8.9111328125,2.44140625,1.3427733182907104
353354,0.003173828125,0.110595703125,0.961181640625,8.36181640625,3.723144292831421,1.5258787870407104
353370,0.0084228515625,0.109375,0.9815673828125,8.056640625,4.0283203125,1.5869139432907104
353387,0.0164794921875,0.1190185546875,1.0234375,8.056640625,4.2724609375,1.8310545682907104
353406,0.0218505859375,0.1256103515625,1.05322265625,8.30078125,4.2724609375,1.9531248807907104
353423,0.020263671875,0.1070556640625,1.0697021484375,9.033203125,3.967284917831421,2.3193359375
353454,0.0203857421875,0.084228515625,1.0760498046875,8.7890625,3.784179449081421,2.624511480331421
353470,0.0235595703125,0.0777587890625,1.0780029296875,8.60595703125,3.723144292831421,2.50244140625
353491,0.0333251953125,0.0751953125,1.11865234375,8.4228515625,3.784179449081421,2.624511480331421
353507,0.0377197265625,0.0748291015625,1.194091796875,9.033203125,3.051757574081421,2.563476324081421
353519,0.033447265625,0.062255859375,1.2398681640625,9.58251953125,2.38037109375,2.624511480331421
353536,0.029541015625,0.062744140625,1.224853515625,10.070799827575684,1.4648436307907104,2.50244140625
353568,0.030517578125,0.0537109375,1.1297607421875,10.986327171325684,-0.30517578125,2.38037109375
353587,0.031494140625,0.0362548828125,1.1177978515625,10.803221702575684,-0.4882812201976776,2.44140625
353604,0.031982421875,0.0272216796875,1.138427734375,10.314940452575684,-1.4038084745407104,2.197265625
353625,0.0294189453125,0.01708984375,1.129150390625,10.070799827575684,-1.7700194120407104,2.13623046875
353644,0.02783203125,0.0196533203125,1.1175537109375,9.58251953125,-2.01416015625,1.9531248807907104
353660,0.0311279296875,0.0225830078125,1.138671875,9.033203125,-2.197265625,1.7700194120407104
353693,0.033203125,0.0191650390625,1.1407470703125,8.48388671875,-2.50244140625,1.8310545682907104
353709,0.033935546875,0.0194091796875,1.152099609375,8.1787109375,-2.50244140625,1.5258787870407104
353726,0.0345458984375,0.014892578125,1.1807861328125,7.995604991912842,-2.990722417831421,1.3427733182907104
353766,0.030517578125,-0.001220703125,1.132080078125,6.286620616912842,-3.662109136581421,0.9155272841453552
353782,0.0318603515625,-0.001708984375,1.120361328125,5.615233898162842,-3.601073980331421,0.8544921278953552
353799,0.0333251953125,-0.00146484375,1.1099853515625,4.57763671875,-3.356933355331421,0.7324218153953552
353820,0.036376953125,-0.00048828125,1.12939453125,3.784179449081421,-3.356933355331421,0.4882812201976776
353836,0.0357666015625,0.0091552734375,1.1378173828125,3.540038824081421,-3.601073980331421,0.4272460639476776
353853,0.024169921875,-0.0006103515625,1.091796875,2.990722417831421,-4.08935546875,0.3662109076976776
353870,0.0179443359375,-0.0020751953125,1.0692138671875,2.197265625,-3.784179449081421,0.2441406100988388
353889,0.00927734375,-0.0150146484375,1.0694580078125,1.15966796875,-2.868652105331421,-0.0610351525247097
353909,0.0146484375,-0.0057373046875,1.115478515625,0.2441406100988388,-2.50244140625,-0.2441406100988388
353925,0.0225830078125,0.003662109375,1.1395263671875,0.0,-2.624511480331421,-0.2441406100988388
353944,0.02294921875,0.00732421875,1.123779296875,-0.30517578125,-2.990722417831421,-0.2441406100988388
353961,0.0159912109375,0.0093994140625,1.0660400390625,-0.30517578125,-2.3193359375,-0.2441406100988388
353994,0.0115966796875,0.0001220703125,1.0545654296875,-0.6103515625,-1.0986328125,-0.1220703050494194
354010,0.012451171875,-0.0062255859375,1.0499267578125,-1.15966796875,-0.6713866591453552,-0.1220703050494194
354027,0.0123291015625,-0.011962890625,1.001708984375,-1.6479490995407104,0.0,-0.1831054538488388
354048,0.01611328125,-0.017578125,0.992431640625,-1.9531248807907104,0.7324218153953552,-0.1831054538488388
354064,0.0196533203125,-0.0133056640625,1.025634765625,-2.50244140625,1.8920897245407104,-0.4272460639476776
354081,0.021484375,-0.0084228515625,1.0531005859375,-2.746581792831421,2.50244140625,-0.6713866591453552
354113,0.0240478515625,0.0140380859375,1.063232421875,-2.197265625,2.38037109375,-0.8544921278953552
354129,0.024169921875,0.0194091796875,1.0457763671875,-1.7700194120407104,2.44140625,-0.7934569716453552
354146,0.019287109375,0.0113525390625,1.0185546875,-1.4038084745407104,3.173827886581421,-0.9155272841453552
354182,0.0052490234375,0.0118408203125,1.047607421875,-0.7324218153953552,3.723144292831421,-0.9765624403953552
354204,-0.0218505859375,0.0465087890625,1.045166015625,3.784179449081421,4.7607421875,-0.8544921278953552
354220,0.0291748046875,0.0008544921875,0.98974609375,6.896972179412842,5.310058116912842,-0.9155272841453552
354241,0.0458984375,0.012451171875,1.0133056640625,3.723144292831421,5.615233898162842,-0.7934569716453552
354258,0.0423583984375,0.0205078125,1.0653076171875,4.150390625,5.310058116912842,-0.8544921278953552
354274,0.0916748046875,0.0538330078125,2.037109375,2.0751953125,2.563476324081421,-0.6103515625
354291,0.0584716796875,0.0504150390625,1.6192626953125,-3.173827886581421,-4.94384765625,-0.1831054538488388
354308,0.01416015625,-0.0025634765625,0.7449951171875,-2.807616949081421,-3.723144292831421,0.1220703050494194
354325,-0.004638671875,0.038330078125,0.8299560546875,-2.624511480331421,-2.50244140625,0.0
354346,-0.0068359375,0.04296875,0.8563232421875,1.9531248807907104,0.30517578125,0.54931640625
354365,0.0146484375,0.00732421875,0.8863525390625,2.3193359375,1.5869139432907104,0.3662109076976776
354381,0.0069580078125,0.002685546875,0.91259765625,0.0610351525247097,1.3427733182907104,0.4882812201976776
354414,0.037841796875,0.001953125,1.0321044921875,-0.1831054538488388,-2.929687261581421,0.1831054538488388
354480,0.0263671875,0.0,0.9443359375,-1.3427733182907104,-1.15966796875,0.6713866591453552
354555,0.023681640625,0.0341796875,1.045654296875,-1.5869139432907104,-0.4272460639476776,0.30517578125
354668,0.0223388671875,0.0257568359375,1.018310546875,-1.220703125,-0.4272460639476776,0.2441406100988388
354685,0.022705078125,0.02880859375,1.0201416015625,-0.8544921278953552,-0.30517578125,0.1831054538488388
354702,0.0260009765625,0.0330810546875,1.030517578125,-0.1831054538488388,-0.30517578125,0.2441406100988388
354722,0.0252685546875,0.0289306640625,1.0194091796875,0.2441406100988388,-0.2441406100988388,0.3662109076976776
354739,0.0218505859375,0.01611328125,1.029541015625,0.30517578125,-0.1831054538488388,0.4272460639476776
354756,0.023681640625,0.0096435546875,1.0250244140625,0.1831054538488388,-0.1831054538488388,0.3662109076976776
354777,0.023681640625,0.0108642578125,1.025146484375,-0.1831054538488388,-0.30517578125,0.2441406100988388
354789,0.0224609375,0.02197265625,1.0205078125,-0.30517578125,-0.2441406100988388,0.2441406100988388
354806,0.0240478515625,0.030517578125,1.023193359375,-0.1831054538488388,-0.1220703050494194,0.30517578125
354822,0.023681640625,0.026123046875,1.024169921875,0.0,-0.30517578125,0.3662109076976776
354843,0.0230712890625,0.0220947265625,1.0283203125,0.1220703050494194,-0.1831054538488388,0.4272460639476776
354859,0.024658203125,0.0150146484375,1.025634765625,-0.0610351525247097,-0.2441406100988388,0.30517578125
354876,0.0250244140625,0.0185546875,1.0267333984375,-0.1220703050494194,-0.30517578125,0.2441406100988388
354896,0.0230712890625,0.0238037109375,1.0284423828125,-0.1831054538488388,-0.3662109076976776,0.2441406100988388
354913,0.0223388671875,0.03076171875,1.0208740234375,0.0,-0.2441406100988388,0.30517578125
354930,0.0235595703125,0.0269775390625,1.026123046875,0.1220703050494194,-0.1831054538488388,0.30517578125
354946,0.0240478515625,0.02001953125,1.0284423828125,0.30517578125,-0.30517578125,0.30517578125
354965,0.0242919921875,0.02001953125,1.025146484375,0.3662109076976776,-0.3662109076976776,0.30517578125
354982,0.0250244140625,0.0257568359375,1.0244140625,0.4882812201976776,-0.30517578125,0.2441406100988388
355013,0.022216796875,0.03173828125,1.02490234375,1.0986328125,-0.4272460639476776,0.30517578125
355032,0.0240478515625,0.028076171875,1.0242919921875,1.4038084745407104,-0.4272460639476776,0.30517578125
355049,0.0245361328125,0.0203857421875,1.0255126953125,1.4648436307907104,-0.3662109076976776,0.30517578125
355066,0.0250244140625,0.0186767578125,1.024658203125,1.2817381620407104,-0.3662109076976776,0.30517578125
355085,0.024169921875,0.0189208984375,1.0274658203125,1.220703125,-0.4272460639476776,0.2441406100988388
355101,0.0233154296875,0.0213623046875,1.025634765625,1.0986328125,-0.4272460639476776,0.2441406100988388
355134,0.0233154296875,0.0186767578125,1.0240478515625,0.8544921278953552,-0.2441406100988388,0.30517578125
355156,0.024169921875,0.0164794921875,1.027587890625,0.54931640625,-0.2441406100988388,0.30517578125
355172,0.0225830078125,0.02001953125,1.0250244140625,0.4272460639476776,-0.2441406100988388,0.30517578125
355189,0.022705078125,0.022216796875,1.02734375,0.30517578125,-0.2441406100988388,0.2441406100988388
355206,0.0230712890625,0.0262451171875,1.0269775390625,0.30517578125,-0.2441406100988388,0.2441406100988388
355222,0.0235595703125,0.0257568359375,1.0233154296875,0.3662109076976776,-0.30517578125,0.30517578125
355256,0.023193359375,0.02099609375,1.02734375,0.54931640625,-0.2441406100988388,0.30517578125
355305,0.02294921875,0.020263671875,1.0230712890625,0.1831054538488388,-0.2441406100988388,0.1831054538488388
355330,0.02294921875,0.0234375,1.0264892578125,0.1220703050494194,-0.1831054538488388,0.30517578125
355346,0.023193359375,0.0233154296875,1.0262451171875,0.0610351525247097,-0.1220703050494194,0.30517578125
355363,0.0230712890625,0.0245361328125,1.0252685546875,0.0,-0.1220703050494194,0.2441406100988388
355382,0.0234375,0.0257568359375,1.0238037109375,0.1831054538488388,-0.2441406100988388,0.2441406100988388
355398,0.0257568359375,0.0263671875,1.0250244140625,0.2441406100988388,-0.2441406100988388,0.1831054538488388
355415,0.0260009765625,0.0260009765625,1.0257568359375,0.3662109076976776,-0.30517578125,0.30517578125
355432,0.022216796875,0.02783203125,1.02587890625,0.6103515625,-0.30517578125,0.30517578125
355453,0.021728515625,0.029296875,1.0247802734375,0.7934569716453552,-0.30517578125,0.2441406100988388
355469,0.025390625,0.027099609375,1.026611328125,1.03759765625,-0.1831054538488388,0.1831054538488388
355486,0.0263671875,0.0262451171875,1.025390625,1.15966796875,-0.30517578125,0.2441406100988388
355504,0.0238037109375,0.0218505859375,1.026123046875,1.220703125,-0.30517578125,0.30517578125
355520,0.020751953125,0.020751953125,1.0252685546875,1.0986328125,-0.3662109076976776,0.2441406100988388
355553,0.02197265625,0.0234375,1.024169921875,1.03759765625,-0.3662109076976776,0.2441406100988388
355574,0.0250244140625,0.0244140625,1.0263671875,1.15966796875,-0.3662109076976776,0.1831054538488388
355590,0.0252685546875,0.0257568359375,1.0260009765625,1.15966796875,-0.3662109076976776,0.2441406100988388
355607,0.0234375,0.0240478515625,1.024658203125,1.3427733182907104,-0.3662109076976776,0.30517578125
355624,0.0216064453125,0.02392578125,1.0250244140625,1.4038084745407104,-0.3662109076976776,0.2441406100988388
355640,0.022216796875,0.0181884765625,1.022216796875,1.3427733182907104,-0.30517578125,0.2441406100988388
355673,0.0244140625,0.0235595703125,1.02734375,1.4038084745407104,-0.3662109076976776,0.1831054538488388
355689,0.023193359375,0.0244140625,1.025146484375,1.4648436307907104,-0.30517578125,0.1831054538488388
355705,0.0220947265625,0.0235595703125,1.0247802734375,1.5869139432907104,-0.30517578125,0.30517578125
355738,0.02294921875,0.0213623046875,1.0264892578125,1.6479490995407104,-0.30517578125,0.2441406100988388
355759,0.0216064453125,0.0201416015625,1.0262451171875,1.5869139432907104,-0.3662109076976776,0.2441406100988388
355775,0.02197265625,0.0205078125,1.0257568359375,1.5869139432907104,-0.30517578125,0.1220703050494194
355791,0.024658203125,0.0230712890625,1.026611328125,1.7089842557907104,-0.30517578125,0.1831054538488388
355807,0.0245361328125,0.020751953125,1.027587890625,1.7089842557907104,-0.30517578125,0.2441406100988388
355824,0.021728515625,0.0174560546875,1.0252685546875,1.6479490995407104,-0.3662109076976776,0.30517578125
355853,0.0218505859375,0.0177001953125,1.0257568359375,1.5258787870407104,-0.2441406100988388,0.1831054538488388
355875,0.023193359375,0.0184326171875,1.027099609375,1.5869139432907104,-0.30517578125,0.2441406100988388
355891,0.0234375,0.017822265625,1.026123046875,1.5869139432907104,-0.3662109076976776,0.2441406100988388
355908,0.022705078125,0.0169677734375,1.024658203125,1.4648436307907104,-0.30517578125,0.30517578125
355925,0.0225830078125,0.0177001953125,1.024658203125,1.4648436307907104,-0.30517578125,0.2441406100988388
355941,0.0235595703125,0.0179443359375,1.0250244140625,1.5258787870407104,-0.1831054538488388,0.1831054538488388
355972,0.0234375,0.021240234375,1.026611328125,1.9531248807907104,-0.1220703050494194,0.2441406100988388
355992,0.0234375,0.0203857421875,1.025634765625,2.0751953125,-0.1831054538488388,0.30517578125
356008,0.02294921875,0.0169677734375,1.02734375,2.197265625,-0.3662109076976776,0.2441406100988388
356025,0.021484375,0.0145263671875,1.0235595703125,2.3193359375,-0.3662109076976776,0.2441406100988388
356044,0.0230712890625,0.014404296875,1.027099609375,2.38037109375,-0.3662109076976776,0.30517578125
356061,0.02197265625,0.0125732421875,1.0244140625,2.13623046875,-0.1831054538488388,0.2441406100988388
356093,0.0230712890625,0.008056640625,1.0252685546875,1.7089842557907104,-0.1220703050494194,0.30517578125
356114,0.022216796875,0.007568359375,1.02392578125,1.5258787870407104,-0.1220703050494194,0.30517578125
356130,0.0224609375,0.0076904296875,1.0240478515625,1.03759765625,0.1220703050494194,0.2441406100988388
356147,0.0240478515625,0.0072021484375,1.027587890625,0.6103515625,0.1831054538488388,0.2441406100988388
356166,0.0218505859375,0.0062255859375,1.026123046875,0.1220703050494194,0.30517578125,0.30517578125
356183,0.0184326171875,-0.0013427734375,1.0247802734375,-0.6713866591453552,0.3662109076976776,0.3662109076976776
356212,0.0262451171875,-0.0067138671875,1.0302734375,-2.624511480331421,0.7324218153953552,0.2441406100988388
356229,0.0234375,-0.00390625,1.0203857421875,-3.356933355331421,0.9155272841453552,0.1831054538488388
356266,0.02392578125,0.0166015625,1.026611328125,-4.94384765625,1.4648436307907104,0.2441406100988388
356285,0.025390625,0.020751953125,1.0189208984375,-5.0048828125,1.4038084745407104,0.2441406100988388
356301,0.02734375,0.052734375,1.0394287109375,-4.45556640625,1.7089842557907104,-0.1220703050494194
356334,0.04052734375,0.1011962890625,1.0380859375,1.7700194120407104,1.5258787870407104,-0.0610351525247097
356351,0.05517578125,0.1080322265625,1.0872802734375,4.0283203125,1.5258787870407104,0.0
356389,0.0667724609375,0.09765625,1.311767578125,9.3994140625,-0.7324218153953552,0.1220703050494194
356405,0.0628662109375,0.0830078125,1.32861328125,10.253905296325684,-1.220703125,0.0610351525247097
356422,0.0635986328125,0.0650634765625,1.3726806640625,11.962889671325684,-1.3427733182907104,-0.0610351525247097
356455,0.058837890625,0.064453125,1.4478759765625,13.671874046325684,-2.25830078125,-0.2441406100988388
356472,0.0491943359375,0.0516357421875,1.428466796875,16.17431640625,-2.990722417831421,-0.1220703050494194
356489,0.0523681640625,0.04833984375,1.442626953125,17.15087890625,-3.112792730331421,-0.0610351525247097
356506,0.0521240234375,0.0166015625,1.447021484375,18.37158203125,-3.723144292831421,0.2441406100988388
356525,0.0478515625,-0.02001953125,1.4189453125,18.49365234375,-4.0283203125,0.1831054538488388
356537,0.0433349609375,-0.0341796875,1.387939453125,18.1884765625,-4.39453125,-0.0610351525247097
356553,0.031982421875,-0.0458984375,1.331787109375,17.822265625,-4.2724609375,-0.1220703050494194
356570,0.027099609375,-0.0440673828125,1.3214111328125,17.02880859375,-3.784179449081421,-0.1220703050494194
356587,0.02099609375,-0.04345703125,1.3236083984375,16.4794921875,-3.540038824081421,-0.1831054538488388
356607,0.0208740234375,-0.0439453125,1.3304443359375,15.930174827575684,-3.723144292831421,0.1220703050494194
356641,0.00830078125,-0.0667724609375,1.2447509765625,14.648436546325684,-2.868652105331421,0.3662109076976776
356657,0.005859375,-0.07373046875,1.2274169921875,13.916014671325684,-2.197265625,0.4882812201976776
356674,0.0087890625,-0.0704345703125,1.24658203125,12.390135765075684,-1.0986328125,0.6713866591453552
356691,0.0084228515625,-0.0726318359375,1.240478515625,11.413573265075684,-0.6713866591453552,1.03759765625
356707,0.004150390625,-0.0767822265625,1.20849609375,10.925292015075684,-0.30517578125,1.0986328125
356754,0.001953125,-0.110595703125,1.15966796875,8.30078125,1.3427733182907104,1.3427733182907104
356775,0.00439453125,-0.12158203125,1.1334228515625,7.507323741912842,1.4038084745407104,1.2817381620407104
356792,0.0067138671875,-0.12353515625,1.1173095703125,5.981444835662842,1.5869139432907104,1.15966796875
356809,0.012451171875,-0.1168212890625,1.08837890625,4.69970703125,1.2817381620407104,1.0986328125
356825,0.010009765625,-0.1087646484375,1.0408935546875,4.21142578125,1.220703125,1.03759765625
356842,0.00830078125,-0.104248046875,1.0240478515625,3.417968511581421,1.15966796875,0.9765624403953552
356879,0.0118408203125,-0.0899658203125,0.982666015625,2.929687261581421,-0.1220703050494194,0.6713866591453552
356895,0.0096435546875,-0.0889892578125,0.928466796875,2.685546636581421,-0.4272460639476776,0.6713866591453552
356912,0.009521484375,-0.0882568359375,0.9117431640625,2.3193359375,-0.9765624403953552,0.4882812201976776
356929,0.0108642578125,-0.081298828125,0.8760986328125,2.01416015625,-1.8310545682907104,0.3662109076976776
356945,0.01171875,-0.068115234375,0.82177734375,1.9531248807907104,-2.13623046875,0.2441406100988388
356962,0.0118408203125,-0.06005859375,0.7943115234375,2.13623046875,-2.624511480331421,0.2441406100988388
356998,0.00146484375,-0.0458984375,0.6925048828125,2.624511480331421,-2.868652105331421,0.30517578125
357014,-0.002197265625,-0.0372314453125,0.6663818359375,2.929687261581421,-2.929687261581421,0.30517578125
357026,-0.00341796875,-0.0299072265625,0.655517578125,3.601073980331421,-3.051757574081421,0.1831054538488388
357043,-0.004150390625,-0.0277099609375,0.6470947265625,4.0283203125,-3.112792730331421,0.2441406100988388
357062,-0.0052490234375,-0.0302734375,0.6234130859375,4.94384765625,-3.051757574081421,0.2441406100988388
357078,-0.006591796875,-0.033203125,0.6097412109375,5.554198741912842,-3.234863042831421,0.1831054538488388
357095,-0.0125732421875,-0.04150390625,0.5731201171875,6.042479991912842,-3.295898199081421,0.1831054538488388
357111,-0.0145263671875,-0.0498046875,0.5574951171875,6.103515148162842,-3.051757574081421,0.1831054538488388
357132,-0.016845703125,-0.0660400390625,0.55126953125,5.737304210662842,-2.685546636581421,0.1831054538488388
357148,-0.02001953125,-0.085205078125,0.55859375,5.493163585662842,-2.44140625,0.1220703050494194
357164,-0.021484375,-0.0869140625,0.56982421875,4.94384765625,-1.9531248807907104,-0.1220703050494194
357183,-0.0218505859375,-0.0867919921875,0.5782470703125,4.33349609375,-1.220703125,-0.1831054538488388
357200,-0.022705078125,-0.07958984375,0.6209716796875,3.723144292831421,-0.1831054538488388,-0.1220703050494194
357265,0.0009765625,-0.0579833984375,0.9295654296875,4.150390625,2.25830078125,-0.4272460639476776
357307,0.01611328125,-0.0521240234375,1.0467529296875,5.371093273162842,1.7089842557907104,-0.1220703050494194
357324,0.0167236328125,-0.0628662109375,1.0506591796875,5.859374523162842,1.2817381620407104,0.0
357341,0.021728515625,-0.076171875,1.0587158203125,6.164550304412842,0.9765624403953552,-0.1220703050494194
357361,0.0301513671875,-0.0738525390625,1.0750732421875,6.408690929412842,0.4272460639476776,-0.1220703050494194
357378,0.0350341796875,-0.0782470703125,1.0848388671875,6.469726085662842,-0.4272460639476776,0.1831054538488388
357395,0.0345458984375,-0.0997314453125,1.0892333984375,6.408690929412842,-0.8544921278953552,0.2441406100988388
357411,0.0379638671875,-0.1011962890625,1.1070556640625,6.103515148162842,-1.7089842557907104,0.1220703050494194
357433,0.0421142578125,-0.1065673828125,1.1322021484375,5.554198741912842,-3.112792730331421,0.1831054538488388
357449,0.0400390625,-0.11767578125,1.1300048828125,5.249022960662842,-3.967284917831421,0.1831054538488388
357466,0.02880859375,-0.1361083984375,1.09033203125,4.39453125,-5.554198741912842,0.1831054538488388
357485,0.0213623046875,-0.139892578125,1.0640869140625,3.723144292831421,-6.591796398162842,-0.0610351525247097
357502,0.008544921875,-0.140869140625,1.017333984375,3.479003667831421,-6.896972179412842,-0.4272460639476776
357535,0.0,-0.1220703125,0.9964599609375,2.685546636581421,-6.469726085662842,-0.6103515625
357551,0.001953125,-0.116455078125,1.001220703125,2.50244140625,-6.408690929412842,-0.7324218153953552
357567,0.0023193359375,-0.1109619140625,0.9842529296875,1.9531248807907104,-6.408690929412842,-0.7324218153953552
357584,-0.0006103515625,-0.1085205078125,0.967041015625,1.7700194120407104,-6.225585460662842,-0.6713866591453552
357609,-0.01123046875,-0.1158447265625,0.9384765625,1.0986328125,-5.554198741912842,-0.6103515625
357625,-0.0164794921875,-0.11572265625,0.9395751953125,0.4272460639476776,-4.638671875,-0.6713866591453552
357642,-0.0194091796875,-0.1165771484375,0.9530029296875,0.0,-3.845214605331421,-0.7324218153953552
357662,-0.019287109375,-0.111083984375,0.983154296875,-0.1220703050494194,-2.868652105331421,-0.8544921278953552
357679,-0.0205078125,-0.103271484375,1.0101318359375,0.0610351525247097,-2.50244140625,-0.7934569716453552
357712,-0.024658203125,-0.107421875,1.003173828125,0.0610351525247097,-1.5258787870407104,-0.6713866591453552
357729,-0.0244140625,-0.1151123046875,0.9964599609375,-0.2441406100988388,-0.7934569716453552,-0.6713866591453552
357745,-0.0225830078125,-0.1141357421875,1.001708984375,-0.4272460639476776,-0.4882812201976776,-0.6713866591453552
357762,-0.0189208984375,-0.116943359375,1.0198974609375,-0.7324218153953552,-0.2441406100988388,-0.6103515625
357783,-0.017822265625,-0.1187744140625,1.001953125,-1.3427733182907104,-0.2441406100988388,-0.4882812201976776
357799,-0.0147705078125,-0.124267578125,0.982177734375,-1.6479490995407104,0.0,-0.4882812201976776
357816,-0.0087890625,-0.1275634765625,0.992431640625,-2.44140625,0.4882812201976776,-0.4272460639476776
357830,-0.0067138671875,-0.1279296875,0.994873046875,-3.173827886581421,0.54931640625,-0.4272460639476776
357884,-0.002685546875,-0.121337890625,1.002197265625,-4.2724609375,0.6713866591453552,-0.4882812201976776
357903,-0.00146484375,-0.1171875,1.0128173828125,-3.967284917831421,0.6103515625,-0.54931640625
357949,0.001220703125,-0.10400390625,1.04638671875,-2.50244140625,0.4882812201976776,-0.7934569716453552
357970,0.0018310546875,-0.0948486328125,1.061279296875,-2.01416015625,0.4272460639476776,-0.7934569716453552
357987,0.001708984375,-0.0916748046875,1.0618896484375,-0.9155272841453552,-0.0610351525247097,-0.7934569716453552
358004,-0.0001220703125,-0.097900390625,1.0421142578125,0.0610351525247097,-0.2441406100988388,-0.7934569716453552
358024,0.0,-0.1005859375,1.0311279296875,0.7324218153953552,-0.4272460639476776,-0.7934569716453552
358041,-0.0037841796875,-0.102294921875,1.0172119140625,1.0986328125,-0.6713866591453552,-0.8544921278953552
358074,-0.0089111328125,-0.1009521484375,1.0010986328125,1.6479490995407104,-0.4272460639476776,-0.7934569716453552
358095,-0.010498046875,-0.0970458984375,1.0098876953125,2.0751953125,-0.6103515625,-0.7324218153953552
358112,-0.0098876953125,-0.0992431640625,1.00439453125,2.38037109375,-0.6713866591453552,-0.7324218153953552
358129,-0.01220703125,-0.1070556640625,0.9814453125,2.685546636581421,-0.9765624403953552,-0.7934569716453552
358145,-0.0142822265625,-0.1077880859375,0.976318359375,3.051757574081421,-0.7934569716453552,-0.8544921278953552
358162,-0.01708984375,-0.111083984375,0.986572265625,3.417968511581421,-0.7934569716453552,-0.7934569716453552
358196,-0.019775390625,-0.1192626953125,0.986572265625,3.967284917831421,-1.15966796875,-0.7934569716453552
358212,-0.0230712890625,-0.1280517578125,0.9752197265625,4.0283203125,-1.15966796875,-0.7934569716453552
358224,-0.024658203125,-0.1318359375,0.970703125,4.21142578125,-1.15966796875,-0.7934569716453552
358241,-0.0240478515625,-0.131103515625,0.966796875,4.21142578125,-1.15966796875,-0.7934569716453552
358261,-0.0244140625,-0.134765625,0.946044921875,3.967284917831421,-1.220703125,-0.7934569716453552
358310,-0.0230712890625,-0.1400146484375,0.90283203125,2.25830078125,-0.4882812201976776,-0.6713866591453552
358333,-0.0250244140625,-0.137451171875,0.9097900390625,1.8920897245407104,-0.3662109076976776,-0.6103515625
358349,-0.024169921875,-0.130126953125,0.9288330078125,1.4038084745407104,-0.1220703050494194,-0.6713866591453552
358361,-0.0242919921875,-0.1278076171875,0.9290771484375,1.0986328125,-0.4272460639476776,-0.6713866591453552
358382,-0.0233154296875,-0.1260986328125,0.922119140625,1.03759765625,-0.6713866591453552,-0.6103515625
358398,-0.0247802734375,-0.125732421875,0.8212890625,0.6103515625,-1.15966796875,-0.4882812201976776
358415,-0.0255126953125,-0.128173828125,0.788330078125,-0.4882812201976776,-0.3662109076976776,-0.3662109076976776
358432,-0.0225830078125,-0.1295166015625,0.798828125,-1.5869139432907104,0.9765624403953552,-0.4882812201976776
358448,-0.01318359375,-0.1180419921875,0.914306640625,-1.7700194120407104,1.3427733182907104,-0.54931640625
358469,-0.0093994140625,-0.1099853515625,0.967041015625,-1.6479490995407104,0.3662109076976776,-0.54931640625
358485,-0.0133056640625,-0.1063232421875,0.92822265625,-1.7700194120407104,-1.5869139432907104,-0.6103515625
358503,-0.0225830078125,-0.1085205078125,0.7679443359375,-2.25830078125,-0.7934569716453552,-0.4272460639476776
358520,-0.0179443359375,-0.1165771484375,0.7803955078125,-2.807616949081421,0.30517578125,-0.4272460639476776
358553,-0.0018310546875,-0.09130859375,1.001220703125,-3.845214605331421,0.8544921278953552,-0.6713866591453552
358570,-0.0006103515625,-0.0740966796875,1.07080078125,-2.868652105331421,-1.0986328125,-0.4882812201976776
358587,-0.0057373046875,-0.073486328125,1.0252685546875,-2.3193359375,-2.197265625,-0.4882812201976776
358603,-0.0155029296875,-0.08154296875,0.8504638671875,-1.8920897245407104,-2.563476324081421,-0.4882812201976776
358622,-0.009765625,-0.0850830078125,0.79150390625,-2.197265625,-1.15966796875,-0.54931640625
358639,-0.003662109375,-0.0826416015625,0.828125,-2.746581792831421,0.2441406100988388,-0.4272460639476776
358672,-0.005615234375,-0.0631103515625,0.9072265625,-2.746581792831421,-0.6713866591453552,-0.2441406100988388
358688,-0.01220703125,-0.06201171875,0.8741455078125,-2.563476324081421,-0.8544921278953552,-0.1831054538488388
358704,-0.022705078125,-0.0677490234375,0.8013916015625,-2.624511480331421,0.1831054538488388,0.0
358740,-0.0126953125,-0.07763671875,0.8685302734375,-3.479003667831421,1.2817381620407104,0.0610351525247097
358756,-0.0020751953125,-0.0701904296875,0.90234375,-3.906249761581421,1.03759765625,0.0610351525247097
358773,0.00537109375,-0.0556640625,0.9166259765625,-3.967284917831421,0.9765624403953552,0.0610351525247097
358789,0.003173828125,-0.04248046875,0.8837890625,-4.21142578125,0.4272460639476776,0.30517578125
358806,-0.001220703125,-0.0452880859375,0.8775634765625,-4.39453125,1.15966796875,0.6713866591453552
358823,-0.0013427734375,-0.0390625,0.9744873046875,-4.2724609375,2.01416015625,0.9155272841453552
358859,0.0028076171875,-0.044921875,1.14990234375,-2.50244140625,0.7934569716453552,1.0986328125
358875,-0.0025634765625,-0.04931640625,1.105712890625,-1.03759765625,-0.54931640625,1.220703125
358892,-0.0133056640625,-0.0538330078125,0.999755859375,-0.6103515625,-0.3662109076976776,1.220703125
358909,-0.0152587890625,-0.05419921875,0.982666015625,-0.4882812201976776,0.9155272841453552,1.4038084745407104
358925,-0.0184326171875,-0.0543212890625,0.998291015625,-0.54931640625,1.4038084745407104,1.6479490995407104
358942,-0.027587890625,-0.05859375,1.0137939453125,-0.6103515625,1.5869139432907104,1.8310545682907104
358976,-0.0299072265625,-0.060791015625,1.009033203125,0.0610351525247097,1.9531248807907104,1.8920897245407104
358996,-0.0228271484375,-0.0595703125,1.0118408203125,0.6103515625,2.624511480331421,2.01416015625
359008,-0.0189208984375,-0.06005859375,1.025146484375,0.8544921278953552,2.929687261581421,2.01416015625
359025,-0.0172119140625,-0.0599365234375,1.03271484375,0.9765624403953552,3.051757574081421,2.0751953125
359044,-0.017578125,-0.0633544921875,1.021240234375,1.3427733182907104,2.990722417831421,2.13623046875
359060,-0.0152587890625,-0.0775146484375,1.0390625,1.4648436307907104,3.540038824081421,2.44140625
359093,-0.0025634765625,-0.0953369140625,1.139404296875,1.6479490995407104,3.967284917831421,2.38037109375
359114,0.0013427734375,-0.094970703125,1.1634521484375,1.7700194120407104,3.601073980331421,2.38037109375
359130,0.004150390625,-0.0914306640625,1.1380615234375,2.38037109375,3.479003667831421,2.25830078125
359147,0.0123291015625,-0.0692138671875,1.1282958984375,2.807616949081421,3.784179449081421,2.38037109375
359166,0.00732421875,-0.07470703125,1.11865234375,3.173827886581421,3.967284917831421,2.50244140625
359183,0.0052490234375,-0.080810546875,1.14013671875,3.845214605331421,4.57763671875,2.685546636581421
359214,0.009765625,-0.0987548828125,1.170654296875,4.57763671875,4.21142578125,2.44140625
359236,0.0142822265625,-0.1070556640625,1.151123046875,4.7607421875,4.150390625,2.3193359375
359252,0.030517578125,-0.0904541015625,1.190185546875,5.187987804412842,4.5166015625,1.8920897245407104
359269,0.03564453125,-0.0849609375,1.2003173828125,5.615233898162842,3.967284917831421,1.9531248807907104
359286,0.0340576171875,-0.0968017578125,1.1932373046875,6.042479991912842,3.662109136581421,1.9531248807907104
359302,0.0325927734375,-0.116455078125,1.219970703125,6.469726085662842,3.417968511581421,1.7700194120407104
359333,0.0279541015625,-0.12890625,1.1702880859375,6.103515148162842,1.8920897245407104,1.03759765625
359349,0.0262451171875,-0.1279296875,1.147216796875,5.798339366912842,2.01416015625,0.9155272841453552
359368,0.029052734375,-0.1202392578125,1.155517578125,5.065917491912842,2.3193359375,0.7934569716453552
359384,0.0274658203125,-0.115966796875,1.172607421875,4.69970703125,2.197265625,0.7934569716453552
359403,0.0238037109375,-0.11572265625,1.1688232421875,4.2724609375,1.7700194120407104,0.9155272841453552
359420,0.019287109375,-0.11865234375,1.1676025390625,3.601073980331421,1.3427733182907104,0.9155272841453552
359452,0.009765625,-0.12060546875,1.0947265625,2.563476324081421,1.7700194120407104,0.7934569716453552
359468,0.011474609375,-0.1231689453125,1.115966796875,1.6479490995407104,2.25830078125,0.8544921278953552
359484,0.0145263671875,-0.12451171875,1.156005859375,0.8544921278953552,1.9531248807907104,0.6713866591453552
359522,0.0205078125,-0.1141357421875,1.157958984375,0.1831054538488388,1.15966796875,0.54931640625
359539,0.02197265625,-0.1123046875,1.1385498046875,-0.4272460639476776,0.9765624403953552,0.4882812201976776
359572,0.0250244140625,-0.1072998046875,1.10595703125,-1.4038084745407104,0.54931640625,0.3662109076976776
359589,0.0255126953125,-0.10546875,1.1102294921875,-2.01416015625,0.4882812201976776,0.4272460639476776
359606,0.0244140625,-0.111328125,1.10400390625,-2.563476324081421,0.0610351525247097,0.2441406100988388
359639,0.0206298828125,-0.1004638671875,1.056884765625,-3.417968511581421,-0.1220703050494194,0.1220703050494194
359655,0.0230712890625,-0.0872802734375,1.0592041015625,-3.723144292831421,0.1220703050494194,0.1220703050494194
359672,0.024658203125,-0.0867919921875,1.06787109375,-3.967284917831421,-0.1831054538488388,0.2441406100988388
359689,0.0242919921875,-0.0867919921875,1.0523681640625,-4.21142578125,-0.7324218153953552,0.1220703050494194
359708,0.021240234375,-0.089111328125,1.0228271484375,-4.45556640625,-0.7934569716453552,0.1831054538488388
359724,0.018310546875,-0.08935546875,1.0123291015625,-4.82177734375,-0.9155272841453552,0.1831054538488388
359754,0.0196533203125,-0.085205078125,1.02392578125,-4.82177734375,-1.03759765625,0.1831054538488388
359775,0.05224609375,-0.164306640625,1.4215087890625,-3.723144292831421,-1.5258787870407104,0.0
359787,0.07421875,-0.1839599609375,1.550048828125,0.9155272841453552,-6.286620616912842,-0.9765624403953552
359804,0.0146484375,-0.08984375,0.9647216796875,1.2817381620407104,-8.056640625,-1.15966796875
359822,-0.009765625,-0.0662841796875,0.892333984375,1.7700194120407104,-6.713866710662842,-1.220703125
359839,-0.00732421875,-0.0875244140625,0.9578857421875,1.8920897245407104,-5.981444835662842,-1.03759765625
359855,-0.021240234375,-0.064697265625,0.9169921875,2.3193359375,-4.33349609375,-0.9765624403953552
359872,-0.037109375,-0.04150390625,0.80419921875,4.2724609375,-1.220703125,-0.4272460639476776
359895,-0.0062255859375,-0.0626220703125,0.8065185546875,5.920409679412842,4.45556640625,0.0610351525247097
359911,0.048828125,-0.0938720703125,1.3223876953125,3.112792730331421,1.9531248807907104,0.3662109076976776
359923,0.06787109375,-0.115966796875,1.295166015625,1.9531248807907104,-1.220703125,0.1220703050494194
359942,0.0404052734375,-0.103271484375,0.933837890625,0.8544921278953552,-3.723144292831421,-0.0610351525247097
359959,0.0067138671875,-0.0823974609375,0.8106689453125,2.01416015625,-2.0751953125,-0.2441406100988388
359975,-0.0045166015625,-0.0933837890625,1.1181640625,3.051757574081421,-0.8544921278953552,0.1831054538488388
359992,0.00341796875,-0.0909423828125,1.172119140625,2.685546636581421,-0.8544921278953552,0.2441406100988388
360008,0.0164794921875,-0.0889892578125,0.96484375,2.868652105331421,-1.5869139432907104,0.3662109076976776
360024,0.0172119140625,-0.0892333984375,0.9974365234375,3.051757574081421,-0.8544921278953552,0.2441406100988388
360059,0.0052490234375,-0.1109619140625,1.0084228515625,2.50244140625,-0.9765624403953552,0.2441406100988388
360071,0.0064697265625,-0.1151123046875,1.01025390625,2.0751953125,-0.7324218153953552,0.30517578125
360088,0.0101318359375,-0.117431640625,1.0439453125,1.5869139432907104,-0.6713866591453552,0.2441406100988388
360104,0.0146484375,-0.107421875,1.0126953125,0.54931640625,-1.03759765625,0.1831054538488388
360123,0.0155029296875,-0.1099853515625,1.02197265625,-0.1831054538488388,-0.8544921278953552,0.1220703050494194
360140,0.009765625,-0.095947265625,1.0235595703125,-0.4882812201976776,-0.7934569716453552,0.1831054538488388
360157,0.00341796875,-0.0927734375,1.01611328125,-0.3662109076976776,-0.6713866591453552,0.1831054538488388
360178,0.0040283203125,-0.0921630859375,1.0201416015625,-0.2441406100988388,-0.6103515625,0.2441406100988388
360194,0.0106201171875,-0.100341796875,1.01611328125,-0.4272460639476776,-0.30517578125,0.30517578125
360228,0.00634765625,-0.10791015625,1.0233154296875,-1.2817381620407104,-0.1831054538488388,0.3662109076976776
360248,0.0059814453125,-0.1038818359375,1.019287109375,-2.0751953125,0.0,0.2441406100988388
360264,0.012451171875,-0.0941162109375,1.0201416015625,-2.50244140625,0.0,0.30517578125
360297,0.01025390625,-0.0859375,1.019287109375,-2.25830078125,-0.1831054538488388,0.1831054538488388
360313,0.0079345703125,-0.084228515625,1.0174560546875,-2.01416015625,-0.2441406100988388,0.2441406100988388
360329,0.01171875,-0.08203125,1.0306396484375,-1.4648436307907104,-0.4882812201976776,0.3662109076976776
360346,0.0111083984375,-0.0838623046875,1.0181884765625,-0.9765624403953552,-0.4882812201976776,0.1831054538488388
360371,0.0107421875,-0.080322265625,1.0228271484375,-0.30517578125,-0.4882812201976776,0.1831054538488388
360387,0.0107421875,-0.075927734375,1.0205078125,0.0610351525247097,-0.4272460639476776,0.1831054538488388
360404,0.0098876953125,-0.0716552734375,1.0220947265625,0.9155272841453552,-0.4882812201976776,0.1831054538488388
360423,0.0096435546875,-0.0771484375,1.0277099609375,1.8310545682907104,-0.6103515625,0.2441406100988388
360440,0.009765625,-0.0870361328125,1.0164794921875,2.38037109375,-0.6713866591453552,0.30517578125
360472,0.009033203125,-0.095458984375,1.0185546875,2.38037109375,-0.54931640625,0.2441406100988388
360494,0.0089111328125,-0.09375,1.019775390625,2.197265625,-0.4272460639476776,0.0610351525247097
360510,0.008056640625,-0.0870361328125,1.0228271484375,2.25830078125,-0.4882812201976776,0.1220703050494194
360522,0.0115966796875,-0.0806884765625,1.0247802734375,2.563476324081421,-0.6713866591453552,0.1831054538488388
360542,0.01123046875,-0.0897216796875,1.02392578125,2.929687261581421,-0.6713866591453552,0.3662109076976776
360559,0.0062255859375,-0.09912109375,1.02001953125,2.685546636581421,-0.4882812201976776,0.2441406100988388
360576,0.0059814453125,-0.1063232421875,1.019775390625,2.50244140625,-0.4272460639476776,0.2441406100988388
360592,0.0091552734375,-0.10009765625,1.0203857421875,2.0751953125,-0.54931640625,0.0
360612,0.0120849609375,-0.0916748046875,1.021728515625,2.197265625,-0.6103515625,0.1831054538488388
360628,0.0086669921875,-0.0870361328125,1.026611328125,2.3193359375,-0.6103515625,0.1220703050494194
360645,0.0086669921875,-0.0919189453125,1.024658203125,2.685546636581421,-0.6713866591453552,0.2441406100988388
360664,0.010009765625,-0.0933837890625,1.0206298828125,2.929687261581421,-0.7324218153953552,0.1220703050494194
360681,0.0079345703125,-0.0994873046875,1.0208740234375,3.112792730331421,-0.7934569716453552,0.2441406100988388
360714,0.0052490234375,-0.099609375,1.01953125,3.234863042831421,-0.7324218153953552,0.1831054538488388
360730,0.0068359375,-0.0989990234375,1.0233154296875,3.112792730331421,-0.6713866591453552,0.1220703050494194
360747,0.0091552734375,-0.1051025390625,1.0213623046875,2.990722417831421,-0.6713866591453552,0.1831054538488388
360768,0.010498046875,-0.1004638671875,1.019287109375,2.929687261581421,-0.7324218153953552,0.1831054538488388
360784,0.00634765625,-0.1065673828125,1.019775390625,2.868652105331421,-0.7324218153953552,0.1831054538488388
360801,0.00537109375,-0.0999755859375,1.021240234375,2.746581792831421,-0.6103515625,0.1220703050494194
360832,0.0068359375,-0.1025390625,1.0216064453125,2.868652105331421,-0.54931640625,0.2441406100988388
360848,0.0047607421875,-0.10791015625,1.022216796875,2.746581792831421,-0.4882812201976776,0.1220703050494194
360865,0.0069580078125,-0.103271484375,1.021728515625,2.685546636581421,-0.4882812201976776,0.1220703050494194
360897,0.0072021484375,-0.0997314453125,1.0233154296875,2.929687261581421,-0.6103515625,0.1831054538488388
360913,0.0059814453125,-0.104736328125,1.0198974609375,2.990722417831421,-0.6103515625,0.1831054538488388
360929,0.0068359375,-0.1070556640625,1.018798828125,2.990722417831421,-0.6103515625,0.1831054538488388
360946,0.007080078125,-0.1103515625,1.0206298828125,2.990722417831421,-0.6103515625,0.2441406100988388
360966,0.00732421875,-0.108154296875,1.024169921875,2.807616949081421,-0.6103515625,0.1831054538488388
360978,0.0030517578125,-0.11376953125,1.0181884765625,2.624511480331421,-0.6103515625,0.1220703050494194
360994,0.001708984375,-0.1138916015625,1.0185546875,2.44140625,-0.4882812201976776,0.1220703050494194
361011,0.0050048828125,-0.116455078125,1.0198974609375,2.13623046875,-0.4882812201976776,0.30517578125
361028,0.00732421875,-0.1175537109375,1.022216796875,1.5258787870407104,-0.4882812201976776,0.2441406100988388
361045,0.00634765625,-0.1197509765625,1.0196533203125,1.2817381620407104,-0.4882812201976776,0.30517578125
361061,0.001708984375,-0.11767578125,1.0194091796875,0.9155272841453552,-0.30517578125,0.2441406100988388
361130,0.0035400390625,-0.11181640625,1.0213623046875,0.0,-0.2441406100988388,0.1831054538488388
361149,0.0048828125,-0.110595703125,1.020263671875,-0.0610351525247097,-0.3662109076976776,0.3662109076976776
361166,0.0054931640625,-0.11279296875,1.0179443359375,-0.1831054538488388,-0.30517578125,0.3662109076976776
361187,0.005859375,-0.1171875,1.018798828125,-0.54931640625,-0.0610351525247097,0.3662109076976776
361203,0.004638671875,-0.1165771484375,1.018798828125,-1.03759765625,0.1220703050494194,0.3662109076976776
361252,0.007080078125,-0.1009521484375,1.0194091796875,-0.9155272841453552,-0.1220703050494194,0.2441406100988388
361268,0.006103515625,-0.1014404296875,1.0196533203125,-0.6713866591453552,-0.1220703050494194,0.30517578125
361285,0.0068359375,-0.1051025390625,1.0194091796875,-0.4272460639476776,-0.1220703050494194,0.4272460639476776
361317,0.00634765625,-0.10888671875,1.019775390625,-0.3662109076976776,-0.1220703050494194,0.2441406100988388
361334,0.0050048828125,-0.10302734375,1.0235595703125,-0.3662109076976776,-0.1831054538488388,0.1831054538488388
361350,0.0052490234375,-0.1055908203125,1.0198974609375,-0.30517578125,-0.2441406100988388,0.30517578125
361367,0.00634765625,-0.1051025390625,1.019287109375,-0.2441406100988388,-0.1831054538488388,0.30517578125
361386,0.0064697265625,-0.1043701171875,1.018798828125,-0.2441406100988388,-0.1831054538488388,0.3662109076976776
361403,0.0040283203125,-0.103759765625,1.022216796875,-0.1831054538488388,-0.1220703050494194,0.2441406100988388
361433,0.0078125,-0.09619140625,1.02001953125,0.2441406100988388,-0.1831054538488388,0.2441406100988388
361450,0.0072021484375,-0.0965576171875,1.021484375,0.7934569716453552,-0.30517578125,0.30517578125
361465,0.0068359375,-0.0947265625,1.02099609375,1.15966796875,-0.30517578125,0.2441406100988388
361482,0.0081787109375,-0.0941162109375,1.020263671875,1.5258787870407104,-0.30517578125,0.2441406100988388
361502,0.0079345703125,-0.09619140625,1.0208740234375,2.0751953125,-0.4882812201976776,0.30517578125
361519,0.0052490234375,-0.10400390625,1.020263671875,2.624511480331421,-0.54931640625,0.1220703050494194
361536,0.0068359375,-0.1024169921875,1.01904296875,2.746581792831421,-0.4882812201976776,0.1831054538488388
361553,0.0062255859375,-0.1043701171875,1.021484375,3.051757574081421,-0.54931640625,0.1831054538488388
361573,0.0037841796875,-0.105224609375,1.0203857421875,3.234863042831421,-0.6103515625,0.1831054538488388
361589,0.007080078125,-0.1083984375,1.0213623046875,3.173827886581421,-0.4882812201976776,0.1831054538488388
361606,0.0078125,-0.1075439453125,1.0205078125,3.173827886581421,-0.4882812201976776,0.1831054538488388
361625,0.00537109375,-0.112060546875,1.0203857421875,3.051757574081421,-0.4882812201976776,0.2441406100988388
361642,0.0048828125,-0.115966796875,1.02099609375,2.807616949081421,-0.3662109076976776,0.30517578125
361675,0.0052490234375,-0.1165771484375,1.021728515625,2.197265625,-0.4272460639476776,0.1220703050494194
361691,0.0062255859375,-0.114990234375,1.0185546875,2.01416015625,-0.4272460639476776,0.1831054538488388
361708,0.005859375,-0.1141357421875,1.0185546875,1.8920897245407104,-0.4882812201976776,0.2441406100988388
361728,0.0057373046875,-0.11767578125,1.0205078125,1.6479490995407104,-0.4272460639476776,0.2441406100988388
361740,0.005126953125,-0.1199951171875,1.018310546875,1.220703125,-0.3662109076976776,0.2441406100988388
361757,0.0042724609375,-0.120849609375,1.0185546875,1.03759765625,-0.3662109076976776,0.2441406100988388
361790,0.0047607421875,-0.1163330078125,1.0184326171875,0.2441406100988388,-0.1831054538488388,0.30517578125
361808,0.005615234375,-0.1156005859375,1.017578125,0.1220703050494194,-0.1220703050494194,0.30517578125
361828,0.00390625,-0.114990234375,1.0198974609375,-0.0610351525247097,-0.1220703050494194,0.3662109076976776
361844,0.0048828125,-0.1134033203125,1.0208740234375,-0.30517578125,-0.1220703050494194,0.30517578125
361864,0.0054931640625,-0.1141357421875,1.0216064453125,-0.54931640625,-0.1831054538488388,0.30517578125
361886,0.0054931640625,-0.1123046875,1.018798828125,-0.54931640625,-0.0610351525247097,0.30517578125
361902,0.0050048828125,-0.109619140625,1.0196533203125,-0.54931640625,-0.0610351525247097,0.30517578125
361919,0.0052490234375,-0.1116943359375,1.02001953125,-0.6713866591453552,0.0,0.30517578125
361969,0.0067138671875,-0.1080322265625,1.018798828125,-0.7934569716453552,-0.0610351525247097,0.30517578125
361988,0.0054931640625,-0.106689453125,1.019775390625,-0.7324218153953552,-0.0610351525247097,0.30517578125
362005,0.005859375,-0.1043701171875,1.0211181640625,-0.4882812201976776,-0.0610351525247097,0.30517578125
362026,0.0079345703125,-0.1038818359375,1.02197265625,-0.1831054538488388,-0.1220703050494194,0.2441406100988388
362045,0.0068359375,-0.098876953125,1.021484375,0.1220703050494194,-0.1220703050494194,0.2441406100988388
362056,0.0054931640625,-0.1004638671875,1.022216796875,0.6713866591453552,-0.30517578125,0.3662109076976776
362089,0.005126953125,-0.10791015625,1.0211181640625,1.220703125,-0.3662109076976776,0.30517578125
362154,0.0048828125,-0.106689453125,1.019287109375,0.9155272841453552,-0.2441406100988388,0.30517578125
362175,0.0057373046875,-0.1094970703125,1.021484375,0.9155272841453552,-0.30517578125,0.30517578125
362190,0.00634765625,-0.1116943359375,1.019775390625,0.8544921278953552,-0.30517578125,0.30517578125
362207,0.0067138671875,-0.1103515625,1.0191650390625,0.8544921278953552,-0.1831054538488388,0.2441406100988388
362226,0.0045166015625,-0.1092529296875,1.02001953125,0.8544921278953552,-0.1831054538488388,0.2441406100988388
362243,0.0052490234375,-0.109375,1.0213623046875,0.6713866591453552,-0.30517578125,0.1831054538488388
362276,0.005859375,-0.11181640625,1.019775390625,0.54931640625,-0.1831054538488388,0.2441406100988388
362292,0.0050048828125,-0.1099853515625,1.0203857421875,0.4272460639476776,-0.2441406100988388,0.2441406100988388
362308,0.005615234375,-0.1085205078125,1.0203857421875,0.4272460639476776,-0.1831054538488388,0.1831054538488388
362325,0.005615234375,-0.10888671875,1.0208740234375,0.4272460639476776,-0.1831054538488388,0.2441406100988388
362350,0.0057373046875,-0.110107421875,1.0211181640625,0.4272460639476776,-0.30517578125,0.3662109076976776
362366,0.0064697265625,-0.1092529296875,1.0203857421875,0.4272460639476776,-0.2441406100988388,0.30517578125
362383,0.0068359375,-0.105224609375,1.0218505859375,0.4272460639476776,-0.1831054538488388,0.2441406100988388
362401,0.005615234375,-0.105224609375,1.021728515625,0.6713866591453552,-0.2441406100988388,0.1831054538488388
362418,0.0048828125,-0.106201171875,1.018798828125,0.7934569716453552,-0.2441406100988388,0.30517578125
362451,0.0069580078125,-0.1109619140625,1.0213623046875,0.8544921278953552,-0.1831054538488388,0.30517578125
362467,0.0047607421875,-0.1097412109375,1.0203857421875,0.6713866591453552,-0.2441406100988388,0.30517578125
362505,0.0050048828125,-0.109619140625,1.0196533203125,0.6713866591453552,-0.1220703050494194,0.3662109076976776
362523,0.0079345703125,-0.10693359375,1.0181884765625,0.7324218153953552,0.0,0.30517578125
362539,0.0054931640625,-0.10546875,1.0201416015625,0.8544921278953552,0.1220703050494194,0.30517578125
362572,0.0079345703125,-0.1085205078125,1.02294921875,1.0986328125,0.0610351525247097,0.3662109076976776
362589,0.006103515625,-0.111328125,1.0216064453125,1.03759765625,-0.30517578125,0.3662109076976776
362605,0.0029296875,-0.1168212890625,1.01513671875,0.6103515625,-0.3662109076976776,0.30517578125
362641,0.009033203125,-0.11474609375,1.0196533203125,-0.1220703050494194,-0.0610351525247097,0.30517578125
362657,0.00634765625,-0.1109619140625,1.023193359375,-0.30517578125,0.0,0.2441406100988388
362674,0.0035400390625,-0.1083984375,1.0218505859375,-0.4882812201976776,-0.0610351525247097,0.2441406100988388
362691,0.005126953125,-0.10986328125,1.020751953125,-0.6103515625,-0.1831054538488388,0.30517578125
362707,0.0072021484375,-0.1104736328125,1.0174560546875,-0.6103515625,-0.1831054538488388,0.30517578125
362723,0.00732421875,-0.104248046875,1.0155029296875,-0.6103515625,0.2441406100988388,0.30517578125
362754,0.007568359375,-0.1046142578125,1.0223388671875,-0.3662109076976776,0.3662109076976776,0.3662109076976776
362775,0.0078125,-0.1046142578125,1.0220947265625,-0.30517578125,0.4882812201976776,0.3662109076976776
362791,0.005859375,-0.1080322265625,1.024169921875,-0.2441406100988388,0.4272460639476776,0.30517578125
362808,0.0048828125,-0.103515625,1.020263671875,-0.2441406100988388,0.1831054538488388,0.30517578125
362827,0.0087890625,-0.1102294921875,1.0184326171875,-0.2441406100988388,-0.0610351525247097,0.3662109076976776
362844,0.0133056640625,-0.1092529296875,1.0250244140625,-0.8544921278953552,0.1831054538488388,0.4272460639476776
362877,0.0045166015625,-0.1142578125,1.019775390625,-1.9531248807907104,0.30517578125,0.3662109076976776
362926,0.0047607421875,-0.106201171875,1.0206298828125,-3.173827886581421,0.4272460639476776,0.30517578125
362946,0.0048828125,-0.102783203125,1.020263671875,-3.540038824081421,0.4882812201976776,0.4272460639476776
362963,0.009765625,-0.106689453125,1.0208740234375,-3.967284917831421,0.6103515625,0.54931640625
362996,0.008056640625,-0.10302734375,1.0234375,-5.187987804412842,0.9155272841453552,0.54931640625
363012,0.00732421875,-0.09912109375,1.0213623046875,-5.371093273162842,0.9155272841453552,0.6103515625
363028,0.009033203125,-0.1005859375,1.0205078125,-5.737304210662842,1.2817381620407104,0.54931640625
363045,0.0118408203125,-0.0855712890625,1.01904296875,-5.737304210662842,1.5258787870407104,0.6103515625
363068,0.007568359375,-0.084716796875,1.0181884765625,-5.615233898162842,1.8310545682907104,0.4272460639476776
363085,0.008544921875,-0.0853271484375,1.0277099609375,-5.493163585662842,2.44140625,0.6103515625
363097,0.0115966796875,-0.0914306640625,1.030029296875,-5.615233898162842,2.990722417831421,0.8544921278953552
363114,0.0128173828125,-0.0953369140625,1.03125,-5.981444835662842,2.929687261581421,0.9765624403953552
363130,0.0040283203125,-0.121826171875,1.0296630859375,-7.690429210662842,3.112792730331421,0.6713866591453552
363147,0.0162353515625,-0.1031494140625,1.0718994140625,-9.58251953125,3.967284917831421,0.6103515625
363183,0.0513916015625,-0.1072998046875,1.2435302734375,-10.986327171325684,2.13623046875,0.4272460639476776
363204,0.048828125,-0.1104736328125,1.296142578125,-11.779784202575684,2.25830078125,0.1220703050494194
363220,0.0474853515625,-0.0904541015625,1.332275390625,-11.779784202575684,2.13623046875,0.0
363235,0.04296875,-0.0787353515625,1.35595703125,-11.779784202575684,2.01416015625,-0.1220703050494194
363251,0.03955078125,-0.06494140625,1.3565673828125,-11.962889671325684,1.5869139432907104,-0.30517578125
363268,0.0345458984375,-0.0521240234375,1.35009765625,-10.986327171325684,1.5869139432907104,-0.30517578125
363285,0.0389404296875,-0.0389404296875,1.390380859375,-10.559081077575684,1.5869139432907104,-0.30517578125
363310,0.0406494140625,-0.03662109375,1.4066162109375,-9.1552734375,0.8544921278953552,-0.3662109076976776
363326,0.0408935546875,-0.0374755859375,1.4052734375,-7.751464366912842,0.2441406100988388,-0.4272460639476776
363343,0.0419921875,-0.029541015625,1.410888671875,-6.286620616912842,-0.1220703050494194,-0.6103515625
363362,0.045166015625,-0.010498046875,1.4354248046875,-4.21142578125,-0.7934569716453552,-0.7324218153953552
363378,0.0433349609375,0.003173828125,1.42919921875,-3.234863042831421,-1.4648436307907104,-0.7324218153953552
363412,0.0302734375,-0.0015869140625,1.3575439453125,-0.0610351525247097,-2.624511480331421,-0.6103515625
363428,0.026611328125,-0.00537109375,1.3515625,0.9155272841453552,-2.746581792831421,-0.7324218153953552
363444,0.0235595703125,-0.003173828125,1.3397216796875,1.15966796875,-2.868652105331421,-0.7934569716453552
363460,0.018798828125,-0.0030517578125,1.314453125,1.3427733182907104,-2.807616949081421,-0.7324218153953552
363481,0.016357421875,-0.00341796875,1.2862548828125,1.4038084745407104,-2.624511480331421,-0.7934569716453552
363498,0.0159912109375,-0.0023193359375,1.250732421875,1.15966796875,-2.563476324081421,-0.7934569716453552
363514,0.014404296875,-0.0029296875,1.2303466796875,0.6103515625,-2.0751953125,-0.6713866591453552
363531,0.0145263671875,-0.0064697265625,1.2178955078125,-0.3662109076976776,-1.8310545682907104,-0.6103515625
363548,0.0145263671875,-0.009033203125,1.1895751953125,-1.2817381620407104,-1.7700194120407104,-0.3662109076976776
363565,0.01318359375,-0.0137939453125,1.1673583984375,-1.8310545682907104,-1.5869139432907104,-0.30517578125
363585,0.0137939453125,-0.0260009765625,1.1378173828125,-3.173827886581421,-1.5869139432907104,-0.30517578125
363603,0.009033203125,-0.02587890625,1.0770263671875,-4.0283203125,-0.9765624403953552,-0.30517578125
363619,0.0076904296875,-0.0244140625,1.0845947265625,-4.2724609375,-0.54931640625,-0.30517578125
363652,0.0030517578125,-0.0174560546875,1.091552734375,-3.662109136581421,-1.15966796875,-0.30517578125
363669,-0.0025634765625,-0.017822265625,1.024658203125,-2.807616949081421,-1.4648436307907104,-0.3662109076976776
363688,-0.0020751953125,-0.0185546875,0.99609375,-2.44140625,-1.6479490995407104,-0.3662109076976776
363704,-0.0042724609375,-0.0206298828125,0.905517578125,-1.7700194120407104,-1.8310545682907104,-0.30517578125
363718,-0.006591796875,-0.0252685546875,0.8408203125,-1.5869139432907104,-1.5869139432907104,-0.1831054538488388
363735,-0.0096435546875,-0.02978515625,0.8104248046875,-1.6479490995407104,-1.4648436307907104,-0.1831054538488388
363768,-0.016357421875,-0.028564453125,0.7335205078125,-0.6713866591453552,-0.9155272841453552,-0.30517578125
363787,-0.0137939453125,-0.021240234375,0.710205078125,0.54931640625,-0.9155272841453552,-0.4272460639476776
363803,-0.0140380859375,-0.02099609375,0.6832275390625,1.0986328125,-0.9765624403953552,-0.3662109076976776
363840,-0.0126953125,-0.0166015625,0.6038818359375,2.38037109375,-0.7934569716453552,-0.3662109076976776
363856,-0.0211181640625,-0.0382080078125,0.52783203125,3.112792730331421,-0.3662109076976776,-0.30517578125
363873,-0.0213623046875,-0.05810546875,0.491943359375,3.295898199081421,0.3662109076976776,-0.4272460639476776
363889,-0.01513671875,-0.06689453125,0.5040283203125,3.295898199081421,0.6713866591453552,-0.54931640625
363906,-0.0103759765625,-0.0648193359375,0.5164794921875,3.417968511581421,0.9155272841453552,-0.7324218153953552
363956,-0.0047607421875,-0.08251953125,0.5252685546875,3.784179449081421,0.6713866591453552,-0.6713866591453552
363972,-0.012451171875,-0.094970703125,0.5302734375,3.356933355331421,1.7089842557907104,-0.8544921278953552
363989,-0.007568359375,-0.090087890625,0.6148681640625,3.051757574081421,2.25830078125,-1.03759765625
364006,-0.0015869140625,-0.075927734375,0.66845703125,2.746581792831421,2.685546636581421,-1.220703125
364075,0.033203125,-0.0076904296875,0.99169921875,6.469726085662842,1.5869139432907104,-0.7934569716453552
364095,0.036865234375,-0.0079345703125,1.065185546875,8.4228515625,0.7324218153953552,-0.6713866591453552
364111,0.0406494140625,-0.005615234375,1.110595703125,9.46044921875,0.30517578125,-0.6103515625
364128,0.0460205078125,-0.0037841796875,1.1361083984375,11.718749046325684,-0.4882812201976776,-0.6103515625
364145,0.052490234375,0.0010986328125,1.154296875,14.099120140075684,-1.7089842557907104,-0.4272460639476776
364162,0.0535888671875,-0.01171875,1.1488037109375,16.11328125,-3.051757574081421,-0.1831054538488388
364195,0.0389404296875,-0.0469970703125,1.030517578125,17.333984375,-4.08935546875,0.0
364212,0.0341796875,-0.0655517578125,0.9776611328125,17.15087890625,-4.08935546875,0.1220703050494194
364233,0.030517578125,-0.0816650390625,0.9696044921875,16.4794921875,-3.967284917831421,0.0
364250,0.0316162109375,-0.0794677734375,0.991943359375,16.05224609375,-4.08935546875,0.0
364267,0.028564453125,-0.0784912109375,0.9935302734375,15.380858421325684,-4.5166015625,0.2441406100988388
364283,0.0216064453125,-0.0789794921875,1.0037841796875,14.587401390075684,-4.69970703125,0.4272460639476776
364317,0.01513671875,-0.08642578125,1.0086669921875,13.305663108825684,-4.82177734375,0.6103515625
364334,0.0084228515625,-0.0863037109375,0.985595703125,12.268065452575684,-4.638671875,0.6103515625
364355,0.0059814453125,-0.0845947265625,0.9818115234375,11.047362327575684,-4.150390625,0.7934569716453552
364371,0.005859375,-0.0870361328125,0.9947509765625,10.375975608825684,-3.845214605331421,0.8544921278953552
364388,0.005126953125,-0.0849609375,1.0050048828125,9.1552734375,-3.417968511581421,0.8544921278953552
364405,0.0029296875,-0.0826416015625,1.01416015625,7.751464366912842,-3.173827886581421,0.9765624403953552
364441,-0.0047607421875,-0.0936279296875,1.0091552734375,5.065917491912842,-2.0751953125,1.2817381620407104
364458,-0.0064697265625,-0.096435546875,1.0130615234375,4.33349609375,-1.8310545682907104,1.3427733182907104
364490,-0.0103759765625,-0.115966796875,0.9908447265625,1.8310545682907104,-1.0986328125,1.5258787870407104
364507,-0.0101318359375,-0.119384765625,0.9805908203125,0.0,-0.4272460639476776,1.5258787870407104
364524,-0.0103759765625,-0.12158203125,0.9637451171875,-0.9765624403953552,-0.1220703050494194,1.6479490995407104
364557,-0.010009765625,-0.134521484375,0.957275390625,-4.94384765625,1.4648436307907104,1.8310545682907104
364574,-0.0050048828125,-0.13818359375,0.9925537109375,-6.835937023162842,2.0751953125,1.7700194120407104
364591,-0.00244140625,-0.1317138671875,1.01318359375,-8.36181640625,2.197265625,1.8920897245407104
364612,-0.002197265625,-0.133056640625,1.02099609375,-9.033203125,2.25830078125,1.8310545682907104
364629,-0.000732421875,-0.1298828125,1.029052734375,-10.314940452575684,2.3193359375,1.8920897245407104
364646,0.00341796875,-0.132568359375,1.0269775390625,-11.535643577575684,2.44140625,1.8310545682907104
364662,0.0052490234375,-0.130126953125,1.020263671875,-12.207030296325684,2.50244140625,1.8920897245407104
364682,0.0052490234375,-0.1248779296875,1.0213623046875,-13.610838890075684,2.746581792831421,1.8310545682907104
364698,0.005615234375,-0.115478515625,1.034912109375,-13.977049827575684,2.807616949081421,1.8310545682907104
364718,0.00634765625,-0.109375,1.0352783203125,-14.404295921325684,2.624511480331421,1.8920897245407104
364735,0.0074462890625,-0.1031494140625,1.0218505859375,-14.587401390075684,2.50244140625,1.8920897245407104
364751,0.0059814453125,-0.09912109375,0.9989013671875,-14.709471702575684,2.38037109375,2.01416015625
364768,0.00537109375,-0.0997314453125,0.9866943359375,-14.770506858825684,2.38037109375,2.01416015625
364784,0.0067138671875,-0.093505859375,0.96337890625,-14.770506858825684,2.44140625,1.9531248807907104
364801,0.00830078125,-0.0882568359375,0.9490966796875,-14.526366233825684,2.38037109375,1.8310545682907104
364818,0.009033203125,-0.08203125,0.9422607421875,-14.282225608825684,2.3193359375,1.8310545682907104
364834,0.0103759765625,-0.0716552734375,0.92236328125,-13.671874046325684,2.13623046875,1.8310545682907104
364851,0.010986328125,-0.0655517578125,0.895263671875,-13.061522483825684,1.9531248807907104,1.8310545682907104
364873,0.010498046875,-0.0660400390625,0.8826904296875,-12.695311546325684,1.9531248807907104,1.7700194120407104
364889,0.010986328125,-0.0633544921875,0.8751220703125,-11.962889671325684,2.01416015625,1.6479490995407104
364906,0.0096435546875,-0.0574951171875,0.88330078125,-10.986327171325684,2.0751953125,1.5258787870407104
364925,0.008544921875,-0.0457763671875,0.9039306640625,-10.375975608825684,2.01416015625,1.4648436307907104
364941,0.009521484375,-0.029541015625,0.910888671875,-8.72802734375,1.8920897245407104,1.3427733182907104
364975,0.0177001953125,-0.018798828125,0.9207763671875,-5.249022960662842,1.7700194120407104,0.9765624403953552
364991,0.023681640625,-0.009765625,0.9569091796875,-4.33349609375,1.6479490995407104,0.9155272841453552
365007,0.027099609375,-0.0057373046875,0.9698486328125,-2.563476324081421,0.9765624403953552,0.9155272841453552
365024,0.0257568359375,-0.001953125,0.9371337890625,-1.8310545682907104,0.4882812201976776,0.9155272841453552
365043,0.0205078125,-0.0078125,0.8883056640625,-0.8544921278953552,-0.1831054538488388,1.03759765625
365060,0.0096435546875,-0.025146484375,0.8162841796875,-0.7934569716453552,0.6713866591453552,0.9765624403953552
365093,0.01513671875,-0.0244140625,0.8953857421875,-1.15966796875,1.4648436307907104,0.4272460639476776
365109,0.015380859375,-0.0137939453125,0.8974609375,-0.9155272841453552,1.3427733182907104,0.3662109076976776
365126,0.0159912109375,-0.0003662109375,0.8797607421875,-0.3662109076976776,0.9155272841453552,0.4272460639476776
365147,0.0096435546875,-0.0052490234375,0.816162109375,-0.2441406100988388,1.4038084745407104,0.4272460639476776
365166,0.012451171875,-0.01025390625,0.8428955078125,-0.30517578125,2.0751953125,0.4272460639476776
365182,0.0206298828125,-0.0067138671875,0.9659423828125,-0.4882812201976776,2.929687261581421,0.3662109076976776
365215,0.028076171875,0.0111083984375,1.040771484375,0.7324218153953552,1.3427733182907104,0.3662109076976776
365232,0.010986328125,-0.0048828125,0.871826171875,1.8310545682907104,-0.0610351525247097,0.54931640625
365249,0.004150390625,-0.0147705078125,0.807373046875,1.6479490995407104,0.9155272841453552,0.4882812201976776
365265,0.0087890625,-0.022705078125,0.83203125,0.9765624403953552,2.929687261581421,0.4882812201976776
365340,0.0361328125,-0.0103759765625,0.9376220703125,0.6713866591453552,0.9155272841453552,0.3662109076976776
365357,0.0267333984375,-0.0091552734375,0.889404296875,0.54931640625,1.6479490995407104,0.3662109076976776
365373,0.0301513671875,-0.0113525390625,0.968994140625,0.1831054538488388,2.990722417831421,0.3662109076976776
365390,0.031494140625,-0.0068359375,1.011474609375,0.0,3.112792730331421,0.30517578125
365408,0.0401611328125,0.0013427734375,1.110595703125,0.1831054538488388,2.13623046875,0.3662109076976776
365424,0.03857421875,0.015625,1.0919189453125,0.54931640625,0.4882812201976776,0.4272460639476776
365462,0.0277099609375,0.0201416015625,0.958984375,0.4882812201976776,0.6103515625,0.9155272841453552
365478,0.028076171875,0.0079345703125,0.969970703125,-0.1220703050494194,1.3427733182907104,1.0986328125
365495,0.0279541015625,-0.0020751953125,1.0238037109375,-0.4882812201976776,1.4648436307907104,1.0986328125
365512,0.0272216796875,-0.0057373046875,1.048095703125,-0.9765624403953552,1.3427733182907104,1.0986328125
365528,0.0330810546875,-0.008544921875,1.0833740234375,-1.5258787870407104,0.4882812201976776,1.03759765625
365545,0.0296630859375,-0.01611328125,1.0286865234375,-2.0751953125,0.2441406100988388,1.03759765625
365579,0.034423828125,-0.016845703125,1.041748046875,-2.746581792831421,1.7700194120407104,0.8544921278953552
365595,0.0469970703125,-0.0068359375,1.14794921875,-2.624511480331421,1.9531248807907104,0.7934569716453552
365612,0.0509033203125,-0.00537109375,1.1895751953125,-1.8920897245407104,1.0986328125,0.7934569716453552
365629,0.048583984375,0.001708984375,1.16455078125,-1.03759765625,-0.2441406100988388,0.7324218153953552
365646,0.0380859375,0.001708984375,1.079833984375,-0.6713866591453552,-0.3662109076976776,0.7324218153953552
365662,0.0316162109375,0.0064697265625,1.04443359375,-0.3662109076976776,0.30517578125,0.6713866591453552
365695,0.0347900390625,0.0067138671875,1.0992431640625,-0.3662109076976776,1.4038084745407104,0.8544921278953552
365714,0.034912109375,0.001220703125,1.115234375,-0.1220703050494194,1.4648436307907104,0.7934569716453552
365730,0.038818359375,-0.000244140625,1.15087890625,0.4882812201976776,1.220703125,0.54931640625
365747,0.037353515625,-0.0087890625,1.1435546875,0.9155272841453552,1.03759765625,0.4882812201976776
365766,0.0362548828125,-0.0023193359375,1.10791015625,1.6479490995407104,0.9155272841453552,0.30517578125
365783,0.0394287109375,-0.0030517578125,1.1082763671875,2.197265625,1.220703125,0.30517578125
365815,0.0528564453125,-0.023193359375,1.150390625,2.563476324081421,0.9765624403953552,0.4882812201976776
365831,0.0595703125,-0.02392578125,1.1593017578125,2.50244140625,0.54931640625,0.6103515625
365847,0.061767578125,-0.0391845703125,1.1434326171875,2.3193359375,-0.0610351525247097,0.54931640625
365887,0.058349609375,-0.0335693359375,1.1173095703125,1.2817381620407104,-1.0986328125,0.3662109076976776
365903,0.0565185546875,-0.0323486328125,1.09521484375,0.9765624403953552,-1.0986328125,0.4272460639476776
365920,0.0557861328125,-0.03466796875,1.0819091796875,0.1831054538488388,-1.03759765625,0.4272460639476776
365939,0.05322265625,-0.03759765625,1.0924072265625,-0.6103515625,-1.220703125,0.4882812201976776
365956,0.04541015625,-0.0340576171875,1.1024169921875,-1.220703125,-1.4648436307907104,0.30517578125
365989,0.03857421875,-0.0140380859375,1.1102294921875,-0.9155272841453552,-1.5258787870407104,0.30517578125
366008,0.031494140625,-0.0159912109375,1.1038818359375,-0.4882812201976776,-1.5258787870407104,0.4272460639476776
366029,0.0233154296875,-0.0245361328125,1.0980224609375,-0.3662109076976776,-1.3427733182907104,0.4272460639476776
366045,0.018310546875,-0.0245361328125,1.111328125,-0.1831054538488388,-0.9765624403953552,0.4272460639476776
366064,0.02001953125,-0.0166015625,1.119384765625,0.1220703050494194,-0.7324218153953552,0.30517578125
366081,0.0234375,-0.0059814453125,1.1175537109375,0.6103515625,-0.7934569716453552,0.4882812201976776
366114,0.02587890625,-0.0107421875,1.0916748046875,1.15966796875,-0.6103515625,0.7934569716453552
366131,0.0272216796875,-0.011962890625,1.100830078125,1.220703125,-0.4272460639476776,0.9155272841453552
366147,0.02587890625,-0.0159912109375,1.1014404296875,1.15966796875,-0.4882812201976776,1.03759765625
366168,0.0242919921875,-0.0146484375,1.0953369140625,1.0986328125,-0.4882812201976776,1.03759765625
366180,0.023193359375,-0.0162353515625,1.048095703125,1.0986328125,-0.4882812201976776,1.220703125
366196,0.0242919921875,-0.017822265625,1.049072265625,1.0986328125,-0.2441406100988388,1.2817381620407104
366229,0.0306396484375,-0.0147705078125,1.08740234375,0.8544921278953552,-0.2441406100988388,1.3427733182907104
366248,0.03125,-0.010009765625,1.068115234375,0.9155272841453552,-0.3662109076976776,1.4038084745407104
366265,0.0350341796875,-0.0084228515625,1.0601806640625,1.0986328125,-0.4272460639476776,1.4038084745407104
366286,0.0362548828125,-0.013671875,1.060302734375,1.3427733182907104,-0.3662109076976776,1.5258787870407104
366304,0.04150390625,-0.019287109375,1.0872802734375,1.5869139432907104,-0.4882812201976776,1.4648436307907104
366320,0.0440673828125,-0.01513671875,1.0938720703125,1.8310545682907104,-1.220703125,1.3427733182907104
366353,0.0450439453125,-0.0048828125,1.0601806640625,2.563476324081421,-1.2817381620407104,1.2817381620407104
366369,0.0548095703125,-0.000732421875,1.1077880859375,2.44140625,-1.4038084745407104,1.4038084745407104
366386,0.1741943359375,0.0546875,1.8145751953125,-5.065917491912842,-5.432128429412842,2.25830078125
366422,0.0101318359375,-0.0509033203125,0.8079833984375,-7.629394054412842,-8.544921875,2.868652105331421
366438,0.0240478515625,-0.0140380859375,0.9442138671875,-8.4228515625,-7.141112804412842,2.563476324081421
366455,0.0255126953125,0.0029296875,0.99609375,-9.27734375,-7.080077648162842,2.685546636581421
366472,0.0177001953125,-0.005126953125,1.0078125,-9.46044921875,-7.141112804412842,2.50244140625
366488,-0.0479736328125,-0.0452880859375,0.8074951171875,-10.314940452575684,-5.615233898162842,2.44140625
366505,-0.0189208984375,-0.0087890625,0.749267578125,-18.73779296875,3.417968511581421,1.4648436307907104
366537,0.0194091796875,-0.0006103515625,0.8792724609375,-18.1884765625,6.530761241912842,1.4038084745407104
366553,0.01611328125,-0.001220703125,0.8876953125,-18.37158203125,6.652831554412842,1.220703125
366570,0.085205078125,0.0081787109375,1.7530517578125,-12.756346702575684,1.4648436307907104,0.4882812201976776
366591,0.06640625,0.0169677734375,1.143310546875,-11.657713890075684,-4.0283203125,0.30517578125
366608,-0.0013427734375,0.0396728515625,0.5693359375,-12.268065452575684,-3.051757574081421,0.4272460639476776
366625,0.002685546875,0.0377197265625,0.7828369140625,-11.169432640075684,-0.2441406100988388,0.4882812201976776
366659,0.0418701171875,0.0523681640625,0.99951171875,-9.58251953125,0.0,0.8544921278953552
366708,0.0174560546875,0.0667724609375,1.0433349609375,-8.1787109375,-0.30517578125,0.54931640625
366730,0.0250244140625,0.078125,0.97900390625,-7.690429210662842,0.0610351525247097,0.4272460639476776
366742,0.035888671875,0.0860595703125,1.052490234375,-6.225585460662842,0.1831054538488388,0.54931640625
366775,0.0361328125,0.084228515625,1.00927734375,-3.906249761581421,-0.1831054538488388,0.6103515625
366792,0.0247802734375,0.075927734375,1.0203857421875,-2.685546636581421,-0.30517578125,0.4272460639476776
366809,0.0272216796875,0.0799560546875,1.020751953125,-1.5258787870407104,-0.3662109076976776,0.3662109076976776
366829,0.03173828125,0.08349609375,1.028564453125,-0.9155272841453552,-0.4882812201976776,0.3662109076976776
366841,0.0352783203125,0.082275390625,1.0133056640625,0.3662109076976776,-0.9765624403953552,0.4272460639476776
366858,0.03076171875,0.078369140625,1.0230712890625,0.9765624403953552,-0.9765624403953552,0.3662109076976776
366891,0.02978515625,0.0784912109375,1.0224609375,2.868652105331421,-0.9765624403953552,0.30517578125
366908,0.0289306640625,0.0714111328125,1.0213623046875,3.540038824081421,-0.8544921278953552,0.30517578125
366924,0.029052734375,0.0675048828125,1.020751953125,3.723144292831421,-0.9155272841453552,0.3662109076976776
366960,0.0234375,0.047607421875,1.0234375,3.112792730331421,-0.7934569716453552,0.30517578125
366976,0.021728515625,0.0458984375,1.0208740234375,2.25830078125,-0.54931640625,0.1831054538488388
366993,0.0225830078125,0.0557861328125,1.027099609375,1.6479490995407104,-0.54931640625,0.1220703050494194
367009,0.02978515625,0.0594482421875,1.0205078125,1.4648436307907104,-0.54931640625,0.1220703050494194
367028,0.0325927734375,0.0672607421875,1.026123046875,1.6479490995407104,-0.6103515625,0.1831054538488388
367045,0.0301513671875,0.06494140625,1.029296875,1.7700194120407104,-0.6713866591453552,0.30517578125
367083,0.0234375,0.037841796875,1.0252685546875,0.9765624403953552,-0.30517578125,0.30517578125
367099,0.0289306640625,0.037841796875,1.0233154296875,0.30517578125,-0.1220703050494194,0.2441406100988388
367116,0.0269775390625,0.0391845703125,1.0216064453125,-1.15966796875,0.1220703050494194,0.2441406100988388
367133,0.0233154296875,0.045166015625,1.02734375,-1.8310545682907104,0.2441406100988388,0.30517578125
367149,0.0257568359375,0.055419921875,1.0252685546875,-2.807616949081421,0.2441406100988388,0.2441406100988388
367166,0.0279541015625,0.0631103515625,1.02294921875,-3.112792730331421,0.1220703050494194,0.2441406100988388
367203,0.027099609375,0.071044921875,1.0203857421875,-2.25830078125,-0.0610351525247097,0.3662109076976776
367225,0.02685546875,0.064208984375,1.0242919921875,-1.8920897245407104,-0.1220703050494194,0.3662109076976776
367241,0.0284423828125,0.066162109375,1.0238037109375,-1.8920897245407104,0.0,0.30517578125
367257,0.028076171875,0.068359375,1.0223388671875,-1.7089842557907104,0.0610351525247097,0.30517578125
367273,0.0281982421875,0.0771484375,1.0240478515625,-1.5869139432907104,0.0,0.2441406100988388
367290,0.0303955078125,0.083251953125,1.02587890625,-0.30517578125,-0.1831054538488388,0.2441406100988388
367307,0.03125,0.0865478515625,1.023681640625,0.2441406100988388,-0.3662109076976776,0.3662109076976776
367326,0.029296875,0.0814208984375,1.022216796875,1.3427733182907104,-0.6103515625,0.3662109076976776
367345,0.02587890625,0.07421875,1.0213623046875,2.13623046875,-0.4882812201976776,0.2441406100988388
