tMillis,ax,ay,az,gx,gy,gz
572512,-0.020263671875,-0.76904296875,0.6629638671875,0.6713866591453552,-0.2441406100988388,0.30517578125
572528,-0.01953125,-0.7691650390625,0.663818359375,0.6103515625,-0.1831054538488388,0.30517578125
572548,-0.01904296875,-0.7672119140625,0.6610107421875,0.6103515625,-0.2441406100988388,0.30517578125
572567,-0.0213623046875,-0.7667236328125,0.659912109375,0.7324218153953552,-0.3662109076976776,0.3662109076976776
572591,-0.0206298828125,-0.767822265625,0.6610107421875,0.7324218153953552,-0.30517578125,0.30517578125
572608,-0.01904296875,-0.7674560546875,0.6602783203125,0.7324218153953552,-0.2441406100988388,0.30517578125
572625,-0.0208740234375,-0.767578125,0.6602783203125,0.7324218153953552,-0.2441406100988388,0.30517578125
572644,-0.0201416015625,-0.7679443359375,0.66064453125,0.6713866591453552,-0.2441406100988388,0.2441406100988388
572663,-0.019287109375,-0.7691650390625,0.6611328125,0.6713866591453552,-0.2441406100988388,0.30517578125
572680,-0.02001953125,-0.767822265625,0.658447265625,0.6713866591453552,-0.2441406100988388,0.3662109076976776
572702,-0.0208740234375,-0.7684326171875,0.6590576171875,0.6713866591453552,-0.30517578125,0.30517578125
572719,-0.0198974609375,-0.7684326171875,0.6614990234375,0.6713866591453552,-0.2441406100988388,0.30517578125
572731,-0.018798828125,-0.7669677734375,0.661376953125,0.6713866591453552,-0.2441406100988388,0.30517578125
572747,-0.0194091796875,-0.766845703125,0.66064453125,0.6713866591453552,-0.2441406100988388,0.30517578125
572762,-0.0194091796875,-0.767333984375,0.660888671875,0.6713866591453552,-0.30517578125,0.30517578125
572779,-0.019775390625,-0.766357421875,0.660400390625,0.7324218153953552,-0.30517578125,0.2441406100988388
572795,-0.02001953125,-0.767578125,0.6617431640625,0.6713866591453552,-0.2441406100988388,0.2441406100988388
572811,-0.0203857421875,-0.7669677734375,0.66064453125,0.6713866591453552,-0.2441406100988388,0.30517578125
572836,-0.0201416015625,-0.768310546875,0.660400390625,0.6713866591453552,-0.2441406100988388,0.2441406100988388
572853,-0.0184326171875,-0.7681884765625,0.6590576171875,0.7324218153953552,-0.2441406100988388,0.30517578125
572872,-0.0194091796875,-0.767578125,0.658203125,0.7324218153953552,-0.2441406100988388,0.30517578125
572888,-0.02099609375,-0.767333984375,0.65966796875,0.6713866591453552,-0.1831054538488388,0.2441406100988388
572903,-0.01953125,-0.76806640625,0.660400390625,0.6713866591453552,-0.2441406100988388,0.3662109076976776
572921,-0.0205078125,-0.7679443359375,0.660400390625,0.7324218153953552,-0.2441406100988388,0.3662109076976776
572942,-0.0206298828125,-0.7674560546875,0.6605224609375,0.7324218153953552,-0.2441406100988388,0.30517578125
572960,-0.020263671875,-0.7672119140625,0.660888671875,0.6713866591453552,-0.2441406100988388,0.30517578125
572978,-0.0194091796875,-0.76611328125,0.6607666015625,0.7324218153953552,-0.2441406100988388,0.30517578125
572996,-0.0194091796875,-0.76708984375,0.661376953125,0.6713866591453552,-0.2441406100988388,0.30517578125
573015,-0.01953125,-0.766357421875,0.65966796875,0.6713866591453552,-0.1831054538488388,0.3662109076976776
573033,-0.019287109375,-0.7685546875,0.6605224609375,0.6713866591453552,-0.30517578125,0.30517578125
573056,-0.0205078125,-0.7686767578125,0.66015625,0.6713866591453552,-0.30517578125,0.30517578125
573072,-0.0198974609375,-0.7674560546875,0.66064453125,0.6713866591453552,-0.30517578125,0.30517578125
573091,-0.0194091796875,-0.7677001953125,0.6611328125,0.6713866591453552,-0.30517578125,0.30517578125
573110,-0.01953125,-0.76708984375,0.6602783203125,0.7324218153953552,-0.30517578125,0.3662109076976776
573129,-0.020263671875,-0.7672119140625,0.6595458984375,0.6713866591453552,-0.2441406100988388,0.30517578125
573148,-0.0196533203125,-0.7679443359375,0.6602783203125,0.6713866591453552,-0.2441406100988388,0.30517578125
573167,-0.019287109375,-0.766845703125,0.6611328125,0.6713866591453552,-0.30517578125,0.30517578125
573186,-0.0198974609375,-0.767333984375,0.662109375,0.7324218153953552,-0.30517578125,0.3662109076976776
573198,-0.019287109375,-0.76806640625,0.65966796875,0.7324218153953552,-0.30517578125,0.30517578125
573215,-0.018798828125,-0.7686767578125,0.6600341796875,0.7324218153953552,-0.30517578125,0.30517578125
573231,-0.0184326171875,-0.768798828125,0.6612548828125,0.6713866591453552,-0.2441406100988388,0.30517578125
573248,-0.019287109375,-0.767822265625,0.6610107421875,0.7324218153953552,-0.30517578125,0.2441406100988388
573265,-0.020263671875,-0.7672119140625,0.659912109375,0.7324218153953552,-0.30517578125,0.30517578125
573284,-0.0203857421875,-0.7694091796875,0.661376953125,0.7324218153953552,-0.30517578125,0.30517578125
573300,-0.019775390625,-0.76806640625,0.658935546875,0.7324218153953552,-0.30517578125,0.30517578125
573317,-0.0205078125,-0.767578125,0.6595458984375,0.6713866591453552,-0.2441406100988388,0.2441406100988388
573333,-0.0196533203125,-0.767578125,0.6610107421875,0.7324218153953552,-0.2441406100988388,0.30517578125
573387,-0.019287109375,-0.7672119140625,0.6602783203125,0.7324218153953552,-0.1831054538488388,0.30517578125
573404,-0.0194091796875,-0.7677001953125,0.659912109375,0.7324218153953552,-0.2441406100988388,0.30517578125
573444,-0.0196533203125,-0.7667236328125,0.6612548828125,0.7324218153953552,-0.2441406100988388,0.30517578125
573464,-0.01953125,-0.76708984375,0.66064453125,0.6713866591453552,-0.2441406100988388,0.30517578125
573493,-0.01953125,-0.7685546875,0.6602783203125,0.7324218153953552,-0.2441406100988388,0.30517578125
573510,-0.0198974609375,-0.7666015625,0.659423828125,0.6103515625,-0.2441406100988388,0.3662109076976776
573527,-0.0203857421875,-0.769287109375,0.659423828125,0.6103515625,-0.2441406100988388,0.3662109076976776
573543,-0.0185546875,-0.767333984375,0.6597900390625,0.7324218153953552,-0.2441406100988388,0.3662109076976776
573559,-0.0184326171875,-0.7655029296875,0.65966796875,0.7324218153953552,-0.2441406100988388,0.30517578125
573578,-0.0201416015625,-0.7669677734375,0.6610107421875,0.7324218153953552,-0.2441406100988388,0.30517578125
573592,-0.0205078125,-0.7667236328125,0.66064453125,0.7324218153953552,-0.1831054538488388,0.30517578125
573614,-0.0208740234375,-0.7677001953125,0.6607666015625,0.6713866591453552,-0.2441406100988388,0.30517578125
573632,-0.0205078125,-0.768798828125,0.6610107421875,0.6713866591453552,-0.2441406100988388,0.2441406100988388
573646,-0.019775390625,-0.7672119140625,0.66015625,0.6713866591453552,-0.1831054538488388,0.30517578125
573661,-0.019775390625,-0.7677001953125,0.660400390625,0.6713866591453552,-0.2441406100988388,0.30517578125
573678,-0.01904296875,-0.7672119140625,0.6600341796875,0.7324218153953552,-0.2441406100988388,0.2441406100988388
573695,-0.0201416015625,-0.768798828125,0.6602783203125,0.7324218153953552,-0.30517578125,0.30517578125
573711,-0.0203857421875,-0.7677001953125,0.6591796875,0.7324218153953552,-0.30517578125,0.30517578125
573732,-0.01953125,-0.7674560546875,0.6614990234375,0.7324218153953552,-0.2441406100988388,0.30517578125
573750,-0.0201416015625,-0.767333984375,0.66015625,0.6713866591453552,-0.2441406100988388,0.30517578125
573766,-0.0208740234375,-0.767333984375,0.657958984375,0.7324218153953552,-0.2441406100988388,0.30517578125
573799,-0.0206298828125,-0.7696533203125,0.662841796875,0.6713866591453552,-0.2441406100988388,0.3662109076976776
573816,-0.01953125,-0.7705078125,0.66162109375,0.6713866591453552,-0.30517578125,0.3662109076976776
573882,-0.0194091796875,-0.7679443359375,0.6600341796875,0.7324218153953552,-0.2441406100988388,0.4272460639476776
573931,-0.0198974609375,-0.7674560546875,0.6605224609375,0.6713866591453552,-0.2441406100988388,0.3662109076976776
573948,-0.02001953125,-0.7667236328125,0.6600341796875,0.7324218153953552,-0.2441406100988388,0.30517578125
573981,-0.0198974609375,-0.767822265625,0.660400390625,0.7324218153953552,-0.2441406100988388,0.3662109076976776
574014,-0.0198974609375,-0.765869140625,0.659423828125,0.7324218153953552,-0.1831054538488388,0.3662109076976776
574290,-0.0198974609375,-0.7681884765625,0.6610107421875,0.6713866591453552,-0.1831054538488388,0.30517578125
574307,-0.018798828125,-0.768310546875,0.6611328125,0.7324218153953552,-0.1831054538488388,0.30517578125
574340,-0.0196533203125,-0.7672119140625,0.660400390625,0.7324218153953552,-0.30517578125,0.3662109076976776
574356,-0.0186767578125,-0.76708984375,0.659912109375,0.7324218153953552,-0.2441406100988388,0.30517578125
574373,-0.0198974609375,-0.76806640625,0.6602783203125,0.6713866591453552,-0.2441406100988388,0.30517578125
574390,-0.0206298828125,-0.7686767578125,0.6610107421875,0.6713866591453552,-0.2441406100988388,0.3662109076976776
574412,-0.0196533203125,-0.768310546875,0.660400390625,0.6713866591453552,-0.2441406100988388,0.3662109076976776
574459,-0.0203857421875,-0.7669677734375,0.660888671875,0.7324218153953552,-0.1831054538488388,0.30517578125
574508,-0.0198974609375,-0.7694091796875,0.6607666015625,0.6713866591453552,-0.2441406100988388,0.30517578125
574530,-0.0198974609375,-0.765380859375,0.6578369140625,0.6713866591453552,-0.2441406100988388,0.30517578125
574547,-0.0198974609375,-0.7694091796875,0.6607666015625,0.6713866591453552,-0.2441406100988388,0.30517578125
574580,-0.020751953125,-0.768310546875,0.6597900390625,0.7324218153953552,-0.2441406100988388,0.3662109076976776
574628,-0.020263671875,-0.768798828125,0.6591796875,0.7324218153953552,-0.1831054538488388,0.2441406100988388
574646,-0.021484375,-0.7686767578125,0.659912109375,0.7324218153953552,-0.1831054538488388,0.2441406100988388
574695,-0.0181884765625,-0.7677001953125,0.660400390625,0.7324218153953552,-0.2441406100988388,0.3662109076976776
574714,-0.0194091796875,-0.7674560546875,0.6590576171875,0.6713866591453552,-0.2441406100988388,0.30517578125
574730,-0.01953125,-0.768798828125,0.661376953125,0.6713866591453552,-0.2441406100988388,0.30517578125
574780,-0.0189208984375,-0.7664794921875,0.6590576171875,0.7324218153953552,-0.2441406100988388,0.30517578125
574828,-0.0201416015625,-0.76806640625,0.65966796875,0.6713866591453552,-0.2441406100988388,0.2441406100988388
574878,-0.0198974609375,-0.767822265625,0.659912109375,0.6103515625,-0.2441406100988388,0.2441406100988388
574894,-0.020263671875,-0.768310546875,0.659912109375,0.7324218153953552,-0.2441406100988388,0.30517578125
574910,-0.0201416015625,-0.768798828125,0.661376953125,0.7324218153953552,-0.30517578125,0.30517578125
574931,-0.019287109375,-0.7681884765625,0.661376953125,0.7324218153953552,-0.30517578125,0.30517578125
574976,-0.0186767578125,-0.7689208984375,0.660400390625,0.6713866591453552,-0.2441406100988388,0.2441406100988388
575013,-0.0205078125,-0.767578125,0.65966796875,0.6713866591453552,-0.30517578125,0.30517578125
575029,-0.0196533203125,-0.7686767578125,0.6612548828125,0.7324218153953552,-0.2441406100988388,0.3662109076976776
575066,-0.0201416015625,-0.76806640625,0.6610107421875,0.6713866591453552,-0.30517578125,0.3662109076976776
575083,-0.0201416015625,-0.7681884765625,0.660400390625,0.6713866591453552,-0.2441406100988388,0.30517578125
575100,-0.0201416015625,-0.76806640625,0.6597900390625,0.7324218153953552,-0.2441406100988388,0.2441406100988388
575117,-0.0198974609375,-0.7684326171875,0.6600341796875,0.7324218153953552,-0.30517578125,0.30517578125
575140,-0.0196533203125,-0.768310546875,0.6605224609375,0.7324218153953552,-0.2441406100988388,0.3662109076976776
575155,-0.019287109375,-0.7681884765625,0.66015625,0.6713866591453552,-0.2441406100988388,0.3662109076976776
575172,-0.0189208984375,-0.767822265625,0.660400390625,0.6713866591453552,-0.2441406100988388,0.30517578125
575190,-0.01904296875,-0.7679443359375,0.660400390625,0.6713866591453552,-0.30517578125,0.30517578125
575207,-0.0196533203125,-0.7681884765625,0.6602783203125,0.6713866591453552,-0.2441406100988388,0.3662109076976776
575239,-0.0181884765625,-0.767822265625,0.6600341796875,0.6713866591453552,-0.1831054538488388,0.30517578125
575261,-0.0179443359375,-0.7679443359375,0.6605224609375,0.6713866591453552,-0.1831054538488388,0.30517578125
575277,-0.0191650390625,-0.76953125,0.6619873046875,0.7324218153953552,-0.2441406100988388,0.30517578125
575294,-0.0206298828125,-0.767333984375,0.6607666015625,0.7324218153953552,-0.2441406100988388,0.30517578125
575361,-0.01953125,-0.767333984375,0.6605224609375,0.6713866591453552,-0.30517578125,0.30517578125
575377,-0.0198974609375,-0.7664794921875,0.6595458984375,0.6713866591453552,-0.30517578125,0.30517578125
575394,-0.021240234375,-0.770751953125,0.661865234375,0.6713866591453552,-0.30517578125,0.30517578125
575414,-0.020263671875,-0.7667236328125,0.6590576171875,0.6713866591453552,-0.30517578125,0.30517578125
575464,-0.0203857421875,-0.7662353515625,0.6588134765625,0.6713866591453552,-0.30517578125,0.30517578125
575491,-0.0201416015625,-0.7703857421875,0.6617431640625,0.6713866591453552,-0.2441406100988388,0.30517578125
575539,-0.0198974609375,-0.766845703125,0.6580810546875,0.6103515625,-0.1831054538488388,0.30517578125
575554,-0.0191650390625,-0.767822265625,0.660888671875,0.6103515625,-0.2441406100988388,0.30517578125
575571,-0.019287109375,-0.767333984375,0.6585693359375,0.6713866591453552,-0.30517578125,0.30517578125
575607,-0.019775390625,-0.7685546875,0.659423828125,0.7324218153953552,-0.2441406100988388,0.3662109076976776
575623,-0.021240234375,-0.7674560546875,0.658447265625,0.6713866591453552,-0.2441406100988388,0.30517578125
575657,-0.019775390625,-0.7689208984375,0.660888671875,0.6713866591453552,-0.2441406100988388,0.30517578125
575673,-0.0198974609375,-0.7705078125,0.662841796875,0.6713866591453552,-0.2441406100988388,0.30517578125
575690,-0.019775390625,-0.7698974609375,0.66162109375,0.6713866591453552,-0.30517578125,0.3662109076976776
575722,-0.01953125,-0.767822265625,0.661376953125,0.6713866591453552,-0.2441406100988388,0.30517578125
575738,-0.0194091796875,-0.767578125,0.661376953125,0.6713866591453552,-0.2441406100988388,0.30517578125
575774,-0.0206298828125,-0.76806640625,0.659912109375,0.6713866591453552,-0.2441406100988388,0.30517578125
575808,-0.0205078125,-0.7669677734375,0.65966796875,0.6713866591453552,-0.2441406100988388,0.30517578125
575863,-0.0194091796875,-0.7669677734375,0.6605224609375,0.6713866591453552,-0.30517578125,0.30517578125
575912,-0.0203857421875,-0.773193359375,0.6636962890625,0.6713866591453552,-0.1831054538488388,0.30517578125
575929,-0.019287109375,-0.7752685546875,0.6650390625,0.6713866591453552,-0.2441406100988388,0.30517578125
575964,-0.0201416015625,-0.7642822265625,0.6561279296875,0.7324218153953552,-0.2441406100988388,0.3662109076976776
575980,-0.0205078125,-0.76708984375,0.6595458984375,0.6713866591453552,-0.2441406100988388,0.30517578125
575997,-0.019287109375,-0.769775390625,0.6629638671875,0.6713866591453552,-0.2441406100988388,0.30517578125
576014,-0.0203857421875,-0.76708984375,0.6597900390625,0.6713866591453552,-0.2441406100988388,0.2441406100988388
576037,-0.02099609375,-0.7659912109375,0.658447265625,0.7324218153953552,-0.2441406100988388,0.30517578125
576053,-0.0194091796875,-0.7698974609375,0.6611328125,0.7324218153953552,-0.2441406100988388,0.30517578125
576070,-0.019775390625,-0.7689208984375,0.6605224609375,0.7324218153953552,-0.1831054538488388,0.2441406100988388
576089,-0.0206298828125,-0.768310546875,0.66064453125,0.7324218153953552,-0.30517578125,0.3662109076976776
576139,-0.0189208984375,-0.767333984375,0.6591796875,0.7324218153953552,-0.30517578125,0.3662109076976776
576156,-0.0203857421875,-0.7650146484375,0.657958984375,0.7934569716453552,-0.2441406100988388,0.3662109076976776
576172,-0.02001953125,-0.769287109375,0.6611328125,0.7934569716453552,-0.2441406100988388,0.30517578125
576189,-0.019287109375,-0.771484375,0.6630859375,0.7324218153953552,-0.2441406100988388,0.30517578125
576258,-0.019287109375,-0.771240234375,0.663330078125,0.6713866591453552,-0.30517578125,0.30517578125
576347,-0.019775390625,-0.770751953125,0.6611328125,0.7324218153953552,-0.30517578125,0.3662109076976776
576409,-0.0191650390625,-0.7607421875,0.653564453125,0.7324218153953552,-0.1831054538488388,0.3662109076976776
576455,-0.0184326171875,-0.76416015625,0.65673828125,0.6713866591453552,-0.30517578125,0.30517578125
576467,-0.01953125,-0.7698974609375,0.6612548828125,0.6713866591453552,-0.2441406100988388,0.30517578125
576497,-0.020263671875,-0.767333984375,0.6578369140625,0.7934569716453552,-0.2441406100988388,0.30517578125
576514,-0.0196533203125,-0.7677001953125,0.6611328125,0.7324218153953552,-0.1831054538488388,0.2441406100988388
576530,-0.019287109375,-0.772216796875,0.6640625,0.6713866591453552,-0.1831054538488388,0.2441406100988388
576551,-0.0203857421875,-0.76513671875,0.6553955078125,0.6713866591453552,-0.2441406100988388,0.30517578125
576568,-0.0211181640625,-0.767578125,0.6591796875,0.7324218153953552,-0.2441406100988388,0.30517578125
576579,-0.019775390625,-0.767578125,0.6607666015625,0.6713866591453552,-0.2441406100988388,0.2441406100988388
576647,-0.018798828125,-0.7681884765625,0.6600341796875,0.7324218153953552,-0.2441406100988388,0.30517578125
576706,-0.020751953125,-0.77001953125,0.660400390625,0.7324218153953552,-0.2441406100988388,0.30517578125
576763,-0.020751953125,-0.766357421875,0.6588134765625,0.7324218153953552,-0.2441406100988388,0.30517578125
576889,-0.01904296875,-0.767822265625,0.6595458984375,0.6103515625,-0.2441406100988388,0.30517578125
576932,-0.019287109375,-0.76904296875,0.661865234375,0.7324218153953552,-0.1220703050494194,0.2441406100988388
576949,-0.0181884765625,-0.759033203125,0.665771484375,0.9765624403953552,-0.1831054538488388,0.30517578125
576982,-0.01708984375,-0.7528076171875,0.6781005859375,2.197265625,-0.1220703050494194,0.4882812201976776
577015,-0.02294921875,-0.7567138671875,0.6553955078125,3.845214605331421,0.1831054538488388,1.0986328125
577114,0.0196533203125,-1.170166015625,1.1661376953125,10.498045921325684,0.1220703050494194,0.7324218153953552
577130,-0.01904296875,-1.3133544921875,1.2119140625,12.329100608825684,-1.5869139432907104,0.0610351525247097
577147,-0.031005859375,-1.324951171875,1.1845703125,13.854979515075684,-2.685546636581421,-1.8310545682907104
577167,-0.008544921875,-1.3026123046875,1.1053466796875,13.610838890075684,-3.601073980331421,-2.868652105331421
577184,-0.007080078125,-1.27294921875,1.0660400390625,11.291502952575684,-4.0283203125,-3.723144292831421
577200,-0.01513671875,-1.1748046875,0.9654541015625,7.568358898162842,-3.540038824081421,-3.784179449081421
577217,-0.0145263671875,-1.1314697265625,0.94677734375,3.173827886581421,-2.990722417831421,-2.746581792831421
577234,-0.0247802734375,-1.149658203125,0.942138671875,0.7324218153953552,-2.685546636581421,-2.44140625
577253,-0.0501708984375,-1.1728515625,0.9593505859375,-3.051757574081421,-2.44140625,-2.197265625
577269,-0.064453125,-1.216064453125,0.9749755859375,-4.8828125,-2.13623046875,-2.01416015625
577290,-0.0594482421875,-1.232666015625,1.0015869140625,-7.934569835662842,-1.9531248807907104,-1.9531248807907104
577307,-0.0543212890625,-1.2320556640625,0.9696044921875,-10.986327171325684,-2.0751953125,-2.38037109375
577323,-0.051513671875,-1.1514892578125,0.9244384765625,-14.282225608825684,-1.03759765625,-1.8920897245407104
577340,-0.0521240234375,-1.0992431640625,0.91552734375,-17.7001953125,-0.4272460639476776,-1.03759765625
577389,-0.0401611328125,-0.9613037109375,0.8009033203125,-25.207517623901367,1.03759765625,0.6713866591453552
577408,-0.0303955078125,-0.923828125,0.7757568359375,-27.282712936401367,1.3427733182907104,0.7324218153953552
577429,-0.0311279296875,-0.8699951171875,0.7314453125,-28.320310592651367,1.4648436307907104,0.7934569716453552
577446,-0.029296875,-0.824462890625,0.711669921875,-30.029294967651367,1.2817381620407104,0.4882812201976776
577466,-0.02880859375,-0.7152099609375,0.6171875,-30.944822311401367,1.15966796875,0.30517578125
577482,-0.018310546875,-0.6148681640625,0.56884765625,-31.738279342651367,0.9155272841453552,0.6103515625
577499,-0.0216064453125,-0.553466796875,0.484130859375,-32.53173828125,1.220703125,0.0610351525247097
577515,-0.015625,-0.49658203125,0.469970703125,-32.89794921875,0.9155272841453552,0.0
577569,-0.0111083984375,-0.3165283203125,0.3194580078125,-33.203125,0.1831054538488388,-1.0986328125
577587,-0.0106201171875,-0.2777099609375,0.293212890625,-33.0810546875,-0.6103515625,-1.4038084745407104
577604,-0.0130615234375,-0.2254638671875,0.227294921875,-33.0810546875,-0.6103515625,-1.5258787870407104
577637,-0.0201416015625,-0.1649169921875,0.1656494140625,-32.958984375,-0.2441406100988388,-1.2817381620407104
577654,-0.02392578125,-0.159423828125,0.157470703125,-32.8369140625,0.1220703050494194,-1.03759765625
577703,-0.0234375,-0.2308349609375,0.220703125,-31.433103561401367,0.7324218153953552,-0.3662109076976776
577755,-0.044921875,-0.403564453125,0.3553466796875,-29.724119186401367,3.295898199081421,0.4882812201976776
577788,-0.030029296875,-0.62158203125,0.807861328125,-27.770994186401367,4.33349609375,0.0610351525247097
577953,-0.01708984375,-0.524169921875,0.7640380859375,-8.30078125,0.54931640625,-2.197265625
577965,-0.0162353515625,-0.521484375,0.7646484375,-6.164550304412842,0.4882812201976776,-2.25830078125
577998,-0.01806640625,-0.52490234375,0.7764892578125,-2.3193359375,0.8544921278953552,-2.0751953125
578015,-0.0133056640625,-0.542236328125,0.8377685546875,0.4882812201976776,0.6103515625,-2.01416015625
578031,-0.0086669921875,-0.5548095703125,0.847900390625,1.9531248807907104,0.3662109076976776,-2.13623046875
578048,-0.005615234375,-0.5518798828125,0.849365234375,4.8828125,0.2441406100988388,-2.197265625
578100,-0.0042724609375,-0.571044921875,0.869140625,13.427733421325684,-0.4882812201976776,-1.7089842557907104
578133,-0.0069580078125,-0.58740234375,0.8641357421875,15.563963890075684,-0.4272460639476776,-1.4038084745407104
578150,-0.006591796875,-0.5771484375,0.8427734375,17.333984375,-0.8544921278953552,-1.5258787870407104
578167,-0.0084228515625,-0.5645751953125,0.8228759765625,18.6767578125,-0.8544921278953552,-1.4648436307907104
578221,-0.0140380859375,-0.5670166015625,0.8106689453125,20.935056686401367,-1.03759765625,-0.54931640625
578250,-0.0223388671875,-0.5927734375,0.7958984375,21.179197311401367,-1.03759765625,-0.3662109076976776
578267,-0.023193359375,-0.602294921875,0.7994384765625,21.301267623901367,-0.9765624403953552,-0.30517578125
578300,-0.0311279296875,-0.620361328125,0.80615234375,21.423337936401367,-1.03759765625,-0.0610351525247097
578333,-0.0318603515625,-0.652099609375,0.8135986328125,20.874021530151367,-1.4038084745407104,0.1831054538488388
578374,-0.0380859375,-0.6705322265625,0.8011474609375,19.59228515625,-1.8920897245407104,0.0610351525247097
578386,-0.040771484375,-0.6666259765625,0.7890625,18.61572265625,-2.01416015625,0.0
578419,-0.0479736328125,-0.654541015625,0.7708740234375,16.54052734375,-1.9531248807907104,0.1831054538488388
578435,-0.0491943359375,-0.6461181640625,0.759033203125,14.953612327575684,-1.9531248807907104,0.4272460639476776
578451,-0.0489501953125,-0.6475830078125,0.74853515625,13.366698265075684,-1.6479490995407104,0.7324218153953552
578484,-0.048583984375,-0.6539306640625,0.7442626953125,10.864256858825684,-1.5869139432907104,0.9155272841453552
578503,-0.0504150390625,-0.65771484375,0.735595703125,10.009765625,-1.4648436307907104,1.15966796875
578534,-0.046630859375,-0.6724853515625,0.7392578125,6.713866710662842,-0.9765624403953552,1.4648436307907104
578614,-0.03271484375,-0.68115234375,0.752685546875,2.807616949081421,-0.7324218153953552,2.0751953125
578631,-0.033447265625,-0.6881103515625,0.7579345703125,1.8920897245407104,-0.6103515625,2.25830078125
578648,-0.0303955078125,-0.6971435546875,0.7593994140625,1.15966796875,-0.6103515625,2.25830078125
578668,-0.02734375,-0.696044921875,0.7529296875,0.30517578125,-0.4272460639476776,2.38037109375
578684,-0.0238037109375,-0.696044921875,0.759765625,-0.2441406100988388,-0.3662109076976776,2.50244140625
578701,-0.0223388671875,-0.69677734375,0.7601318359375,-0.6103515625,-0.4272460639476776,2.50244140625
578715,-0.022216796875,-0.696533203125,0.7552490234375,-1.3427733182907104,-0.54931640625,2.685546636581421
578770,-0.0230712890625,-0.6842041015625,0.7474365234375,-3.173827886581421,-0.4882812201976776,2.807616949081421
578912,-0.0311279296875,-0.642578125,0.7364501953125,-5.859374523162842,-0.4272460639476776,3.112792730331421
578929,-0.0306396484375,-0.6492919921875,0.743896484375,-6.408690929412842,-0.1831054538488388,3.356933355331421
578962,-0.030029296875,-0.66845703125,0.7725830078125,-6.896972179412842,-0.1220703050494194,3.295898199081421
578993,-0.02734375,-0.6751708984375,0.789306640625,-6.835937023162842,-0.1831054538488388,3.173827886581421
579035,-0.023193359375,-0.6619873046875,0.7723388671875,-6.225585460662842,-0.4882812201976776,2.990722417831421
579052,-0.0224609375,-0.66015625,0.7679443359375,-5.432128429412842,-0.4882812201976776,3.051757574081421
579069,-0.0225830078125,-0.6658935546875,0.765869140625,-4.57763671875,-0.7324218153953552,2.746581792831421
579121,-0.025634765625,-0.628662109375,0.7261962890625,-1.8920897245407104,-1.3427733182907104,1.8920897245407104
579170,-0.0252685546875,-0.6138916015625,0.7421875,0.9155272841453552,-1.15966796875,1.5869139432907104
579331,-0.0250244140625,-0.5291748046875,0.5750732421875,3.540038824081421,-1.6479490995407104,-0.2441406100988388
579348,-0.0272216796875,-0.511962890625,0.541748046875,2.990722417831421,-1.5258787870407104,-0.1220703050494194
579381,-0.0225830078125,-0.5361328125,0.56884765625,0.4882812201976776,0.0610351525247097,0.9155272841453552
579398,-0.0213623046875,-0.5726318359375,0.6297607421875,-0.54931640625,-0.0610351525247097,0.7324218153953552
579415,-0.0181884765625,-0.5618896484375,0.628662109375,-1.6479490995407104,-0.6713866591453552,0.2441406100988388
579432,-0.0198974609375,-0.532470703125,0.5908203125,-2.197265625,-0.54931640625,0.4272460639476776
579456,-0.0191650390625,-0.525390625,0.568115234375,-3.234863042831421,0.7324218153953552,1.4038084745407104
579473,-0.01513671875,-0.574462890625,0.6365966796875,-4.33349609375,1.5258787870407104,1.8310545682907104
579490,-0.011962890625,-0.6151123046875,0.72265625,-5.0048828125,1.0986328125,1.4648436307907104
579509,-0.0120849609375,-0.593994140625,0.7117919921875,-5.249022960662842,0.4272460639476776,0.9765624403953552
579525,-0.0164794921875,-0.5386962890625,0.6314697265625,-6.164550304412842,0.6103515625,1.3427733182907104
579557,-0.009033203125,-0.594970703125,0.6944580078125,-7.507323741912842,1.3427733182907104,1.9531248807907104
579579,-0.0087890625,-0.601806640625,0.7200927734375,-7.873534679412842,1.15966796875,1.7700194120407104
579595,-0.0074462890625,-0.5906982421875,0.718017578125,-8.30078125,0.7324218153953552,1.5258787870407104
579607,-0.010009765625,-0.5655517578125,0.6904296875,-8.72802734375,0.3662109076976776,1.3427733182907104
579626,-0.0128173828125,-0.54443359375,0.662841796875,-9.033203125,0.7324218153953552,1.6479490995407104
579643,-0.013427734375,-0.5570068359375,0.6820068359375,-9.46044921875,1.8920897245407104,2.624511480331421
579659,-0.013427734375,-0.6185302734375,0.7657470703125,-9.3994140625,2.13623046875,2.868652105331421
579675,-0.0103759765625,-0.6759033203125,0.861572265625,-8.544921875,1.5258787870407104,2.38037109375
579699,-0.010009765625,-0.677978515625,0.857421875,-7.995604991912842,0.9765624403953552,1.9531248807907104
579715,-0.010498046875,-0.633056640625,0.79931640625,-6.958007335662842,0.30517578125,1.4038084745407104
579732,-0.0111083984375,-0.6199951171875,0.7745361328125,-6.164550304412842,0.4882812201976776,1.5869139432907104
579810,-0.0106201171875,-0.627197265625,0.800537109375,-2.44140625,0.1220703050494194,1.220703125
579874,-0.01611328125,-0.623046875,0.8250732421875,0.8544921278953552,0.7934569716453552,1.4648436307907104
579886,-0.0103759765625,-0.64208984375,0.868896484375,2.868652105331421,0.7324218153953552,1.4648436307907104
579918,-0.01123046875,-0.6849365234375,0.90576171875,5.981444835662842,0.0,0.7934569716453552
579934,-0.0130615234375,-0.681396484375,0.8997802734375,6.896972179412842,-0.1831054538488388,0.54931640625
579950,-0.013427734375,-0.663818359375,0.8765869140625,8.544921875,-0.30517578125,0.3662109076976776
579988,-0.016845703125,-0.642578125,0.84228515625,10.498045921325684,-0.0610351525247097,0.7324218153953552
580004,-0.018310546875,-0.66064453125,0.8531494140625,11.413573265075684,0.4882812201976776,1.03759765625
580016,-0.019287109375,-0.68896484375,0.8828125,12.390135765075684,0.7934569716453552,1.15966796875
580033,-0.017333984375,-0.7030029296875,0.900634765625,12.878417015075684,0.6713866591453552,1.03759765625
580083,-0.011962890625,-0.67626953125,0.867919921875,14.282225608825684,1.03759765625,1.2817381620407104
580113,-0.0115966796875,-0.715576171875,0.9005126953125,14.465331077575684,1.03759765625,1.3427733182907104
580130,-0.0086669921875,-0.6904296875,0.8704833984375,14.404295921325684,0.8544921278953552,1.220703125
580147,-0.0059814453125,-0.6668701171875,0.8330078125,14.099120140075684,0.9155272841453552,1.4038084745407104
580200,-0.0042724609375,-0.6995849609375,0.8387451171875,12.145995140075684,2.25830078125,2.563476324081421
580249,0.0155029296875,-0.74169921875,0.91162109375,12.695311546325684,1.3427733182907104,2.38037109375
580294,0.015625,-0.75390625,0.8983154296875,12.451170921325684,0.4272460639476776,1.9531248807907104
580323,0.010009765625,-0.7177734375,0.84912109375,11.901854515075684,-0.0610351525247097,2.01416015625
580350,0.0009765625,-0.7489013671875,0.849365234375,11.291502952575684,-0.0610351525247097,2.0751953125
580361,-0.0018310546875,-0.761474609375,0.854736328125,10.620116233825684,-0.2441406100988388,1.7089842557907104
580395,-0.007080078125,-0.7459716796875,0.825439453125,9.27734375,-0.7934569716453552,1.0986328125
580411,-0.0091552734375,-0.744140625,0.810302734375,8.1787109375,-0.6713866591453552,0.9765624403953552
580460,-0.0086669921875,-0.758544921875,0.81640625,5.0048828125,-0.7324218153953552,0.3662109076976776
580482,-0.0068359375,-0.75830078125,0.814208984375,4.5166015625,-0.7934569716453552,0.30517578125
580498,-0.004638671875,-0.74755859375,0.790771484375,3.295898199081421,-0.9765624403953552,0.0
580547,-0.000732421875,-0.7442626953125,0.782470703125,-0.1220703050494194,-0.9765624403953552,-0.4272460639476776
580602,0.001220703125,-0.72998046875,0.7724609375,-3.784179449081421,-1.03759765625,-0.7934569716453552
580651,0.0013427734375,-0.7171630859375,0.78466796875,-5.554198741912842,-0.8544921278953552,-0.7324218153953552
580668,0.0010986328125,-0.7198486328125,0.7857666015625,-5.981444835662842,-1.03759765625,-0.9765624403953552
580697,-0.000244140625,-0.76318359375,0.7904052734375,-6.469726085662842,-1.220703125,-1.0986328125
580781,-0.0623779296875,-0.4793701171875,0.5677490234375,6.713866710662842,0.4882812201976776,0.1831054538488388
580835,0.0108642578125,-0.9190673828125,1.0318603515625,1.220703125,-1.5258787870407104,-1.0986328125
580847,0.0029296875,-0.5926513671875,0.631103515625,0.7934569716453552,-2.3193359375,-1.7089842557907104
580878,-0.024658203125,-0.674560546875,0.7431640625,2.01416015625,-1.220703125,-0.6713866591453552
580894,-0.02685546875,-0.773193359375,0.8450927734375,2.868652105331421,-0.6103515625,0.54931640625
580911,-0.001708984375,-0.7255859375,0.7713623046875,1.4648436307907104,-0.7934569716453552,-0.3662109076976776
580953,-0.01708984375,-0.7242431640625,0.7822265625,1.5258787870407104,-0.7324218153953552,-0.1831054538488388
580969,-0.0152587890625,-0.7076416015625,0.75,1.0986328125,-0.7934569716453552,-0.1831054538488388
580986,-0.0072021484375,-0.6634521484375,0.7156982421875,0.7934569716453552,-0.7934569716453552,-0.3662109076976776
581006,-0.0072021484375,-0.6925048828125,0.7403564453125,0.9155272841453552,-0.7324218153953552,-0.1220703050494194
581023,-0.01171875,-0.7059326171875,0.765625,0.7934569716453552,-0.8544921278953552,-0.2441406100988388
581040,-0.0123291015625,-0.6788330078125,0.723388671875,0.8544921278953552,-0.6103515625,-0.1831054538488388
581061,-0.012939453125,-0.6826171875,0.7379150390625,0.9155272841453552,-0.4882812201976776,0.0610351525247097
581110,-0.0108642578125,-0.684814453125,0.7425537109375,2.01416015625,-0.6713866591453552,-0.0610351525247097
581130,-0.0150146484375,-0.693115234375,0.75341796875,2.807616949081421,-0.6713866591453552,-0.1831054538488388
581146,-0.0126953125,-0.68408203125,0.744384765625,3.112792730331421,-0.6713866591453552,-0.1831054538488388
581163,-0.0128173828125,-0.699951171875,0.74365234375,3.967284917831421,-0.6713866591453552,0.1831054538488388
581176,-0.0125732421875,-0.6776123046875,0.7471923828125,4.39453125,-0.7324218153953552,0.1220703050494194
581229,-0.0115966796875,-0.68701171875,0.7515869140625,6.530761241912842,-0.4882812201976776,-0.0610351525247097
581254,-0.008544921875,-0.68359375,0.7493896484375,7.629394054412842,-0.7324218153953552,-0.2441406100988388
581271,-0.0146484375,-0.685302734375,0.7427978515625,8.9111328125,-0.7934569716453552,-0.1220703050494194
581325,-0.0106201171875,-0.7054443359375,0.73779296875,11.901854515075684,-0.6713866591453552,-0.1220703050494194
581394,-0.0125732421875,-0.7099609375,0.7127685546875,13.610838890075684,-0.9155272841453552,-0.30517578125
581436,-0.0174560546875,-0.7218017578125,0.7059326171875,13.549803733825684,-0.7324218153953552,-0.1220703050494194
581453,-0.0177001953125,-0.7310791015625,0.7078857421875,13.427733421325684,-0.7324218153953552,-0.0610351525247097
581486,-0.013671875,-0.7344970703125,0.6962890625,12.573241233825684,-0.7934569716453552,-0.2441406100988388
581550,-0.0174560546875,-0.743896484375,0.6907958984375,10.437010765075684,-0.6713866591453552,-0.1220703050494194
581567,-0.016845703125,-0.7474365234375,0.68701171875,9.70458984375,-0.6713866591453552,-0.0610351525247097
581599,-0.0194091796875,-0.75341796875,0.68359375,8.48388671875,-0.7324218153953552,0.0
581616,-0.0174560546875,-0.755859375,0.677490234375,7.446288585662842,-0.6103515625,0.0
581633,-0.017578125,-0.7586669921875,0.6754150390625,6.347655773162842,-0.4882812201976776,0.1220703050494194
581649,-0.01806640625,-0.7606201171875,0.67822265625,5.737304210662842,-0.4882812201976776,0.0610351525247097
581667,-0.01904296875,-0.76025390625,0.67529296875,4.45556640625,-0.54931640625,0.0610351525247097
581688,-0.019775390625,-0.7696533203125,0.677978515625,3.112792730331421,-0.4272460639476776,0.1220703050494194
581705,-0.020751953125,-0.744140625,0.6553955078125,2.38037109375,-0.30517578125,0.30517578125
581724,-0.0181884765625,-0.7535400390625,0.66357421875,1.15966796875,-0.2441406100988388,0.3662109076976776
581740,-0.0155029296875,-0.774169921875,0.681640625,-0.1831054538488388,-0.3662109076976776,0.1831054538488388
581757,-0.0206298828125,-0.7587890625,0.6715087890625,-1.4038084745407104,-0.30517578125,0.1831054538488388
581774,-0.020263671875,-0.7581787109375,0.6741943359375,-2.44140625,-0.1831054538488388,0.30517578125
581793,-0.0155029296875,-0.7508544921875,0.67626953125,-3.234863042831421,-0.0610351525247097,0.3662109076976776
581814,-0.0169677734375,-0.73828125,0.6693115234375,-3.479003667831421,0.0,0.4272460639476776
581830,-0.0208740234375,-0.75,0.694580078125,-3.540038824081421,0.1220703050494194,0.6103515625
581849,-0.0216064453125,-0.765869140625,0.71240234375,-3.356933355331421,0.0,0.4882812201976776
581866,-0.0126953125,-0.71240234375,0.6661376953125,-3.173827886581421,-0.0610351525247097,0.4882812201976776
581898,-0.0166015625,-0.7440185546875,0.69775390625,-2.50244140625,-0.1220703050494194,0.4272460639476776
581914,-0.0216064453125,-0.74658203125,0.7017822265625,-2.197265625,0.0,0.4882812201976776
581962,-0.0164794921875,-0.7362060546875,0.700439453125,-1.220703125,-0.1220703050494194,0.30517578125
582014,-0.016357421875,-0.7330322265625,0.697021484375,0.4882812201976776,-0.1831054538488388,0.4272460639476776
582090,-0.017822265625,-0.7412109375,0.6888427734375,1.4038084745407104,-0.2441406100988388,0.30517578125
582140,-0.015869140625,-0.74267578125,0.6883544921875,1.0986328125,-0.2441406100988388,0.30517578125
582290,-0.016845703125,-0.7442626953125,0.6947021484375,0.7324218153953552,-0.2441406100988388,0.30517578125
582335,-0.017822265625,-0.7408447265625,0.6907958984375,0.6713866591453552,-0.2441406100988388,0.30517578125
582352,-0.017822265625,-0.739501953125,0.68798828125,0.54931640625,-0.2441406100988388,0.3662109076976776
582369,-0.015869140625,-0.7459716796875,0.68994140625,0.4272460639476776,-0.1831054538488388,0.4272460639476776
582389,-0.0155029296875,-0.7447509765625,0.6888427734375,0.1831054538488388,-0.1831054538488388,0.3662109076976776
582406,-0.0181884765625,-0.741943359375,0.689453125,-0.1220703050494194,-0.2441406100988388,0.3662109076976776
582423,-0.01806640625,-0.7427978515625,0.6904296875,-0.1831054538488388,-0.2441406100988388,0.3662109076976776
582437,-0.0169677734375,-0.740478515625,0.6907958984375,-0.2441406100988388,-0.1831054538488388,0.3662109076976776
582491,-0.0177001953125,-0.740234375,0.6951904296875,0.0610351525247097,-0.2441406100988388,0.3662109076976776
582532,-0.0172119140625,-0.7391357421875,0.6903076171875,0.1831054538488388,-0.1831054538488388,0.3662109076976776
582592,-0.01708984375,-0.7369384765625,0.6943359375,0.4882812201976776,-0.1831054538488388,0.3662109076976776
582692,-0.0164794921875,-0.73828125,0.6953125,1.4038084745407104,-0.30517578125,0.30517578125
582704,-0.01806640625,-0.738037109375,0.6939697265625,1.5258787870407104,-0.30517578125,0.30517578125
582734,-0.015380859375,-0.739990234375,0.69384765625,1.7700194120407104,-0.1831054538488388,0.2441406100988388
582767,-0.016845703125,-0.739501953125,0.6927490234375,2.0751953125,-0.1831054538488388,0.30517578125
582811,-0.0155029296875,-0.73779296875,0.6927490234375,2.624511480331421,-0.2441406100988388,0.4272460639476776
582828,-0.016357421875,-0.7406005859375,0.6900634765625,2.685546636581421,-0.1831054538488388,0.4882812201976776
582861,-0.016357421875,-0.739501953125,0.691162109375,3.173827886581421,0.0,0.6103515625
582878,-0.015869140625,-0.7357177734375,0.6846923828125,3.479003667831421,0.1831054538488388,0.7934569716453552
582894,-0.0172119140625,-0.73681640625,0.6829833984375,3.662109136581421,0.3662109076976776,0.9765624403953552
582910,-0.016845703125,-0.74169921875,0.6923828125,3.906249761581421,0.7324218153953552,1.2817381620407104
582935,-0.0098876953125,-0.7392578125,0.697265625,4.39453125,0.9155272841453552,1.6479490995407104
583005,0.0360107421875,-1.0960693359375,1.0054931640625,4.5166015625,0.54931640625,1.7089842557907104
583049,0.0076904296875,-1.1434326171875,1.065185546875,4.94384765625,-1.0986328125,-1.03759765625
583098,-0.0234375,-1.031494140625,0.9493408203125,4.638671875,-2.01416015625,-2.01416015625
583114,-0.0264892578125,-1.034423828125,0.9482421875,3.356933355331421,-1.8310545682907104,-1.9531248807907104
583131,-0.0311279296875,-1.0601806640625,0.9654541015625,2.25830078125,-1.6479490995407104,-1.7700194120407104
583169,-0.035400390625,-1.0960693359375,0.9918212890625,1.2817381620407104,-2.0751953125,-2.563476324081421
583185,-0.0377197265625,-1.0672607421875,0.9688720703125,0.9765624403953552,-1.8920897245407104,-2.807616949081421
583202,-0.0430908203125,-1.0595703125,0.973388671875,0.6103515625,-1.9531248807907104,-2.868652105331421
583219,-0.0531005859375,-1.0201416015625,0.932373046875,0.30517578125,-2.13623046875,-2.990722417831421
583235,-0.056396484375,-0.9990234375,0.9007568359375,-0.4882812201976776,-2.01416015625,-2.990722417831421
583252,-0.05859375,-0.949951171875,0.8516845703125,-1.4038084745407104,-1.3427733182907104,-2.44140625
583302,-0.05078125,-0.9737548828125,0.9007568359375,-1.7089842557907104,-0.7324218153953552,-2.13623046875
583352,-0.059814453125,-0.8326416015625,0.774169921875,-1.3427733182907104,-0.2441406100988388,-1.5869139432907104
583369,-0.0584716796875,-0.7830810546875,0.71875,-1.8310545682907104,-0.1220703050494194,-1.3427733182907104
583406,-0.0516357421875,-0.67333984375,0.6162109375,-2.868652105331421,0.9765624403953552,-0.2441406100988388
583423,-0.0435791015625,-0.6640625,0.615478515625,-2.929687261581421,0.7934569716453552,-0.1220703050494194
583455,-0.0408935546875,-0.583984375,0.5423583984375,-3.051757574081421,1.15966796875,0.1220703050494194
583477,-0.0386962890625,-0.541015625,0.5126953125,-2.685546636581421,1.15966796875,0.4882812201976776
583493,-0.0394287109375,-0.512939453125,0.4847412109375,-2.01416015625,1.8310545682907104,0.7324218153953552
583526,-0.0322265625,-0.4820556640625,0.4688720703125,-0.1831054538488388,1.2817381620407104,0.54931640625
583542,-0.0250244140625,-0.4234619140625,0.424560546875,0.4272460639476776,1.03759765625,0.4272460639476776
583559,-0.019775390625,-0.37939453125,0.3792724609375,2.38037109375,1.15966796875,0.54931640625
583576,-0.014892578125,-0.3641357421875,0.371826171875,2.868652105331421,1.03759765625,0.6713866591453552
583629,-0.008544921875,-0.2982177734375,0.2933349609375,4.82177734375,1.03759765625,0.8544921278953552
583681,0.0047607421875,-0.381103515625,0.34326171875,6.774901866912842,0.6103515625,0.2441406100988388
583732,0.0089111328125,-0.5267333984375,0.4571533203125,8.056640625,0.7934569716453552,0.0610351525247097
583769,0.002685546875,-0.62744140625,0.571533203125,9.33837890625,0.1220703050494194,-1.03759765625
583785,0.003662109375,-0.6898193359375,0.647216796875,10.375975608825684,-0.54931640625,-1.5258787870407104
583818,0.00146484375,-0.7740478515625,0.734619140625,12.084959983825684,-1.4648436307907104,-2.25830078125
583868,-0.00732421875,-0.81201171875,0.689453125,13.916014671325684,-3.234863042831421,-2.929687261581421
583890,-0.01025390625,-0.8236083984375,0.6357421875,13.977049827575684,-3.784179449081421,-2.685546636581421
583939,-0.0030517578125,-0.8424072265625,0.5496826171875,12.695311546325684,-4.0283203125,-1.8310545682907104
583956,-0.0047607421875,-0.8480224609375,0.5458984375,11.901854515075684,-3.845214605331421,-1.4648436307907104
583973,-0.009033203125,-0.842529296875,0.555908203125,11.230467796325684,-3.601073980331421,-1.3427733182907104
583989,-0.01708984375,-0.808837890625,0.5748291015625,10.864256858825684,-3.601073980331421,-1.2817381620407104
584007,-0.02392578125,-0.7774658203125,0.6033935546875,10.437010765075684,-3.479003667831421,-0.8544921278953552
584029,-0.0272216796875,-0.7738037109375,0.6214599609375,10.253905296325684,-3.479003667831421,-0.2441406100988388
584045,-0.034423828125,-0.7740478515625,0.6441650390625,10.131834983825684,-3.601073980331421,-0.0610351525247097
584115,-0.0538330078125,-0.785400390625,0.630859375,9.09423828125,-3.173827886581421,0.30517578125
584133,-0.05517578125,-0.7791748046875,0.605224609375,8.6669921875,-3.051757574081421,0.4272460639476776
584153,-0.0567626953125,-0.784423828125,0.5810546875,8.23974609375,-2.807616949081421,0.6103515625
584169,-0.0574951171875,-0.7874755859375,0.5712890625,7.995604991912842,-2.50244140625,0.6713866591453552
584235,-0.0582275390625,-0.80859375,0.5875244140625,6.225585460662842,-1.6479490995407104,0.7934569716453552
584253,-0.05419921875,-0.814697265625,0.5970458984375,5.737304210662842,-1.6479490995407104,0.6713866591453552
584275,-0.052001953125,-0.8089599609375,0.5972900390625,5.493163585662842,-1.5869139432907104,0.6103515625
584291,-0.0498046875,-0.8046875,0.608154296875,5.0048828125,-1.4038084745407104,0.7324218153953552
584357,-0.042236328125,-0.8074951171875,0.5975341796875,3.723144292831421,-1.5869139432907104,0.7324218153953552
584374,-0.0384521484375,-0.80517578125,0.5955810546875,3.295898199081421,-1.4038084745407104,0.7324218153953552
584389,-0.034423828125,-0.8118896484375,0.6043701171875,3.112792730331421,-1.4038084745407104,0.7934569716453552
584410,-0.033203125,-0.815185546875,0.6048583984375,2.624511480331421,-1.5258787870407104,0.8544921278953552
584429,-0.0338134765625,-0.82568359375,0.601806640625,2.197265625,-1.5258787870407104,0.7934569716453552
584445,-0.0352783203125,-0.8245849609375,0.5968017578125,2.0751953125,-1.4648436307907104,0.6713866591453552
584476,-0.0357666015625,-0.8330078125,0.60693359375,1.3427733182907104,-1.4038084745407104,0.54931640625
584492,-0.0369873046875,-0.825439453125,0.5950927734375,1.03759765625,-1.4038084745407104,0.4882812201976776
584540,-0.045654296875,-0.8148193359375,0.57958984375,0.1220703050494194,-0.8544921278953552,0.4272460639476776
584561,-0.0467529296875,-0.812744140625,0.5772705078125,-0.1831054538488388,-0.6713866591453552,0.54931640625
584577,-0.0489501953125,-0.8104248046875,0.5753173828125,-0.54931640625,-0.4882812201976776,0.4882812201976776
584594,-0.0523681640625,-0.8048095703125,0.5712890625,-0.6713866591453552,-0.3662109076976776,0.4882812201976776
584611,-0.052490234375,-0.8009033203125,0.5694580078125,-0.9765624403953552,0.0,0.54931640625
584660,-0.0543212890625,-0.816162109375,0.5933837890625,-1.4038084745407104,0.4272460639476776,0.6713866591453552
584713,-0.0494384765625,-0.827392578125,0.59912109375,-1.7089842557907104,0.7934569716453552,0.6713866591453552
584731,-0.0491943359375,-0.8228759765625,0.5994873046875,-1.9531248807907104,0.7934569716453552,0.4882812201976776
584747,-0.0465087890625,-0.815185546875,0.598388671875,-2.13623046875,0.7934569716453552,0.6103515625
584778,-0.0399169921875,-0.82568359375,0.6085205078125,-2.197265625,0.7324218153953552,0.4272460639476776
584794,-0.0379638671875,-0.816162109375,0.5982666015625,-2.13623046875,0.7324218153953552,0.30517578125
584811,-0.0379638671875,-0.810791015625,0.5947265625,-2.197265625,0.7324218153953552,0.30517578125
584847,-0.0345458984375,-0.803466796875,0.6016845703125,-1.8920897245407104,0.8544921278953552,0.30517578125
584893,-0.033203125,-0.8067626953125,0.6109619140625,-1.220703125,0.7934569716453552,0.1831054538488388
584989,-0.0386962890625,-0.8009033203125,0.6160888671875,0.54931640625,0.4882812201976776,-0.1831054538488388
585212,-0.0611572265625,-0.7945556640625,0.5794677734375,0.8544921278953552,0.2441406100988388,-0.1831054538488388
585229,-0.0596923828125,-0.7684326171875,0.5648193359375,0.9155272841453552,0.2441406100988388,-0.2441406100988388
585262,-0.051025390625,-0.746337890625,0.5599365234375,0.9155272841453552,0.4272460639476776,0.0
585279,-0.0439453125,-0.7305908203125,0.5528564453125,0.9765624403953552,0.4882812201976776,0.1220703050494194
585295,-0.03662109375,-0.7340087890625,0.5616455078125,0.9155272841453552,0.4272460639476776,0.1831054538488388
585311,-0.03466796875,-0.7298583984375,0.556884765625,0.9765624403953552,0.3662109076976776,0.1831054538488388
585389,-0.031982421875,-0.712158203125,0.532958984375,0.9765624403953552,0.1220703050494194,0.30517578125
585452,-0.0283203125,-0.6951904296875,0.5106201171875,-0.4272460639476776,-0.0610351525247097,0.3662109076976776
585469,-0.0308837890625,-0.65869140625,0.4783935546875,-0.9155272841453552,-0.0610351525247097,0.4272460639476776
585506,-0.03271484375,-0.6810302734375,0.4832763671875,-3.173827886581421,0.54931640625,1.2817381620407104
585540,-0.03076171875,-0.694091796875,0.5074462890625,-5.187987804412842,0.54931640625,1.15966796875
585572,-0.028564453125,-0.6533203125,0.4766845703125,-6.774901866912842,0.54931640625,1.2817381620407104
585616,-0.0313720703125,-0.7340087890625,0.54248046875,-8.72802734375,1.4038084745407104,2.13623046875
585752,-0.0223388671875,-0.713134765625,0.56689453125,-13.488768577575684,1.7700194120407104,1.5258787870407104
585780,-0.014404296875,-0.691162109375,0.57080078125,-13.732909202575684,2.44140625,2.25830078125
585814,-0.0191650390625,-0.779296875,0.653076171875,-12.878417015075684,3.112792730331421,2.624511480331421
585826,-0.0235595703125,-0.8046875,0.7005615234375,-11.718749046325684,2.01416015625,1.3427733182907104
585859,-0.0267333984375,-0.695556640625,0.6136474609375,-10.742186546325684,1.8310545682907104,1.15966796875
585893,-0.0238037109375,-0.7529296875,0.677001953125,-8.60595703125,3.601073980331421,2.929687261581421
586010,-0.01025390625,-0.77978515625,0.7373046875,0.7934569716453552,3.234863042831421,2.44140625
586055,-0.001953125,-0.8077392578125,0.7685546875,4.638671875,1.6479490995407104,0.8544921278953552
586072,0.00439453125,-0.7938232421875,0.7496337890625,6.530761241912842,1.4038084745407104,0.4882812201976776
586089,0.003662109375,-0.7838134765625,0.732177734375,7.324218273162842,1.220703125,0.4272460639476776
586109,-0.0003662109375,-0.765625,0.7008056640625,8.4228515625,0.9155272841453552,0.1831054538488388
586126,-0.0052490234375,-0.7777099609375,0.69873046875,9.33837890625,1.0986328125,0.3662109076976776
586143,-0.0062255859375,-0.7972412109375,0.719482421875,10.192870140075684,1.15966796875,0.30517578125
586160,-0.0120849609375,-0.8367919921875,0.7457275390625,11.291502952575684,0.7324218153953552,-0.1831054538488388
586180,-0.0159912109375,-0.8367919921875,0.75244140625,11.779784202575684,0.4272460639476776,-0.6103515625
586196,-0.0164794921875,-0.837646484375,0.741455078125,12.878417015075684,0.0,-0.9765624403953552
586213,-0.0135498046875,-0.8272705078125,0.7265625,13.488768577575684,-0.2441406100988388,-1.3427733182907104
586232,-0.01025390625,-0.8250732421875,0.7125244140625,13.916014671325684,0.0,-1.03759765625
586249,-0.0130615234375,-0.84375,0.728759765625,14.160155296325684,0.1831054538488388,-0.8544921278953552
586282,-0.0218505859375,-0.902099609375,0.7718505859375,14.648436546325684,-0.1220703050494194,-1.03759765625
586332,-0.0269775390625,-0.8746337890625,0.7196044921875,14.282225608825684,-0.6713866591453552,-1.5869139432907104
586350,-0.0333251953125,-0.8944091796875,0.7183837890625,13.732909202575684,-0.30517578125,-1.15966796875
586367,-0.0401611328125,-0.9058837890625,0.7108154296875,12.939452171325684,-0.2441406100988388,-1.0986328125
586396,-0.036376953125,-0.9154052734375,0.71875,12.023924827575684,-0.1220703050494194,-1.3427733182907104
586456,-0.0301513671875,-0.8822021484375,0.6806640625,10.192870140075684,0.1220703050494194,-0.9765624403953552
586494,-0.023193359375,-0.8516845703125,0.6536865234375,8.056640625,0.4272460639476776,-0.4882812201976776
586529,-0.0216064453125,-0.8614501953125,0.6583251953125,6.469726085662842,0.7324218153953552,-0.0610351525247097
586579,-0.016845703125,-0.8717041015625,0.667724609375,4.08935546875,0.4272460639476776,-0.3662109076976776
586653,-0.017578125,-0.84326171875,0.6326904296875,0.9155272841453552,0.30517578125,-0.0610351525247097
586687,-0.01416015625,-0.841064453125,0.6358642578125,-0.8544921278953552,0.3662109076976776,0.3662109076976776
586728,-0.01220703125,-0.8082275390625,0.602783203125,-2.624511480331421,0.6103515625,0.7934569716453552
586772,0.055419921875,-1.426513671875,0.9718017578125,2.0751953125,-1.3427733182907104,-2.50244140625
586789,0.02880859375,-1.0230712890625,0.7249755859375,1.8920897245407104,-4.7607421875,-7.568358898162842
586822,-0.0377197265625,-0.55859375,0.421142578125,9.033203125,1.7700194120407104,3.356933355331421
586839,-0.0064697265625,-1.0516357421875,0.794189453125,8.60595703125,2.0751953125,3.173827886581421
586855,-0.01025390625,-1.21337890625,0.8961181640625,2.563476324081421,-1.5258787870407104,-1.5869139432907104
586872,-0.0206298828125,-0.6435546875,0.504638671875,2.3193359375,-2.0751953125,-1.9531248807907104
586927,-0.00537109375,-0.8157958984375,0.5665283203125,2.3193359375,-1.4648436307907104,-1.15966796875
586952,-0.0272216796875,-0.9000244140625,0.6474609375,2.685546636581421,-0.4272460639476776,0.0610351525247097
586964,-0.02978515625,-0.8743896484375,0.6402587890625,1.6479490995407104,-0.6713866591453552,-0.6103515625
586996,-0.0303955078125,-0.82666015625,0.593994140625,1.7700194120407104,-0.4882812201976776,0.1220703050494194
587013,-0.0186767578125,-0.8319091796875,0.596435546875,0.7934569716453552,-0.7934569716453552,-0.1220703050494194
587029,-0.01708984375,-0.811279296875,0.5772705078125,0.4882812201976776,-0.6713866591453552,-0.1831054538488388
587061,-0.026611328125,-0.816162109375,0.6004638671875,-0.7934569716453552,-0.2441406100988388,0.1220703050494194
587097,-0.022705078125,-0.8187255859375,0.6014404296875,-0.8544921278953552,-0.3662109076976776,0.1220703050494194
587133,-0.0225830078125,-0.8138427734375,0.5914306640625,-1.3427733182907104,-0.3662109076976776,0.0610351525247097
587167,-0.02197265625,-0.82080078125,0.611083984375,-1.8310545682907104,-0.2441406100988388,0.30517578125
587203,-0.0240478515625,-0.81298828125,0.6016845703125,-1.5869139432907104,-0.1831054538488388,0.30517578125
587252,-0.0191650390625,-0.8082275390625,0.609619140625,-1.4038084745407104,-0.1220703050494194,0.30517578125
587269,-0.0206298828125,-0.808349609375,0.609619140625,-1.0986328125,-0.1831054538488388,0.3662109076976776
587306,-0.0238037109375,-0.810302734375,0.6068115234375,-0.54931640625,-0.2441406100988388,0.2441406100988388
587323,-0.021728515625,-0.8074951171875,0.607421875,-0.3662109076976776,-0.2441406100988388,0.2441406100988388
587340,-0.0216064453125,-0.8065185546875,0.606201171875,-0.1831054538488388,-0.2441406100988388,0.30517578125
587356,-0.0230712890625,-0.807861328125,0.610107421875,0.0610351525247097,-0.30517578125,0.2441406100988388
587378,-0.0247802734375,-0.80712890625,0.6064453125,0.2441406100988388,-0.2441406100988388,0.30517578125
587394,-0.0218505859375,-0.81298828125,0.606201171875,0.3662109076976776,-0.2441406100988388,0.30517578125
587461,-0.0206298828125,-0.8077392578125,0.60693359375,0.9765624403953552,-0.2441406100988388,0.3662109076976776
587492,-0.024169921875,-0.8092041015625,0.6058349609375,1.15966796875,-0.30517578125,0.2441406100988388
587504,-0.0250244140625,-0.807373046875,0.605224609375,1.3427733182907104,-0.1831054538488388,0.2441406100988388
587537,-0.02197265625,-0.8104248046875,0.6092529296875,1.7089842557907104,-0.30517578125,0.1831054538488388
587554,-0.021728515625,-0.8065185546875,0.6058349609375,2.01416015625,-0.3662109076976776,0.1831054538488388
587571,-0.023193359375,-0.8067626953125,0.604736328125,2.0751953125,-0.3662109076976776,0.2441406100988388
587592,-0.0242919921875,-0.8114013671875,0.60400390625,2.25830078125,-0.4272460639476776,0.2441406100988388
587611,-0.0233154296875,-0.812255859375,0.6041259765625,2.3193359375,-0.30517578125,0.30517578125
587627,-0.0228271484375,-0.8094482421875,0.602783203125,2.25830078125,-0.30517578125,0.30517578125
587660,-0.0234375,-0.8131103515625,0.6011962890625,2.13623046875,-0.3662109076976776,0.1831054538488388
587677,-0.0240478515625,-0.8160400390625,0.60205078125,1.8920897245407104,-0.3662109076976776,0.2441406100988388
587694,-0.0238037109375,-0.815673828125,0.59912109375,1.5869139432907104,-0.30517578125,0.2441406100988388
587710,-0.0234375,-0.8143310546875,0.59814453125,1.4038084745407104,-0.2441406100988388,0.2441406100988388
587730,-0.022705078125,-0.8109130859375,0.6005859375,1.2817381620407104,-0.30517578125,0.2441406100988388
587750,-0.02490234375,-0.8145751953125,0.601318359375,1.2817381620407104,-0.30517578125,0.2441406100988388
587766,-0.0230712890625,-0.8138427734375,0.6004638671875,1.15966796875,-0.30517578125,0.30517578125
587787,-0.0223388671875,-0.8148193359375,0.6015625,0.9765624403953552,-0.2441406100988388,0.30517578125
587803,-0.023681640625,-0.811279296875,0.5975341796875,0.8544921278953552,-0.2441406100988388,0.2441406100988388
587820,-0.0240478515625,-0.812255859375,0.599609375,0.7324218153953552,-0.30517578125,0.30517578125
587836,-0.022705078125,-0.8150634765625,0.603515625,0.7324218153953552,-0.2441406100988388,0.30517578125
587853,-0.02294921875,-0.811279296875,0.600830078125,0.7324218153953552,-0.2441406100988388,0.30517578125
587917,-0.0235595703125,-0.8157958984375,0.6007080078125,0.30517578125,-0.2441406100988388,0.30517578125
587969,-0.0235595703125,-0.81591796875,0.6029052734375,0.0610351525247097,-0.1831054538488388,0.3662109076976776
588016,-0.0225830078125,-0.815185546875,0.6009521484375,-0.30517578125,-0.2441406100988388,0.30517578125
588049,-0.02392578125,-0.8121337890625,0.6007080078125,-0.54931640625,-0.1831054538488388,0.3662109076976776
588096,-0.0230712890625,-0.813720703125,0.6019287109375,-0.8544921278953552,-0.1831054538488388,0.3662109076976776
588113,-0.0228271484375,-0.81298828125,0.6024169921875,-0.9765624403953552,-0.1831054538488388,0.3662109076976776
588146,-0.0235595703125,-0.8131103515625,0.60546875,-1.15966796875,-0.1831054538488388,0.3662109076976776
588212,-0.0220947265625,-0.8104248046875,0.60546875,-1.2817381620407104,-0.2441406100988388,0.3662109076976776
588229,-0.022216796875,-0.8076171875,0.6064453125,-1.15966796875,-0.1831054538488388,0.3662109076976776
588262,-0.0228271484375,-0.8074951171875,0.6082763671875,-1.03759765625,-0.1831054538488388,0.3662109076976776
588295,-0.0225830078125,-0.806396484375,0.6068115234375,-0.9765624403953552,-0.1220703050494194,0.30517578125
588337,-0.022216796875,-0.80712890625,0.6102294921875,-0.8544921278953552,-0.1831054538488388,0.4272460639476776
588354,-0.0224609375,-0.80615234375,0.6109619140625,-0.8544921278953552,-0.1220703050494194,0.3662109076976776
588371,-0.0225830078125,-0.8060302734375,0.6104736328125,-0.7934569716453552,-0.1831054538488388,0.30517578125
588388,-0.023681640625,-0.8060302734375,0.610595703125,-0.7324218153953552,-0.1831054538488388,0.30517578125
588437,-0.022705078125,-0.8026123046875,0.6102294921875,-0.6713866591453552,-0.1831054538488388,0.3662109076976776
588455,-0.0228271484375,-0.8045654296875,0.6142578125,-0.54931640625,-0.1831054538488388,0.4272460639476776
588471,-0.0224609375,-0.8060302734375,0.6160888671875,-0.4882812201976776,-0.2441406100988388,0.4272460639476776
588488,-0.0218505859375,-0.8040771484375,0.611083984375,-0.4272460639476776,-0.2441406100988388,0.4272460639476776
588507,-0.022216796875,-0.8035888671875,0.6104736328125,-0.4272460639476776,-0.1831054538488388,0.3662109076976776
588554,-0.022705078125,-0.805419921875,0.6131591796875,-0.3662109076976776,-0.1831054538488388,0.3662109076976776
588574,-0.0233154296875,-0.8048095703125,0.6136474609375,-0.3662109076976776,-0.1831054538488388,0.30517578125
588595,-0.0224609375,-0.804931640625,0.6146240234375,-0.3662109076976776,-0.2441406100988388,0.30517578125
588611,-0.0216064453125,-0.8026123046875,0.61474609375,-0.3662109076976776,-0.1831054538488388,0.3662109076976776
588692,-0.0224609375,-0.804443359375,0.6142578125,-0.54931640625,-0.1831054538488388,0.4272460639476776
588823,-0.0234375,-0.8001708984375,0.6168212890625,0.1831054538488388,-0.2441406100988388,0.3662109076976776
588992,-0.0225830078125,-0.8013916015625,0.62060546875,1.6479490995407104,-0.1831054538488388,0.4882812201976776
589004,-0.0203857421875,-0.7960205078125,0.6212158203125,1.8310545682907104,-0.1831054538488388,0.4882812201976776
589037,-0.0206298828125,-0.799560546875,0.6195068359375,2.44140625,-0.1831054538488388,0.4272460639476776
589054,-0.0225830078125,-0.7999267578125,0.6156005859375,2.685546636581421,-0.2441406100988388,0.54931640625
589071,-0.0244140625,-0.8028564453125,0.614013671875,2.746581792831421,-0.1220703050494194,0.4882812201976776
589107,-0.0186767578125,-0.8045654296875,0.6202392578125,2.929687261581421,-0.1831054538488388,0.4882812201976776
589123,-0.018310546875,-0.8016357421875,0.6126708984375,3.051757574081421,-0.3662109076976776,0.4882812201976776
589140,-0.0238037109375,-0.8089599609375,0.6087646484375,3.051757574081421,-0.3662109076976776,0.4272460639476776
589156,-0.0242919921875,-0.809326171875,0.6058349609375,2.685546636581421,-0.30517578125,0.2441406100988388
589173,-0.02294921875,-0.8079833984375,0.6065673828125,2.25830078125,-0.2441406100988388,0.3662109076976776
589222,-0.0211181640625,-0.811767578125,0.611572265625,1.5258787870407104,-0.30517578125,0.4272460639476776
589239,-0.02392578125,-0.8134765625,0.5999755859375,0.9155272841453552,-0.2441406100988388,0.3662109076976776
589290,-0.02001953125,-0.8056640625,0.608154296875,-0.4882812201976776,-0.1220703050494194,0.30517578125
589353,-0.02197265625,-0.814208984375,0.6072998046875,-2.197265625,0.0,0.6713866591453552
589387,-0.0208740234375,-0.80322265625,0.61279296875,-3.051757574081421,-0.0610351525247097,0.6103515625
589417,-0.0238037109375,-0.80859375,0.61328125,-3.723144292831421,0.0,0.4882812201976776
589429,-0.02099609375,-0.811279296875,0.6112060546875,-4.45556640625,0.0,0.6103515625
589466,-0.0196533203125,-0.8040771484375,0.6094970703125,-5.615233898162842,0.0610351525247097,0.6103515625
589482,-0.0205078125,-0.804931640625,0.616943359375,-6.225585460662842,0.1220703050494194,0.7324218153953552
589499,-0.021728515625,-0.80126953125,0.6170654296875,-6.896972179412842,0.1831054538488388,0.7324218153953552
589514,-0.0223388671875,-0.8037109375,0.6177978515625,-7.263183116912842,0.2441406100988388,0.7324218153953552
589534,-0.0203857421875,-0.8021240234375,0.620361328125,-7.934569835662842,0.2441406100988388,0.8544921278953552
589551,-0.0174560546875,-0.7998046875,0.6199951171875,-8.23974609375,0.2441406100988388,0.9155272841453552
589568,-0.016845703125,-0.7943115234375,0.622314453125,-8.97216796875,0.4882812201976776,0.9765624403953552
589588,-0.021484375,-0.7982177734375,0.6312255859375,-9.46044921875,0.4882812201976776,1.2817381620407104
589653,-0.0206298828125,-0.8076171875,0.65380859375,-11.291502952575684,2.624511480331421,3.540038824081421
589715,0.0086669921875,-1.1011962890625,0.9583740234375,-2.685546636581421,0.9765624403953552,2.990722417831421
589727,0.0157470703125,-1.1339111328125,0.9940185546875,-0.6713866591453552,0.7324218153953552,3.173827886581421
589757,0.013427734375,-1.0941162109375,0.9344482421875,4.39453125,0.0,3.295898199081421
589773,0.0091552734375,-1.07275390625,0.90625,7.080077648162842,-0.1220703050494194,3.601073980331421
589790,0.0028076171875,-1.0416259765625,0.8861083984375,9.82666015625,0.30517578125,4.5166015625
589825,-0.006103515625,-1.0860595703125,0.91259765625,14.526366233825684,0.0,4.69970703125
589858,-0.005126953125,-1.08349609375,0.9095458984375,18.85986328125,-0.8544921278953552,4.45556640625
589895,-0.009765625,-1.0606689453125,0.868896484375,23.925779342651367,-1.2817381620407104,4.69970703125
589912,-0.0142822265625,-1.022216796875,0.8140869140625,24.841306686401367,-1.5258787870407104,4.638671875
589929,-0.0150146484375,-1.00439453125,0.7945556640625,26.062009811401367,-1.4038084745407104,4.94384765625
589981,-0.010986328125,-0.9969482421875,0.7593994140625,28.930662155151367,-2.3193359375,4.7607421875
590012,-0.014404296875,-0.9261474609375,0.6895751953125,29.418943405151367,-2.3193359375,4.94384765625
590029,-0.013427734375,-0.930419921875,0.690673828125,29.907224655151367,-2.38037109375,5.126952648162842
590062,-0.013427734375,-0.8582763671875,0.612060546875,29.724119186401367,-2.807616949081421,5.249022960662842
590079,-0.013427734375,-0.8558349609375,0.60009765625,29.602048873901367,-2.868652105331421,5.371093273162842
590117,-0.0126953125,-0.847412109375,0.565673828125,28.869626998901367,-3.601073980331421,4.57763671875
590208,-0.009521484375,-0.632080078125,0.3992919921875,25.024412155151367,-4.638671875,3.417968511581421
590252,-0.0135498046875,-0.5662841796875,0.334716796875,23.376462936401367,-5.554198741912842,2.0751953125
590269,-0.0111083984375,-0.5435791015625,0.3204345703125,22.399900436401367,-5.798339366912842,1.4648436307907104
590302,-0.00341796875,-0.4263916015625,0.23828125,19.1650390625,-6.042479991912842,0.8544921278953552
590372,-0.0052490234375,-0.4036865234375,0.1864013671875,13.305663108825684,-5.920409679412842,1.03759765625
590389,-0.0037841796875,-0.427001953125,0.2005615234375,14.221190452575684,-5.676269054412842,0.7324218153953552
590418,0.0069580078125,-0.523193359375,0.2381591796875,11.840819358825684,-5.737304210662842,0.2441406100988388
590435,0.008544921875,-0.5491943359375,0.2384033203125,10.437010765075684,-5.676269054412842,0.3662109076976776
590451,0.012939453125,-0.639892578125,0.283447265625,9.8876953125,-5.310058116912842,0.4882812201976776
590484,0.0037841796875,-0.78759765625,0.3564453125,5.310058116912842,-4.45556640625,0.7324218153953552
590503,0.0032958984375,-0.8380126953125,0.3935546875,4.45556640625,-4.45556640625,0.7324218153953552
590519,0.0006103515625,-0.9373779296875,0.455078125,3.295898199081421,-4.21142578125,0.7934569716453552
590536,0.0013427734375,-1.0279541015625,0.5224609375,3.051757574081421,-4.21142578125,0.8544921278953552
590553,-0.00048828125,-1.053466796875,0.5277099609375,2.563476324081421,-4.7607421875,0.1220703050494194
590569,-0.0013427734375,-1.0281982421875,0.5079345703125,1.7089842557907104,-4.94384765625,-0.4272460639476776
590599,-0.0009765625,-0.9139404296875,0.4105224609375,0.0,-4.39453125,0.0610351525247097
590615,0.000244140625,-0.908203125,0.4073486328125,-1.15966796875,-3.540038824081421,0.9765624403953552
590631,0.0042724609375,-0.9271240234375,0.422119140625,-1.7700194120407104,-3.234863042831421,1.220703125
590669,0.0072021484375,-0.87060546875,0.3970947265625,-4.69970703125,-3.051757574081421,1.03759765625
590685,0.0093994140625,-0.8597412109375,0.38916015625,-5.493163585662842,-2.685546636581421,1.4038084745407104
590702,0.0106201171875,-0.8699951171875,0.3929443359375,-7.324218273162842,-2.197265625,1.7089842557907104
590719,0.0103759765625,-0.87890625,0.4024658203125,-9.33837890625,-2.0751953125,1.3427733182907104
590735,0.011474609375,-0.8603515625,0.39111328125,-10.314940452575684,-2.0751953125,1.2817381620407104
590752,0.014404296875,-0.8922119140625,0.4237060546875,-11.718749046325684,-1.4648436307907104,1.6479490995407104
590769,0.015625,-0.908447265625,0.438232421875,-12.817381858825684,-1.220703125,1.3427733182907104
590789,0.018798828125,-0.919677734375,0.4617919921875,-13.305663108825684,-1.4038084745407104,0.7934569716453552
590810,0.0169677734375,-0.9111328125,0.45703125,-13.610838890075684,-1.3427733182907104,0.4882812201976776
590826,0.018798828125,-0.9171142578125,0.46337890625,-13.671874046325684,-1.220703125,0.4272460639476776
590846,0.0198974609375,-0.9285888671875,0.4686279296875,-13.793944358825684,-1.0986328125,0.1831054538488388
590863,0.018798828125,-0.9266357421875,0.466064453125,-13.916014671325684,-1.03759765625,-0.2441406100988388
590879,0.0164794921875,-0.915283203125,0.4620361328125,-13.854979515075684,-0.7324218153953552,-0.30517578125
590929,0.00927734375,-0.918212890625,0.4908447265625,-13.244627952575684,-0.3662109076976776,-0.8544921278953552
590970,0.0042724609375,-0.8865966796875,0.4818115234375,-12.268065452575684,0.0,-1.15966796875
591020,0.0003662109375,-0.845458984375,0.46923828125,-11.169432640075684,0.7324218153953552,-1.0986328125
591037,-0.002685546875,-0.844482421875,0.4776611328125,-10.437010765075684,0.9765624403953552,-1.03759765625
591089,-0.006591796875,-0.8519287109375,0.4981689453125,-8.30078125,1.5258787870407104,-0.9765624403953552
591111,-0.0084228515625,-0.84423828125,0.48974609375,-7.446288585662842,1.7700194120407104,-0.9765624403953552
591127,-0.008544921875,-0.8404541015625,0.488525390625,-6.958007335662842,1.8920897245407104,-0.9155272841453552
591146,-0.0096435546875,-0.8436279296875,0.4942626953125,-5.798339366912842,2.197265625,-0.8544921278953552
591196,-0.005126953125,-0.8470458984375,0.4954833984375,-1.9531248807907104,2.624511480331421,-1.03759765625
591214,-0.00390625,-0.8497314453125,0.49609375,-0.6713866591453552,2.624511480331421,-1.15966796875
591230,-0.003173828125,-0.847900390625,0.4942626953125,-0.0610351525247097,2.624511480331421,-1.220703125
591268,-0.0037841796875,-0.8419189453125,0.4893798828125,1.5258787870407104,2.624511480331421,-1.6479490995407104
591284,0.0001220703125,-0.84814453125,0.4876708984375,2.13623046875,2.624511480331421,-1.7700194120407104
591296,-0.00048828125,-0.8394775390625,0.47998046875,2.25830078125,2.44140625,-2.197265625
591313,-0.0010986328125,-0.835693359375,0.475341796875,2.13623046875,2.44140625,-2.3193359375
591331,-0.0006103515625,-0.8306884765625,0.4705810546875,1.4648436307907104,2.38037109375,-2.624511480331421
591347,-0.0001220703125,-0.8260498046875,0.467041015625,0.8544921278953552,2.50244140625,-2.868652105331421
591379,-0.001220703125,-0.8271484375,0.4813232421875,0.0610351525247097,2.197265625,-3.540038824081421
591399,-0.00244140625,-0.813232421875,0.4732666015625,-0.3662109076976776,2.13623046875,-3.601073980331421
591415,-0.00634765625,-0.8167724609375,0.4749755859375,-0.54931640625,2.197265625,-3.662109136581421
591432,-0.00927734375,-0.8193359375,0.47607421875,-0.7324218153953552,2.0751953125,-3.784179449081421
591451,-0.0147705078125,-0.8116455078125,0.4716796875,-1.220703125,1.8310545682907104,-4.2724609375
591468,-0.0184326171875,-0.7625732421875,0.438720703125,-1.8310545682907104,1.7700194120407104,-4.5166015625
591501,-0.0203857421875,-0.7506103515625,0.4215087890625,-3.479003667831421,2.44140625,-3.723144292831421
591573,-0.0228271484375,-0.76318359375,0.448486328125,-5.737304210662842,2.746581792831421,-3.479003667831421
591691,-0.0291748046875,-0.812255859375,0.5015869140625,-8.056640625,3.234863042831421,-3.051757574081421
591708,-0.030029296875,-0.80859375,0.5169677734375,-8.1787109375,3.234863042831421,-3.051757574081421
591738,-0.0286865234375,-0.7548828125,0.49072265625,-8.30078125,2.624511480331421,-3.295898199081421
591770,-0.03173828125,-0.728271484375,0.4759521484375,-8.6669921875,3.784179449081421,-1.4648436307907104
591832,-0.026611328125,-0.8291015625,0.5760498046875,-5.187987804412842,3.479003667831421,-1.8310545682907104
591894,-0.0137939453125,-0.7545166015625,0.5166015625,-3.234863042831421,4.45556640625,0.0610351525247097
591931,-0.0068359375,-0.825927734375,0.5865478515625,-1.8920897245407104,4.0283203125,-0.6713866591453552
591947,-0.0074462890625,-0.7911376953125,0.5662841796875,-1.03759765625,3.479003667831421,-1.15966796875
591977,-0.011962890625,-0.801025390625,0.5694580078125,-0.1220703050494194,3.417968511581421,-0.7934569716453552
591993,-0.012939453125,-0.808349609375,0.5743408203125,0.30517578125,3.295898199081421,-0.7934569716453552
592010,-0.013916015625,-0.805908203125,0.5784912109375,0.7934569716453552,3.112792730331421,-0.9155272841453552
592046,-0.01513671875,-0.800048828125,0.5750732421875,1.8920897245407104,2.746581792831421,-0.7324218153953552
592062,-0.0191650390625,-0.7996826171875,0.5625,2.25830078125,2.624511480331421,-0.54931640625
592079,-0.0218505859375,-0.796142578125,0.560546875,2.44140625,2.563476324081421,-0.4882812201976776
592095,-0.0220947265625,-0.8004150390625,0.5631103515625,2.868652105331421,2.624511480331421,-0.1831054538488388
592113,-0.0194091796875,-0.8287353515625,0.58984375,3.601073980331421,2.50244140625,0.0
592130,-0.01904296875,-0.84228515625,0.5960693359375,4.33349609375,2.0751953125,-0.30517578125
592168,-0.01904296875,-0.841552734375,0.5955810546875,5.371093273162842,1.8310545682907104,-0.1831054538488388
592180,-0.019287109375,-0.8326416015625,0.5892333984375,5.920409679412842,1.5258787870407104,-0.1220703050494194
592197,-0.02001953125,-0.82958984375,0.582275390625,6.164550304412842,1.5258787870407104,0.0610351525247097
592213,-0.017333984375,-0.833984375,0.587158203125,6.530761241912842,1.4648436307907104,0.3662109076976776
592279,-0.0203857421875,-0.849609375,0.5821533203125,7.995604991912842,0.8544921278953552,0.54931640625
592301,-0.0189208984375,-0.8436279296875,0.573974609375,8.1787109375,0.8544921278953552,0.7324218153953552
592317,-0.0162353515625,-0.8433837890625,0.5733642578125,8.1787109375,0.7324218153953552,0.9765624403953552
592334,-0.0167236328125,-0.8424072265625,0.5662841796875,8.1787109375,0.6103515625,1.220703125
592384,-0.0106201171875,-0.8665771484375,0.5777587890625,8.36181640625,0.3662109076976776,1.4648436307907104
592434,-0.00537109375,-0.8638916015625,0.5623779296875,8.36181640625,-0.30517578125,1.0986328125
592472,-0.005859375,-0.898681640625,0.5814208984375,8.1787109375,-0.4272460639476776,1.2817381620407104
592488,-0.006591796875,-0.8984375,0.5806884765625,8.23974609375,-0.7324218153953552,0.9155272841453552
592521,-0.00830078125,-0.915283203125,0.5914306640625,8.6669921875,-0.9765624403953552,0.8544921278953552
592585,-0.0137939453125,-0.886474609375,0.56396484375,9.1552734375,-1.7089842557907104,0.54931640625
592654,-0.0169677734375,-0.9422607421875,0.58251953125,10.070799827575684,-2.3193359375,0.4272460639476776
592671,-0.0128173828125,-0.920166015625,0.5699462890625,10.192870140075684,-2.38037109375,0.4882812201976776
592688,-0.010986328125,-0.9130859375,0.5643310546875,10.253905296325684,-2.38037109375,0.7934569716453552
592708,-0.0111083984375,-0.9278564453125,0.5618896484375,10.070799827575684,-2.38037109375,1.15966796875
592725,-0.011962890625,-0.93408203125,0.561279296875,9.521484375,-2.44140625,1.220703125
592742,-0.011962890625,-0.9312744140625,0.54931640625,9.09423828125,-2.38037109375,1.220703125
592758,-0.00732421875,-0.932861328125,0.5509033203125,8.9111328125,-2.38037109375,1.2817381620407104
592778,-0.00390625,-0.9417724609375,0.5599365234375,8.48388671875,-2.38037109375,1.4038084745407104
592794,0.001220703125,-0.9599609375,0.5726318359375,7.873534679412842,-2.624511480331421,1.3427733182907104
592806,0.0001220703125,-0.9716796875,0.57275390625,7.568358898162842,-2.746581792831421,1.2817381620407104
592824,-0.0018310546875,-0.9677734375,0.56298828125,7.263183116912842,-2.868652105331421,1.0986328125
592841,0.0,-0.965087890625,0.5576171875,6.652831554412842,-2.990722417831421,0.8544921278953552
592906,0.0068359375,-0.97119140625,0.5526123046875,4.82177734375,-3.479003667831421,0.2441406100988388
592951,0.003662109375,-0.9349365234375,0.524658203125,3.417968511581421,-4.150390625,-0.7324218153953552
592967,0.00341796875,-0.9346923828125,0.524658203125,2.50244140625,-4.08935546875,-0.6713866591453552
592997,-0.0069580078125,-0.920166015625,0.5146484375,0.9765624403953552,-4.2724609375,-0.9155272841453552
593013,-0.00927734375,-0.9091796875,0.5062255859375,0.1831054538488388,-4.2724609375,-0.9155272841453552
593030,-0.0078125,-0.8948974609375,0.4951171875,-0.1831054538488388,-4.21142578125,-0.7934569716453552
593067,-0.008544921875,-0.8826904296875,0.482177734375,-2.0751953125,-3.906249761581421,-0.1831054538488388
593116,-0.0164794921875,-0.8392333984375,0.45849609375,-4.33349609375,-3.234863042831421,0.9765624403953552
593149,-0.0191650390625,-1.297607421875,0.53076171875,6.469726085662842,-3.662109136581421,-1.5869139432907104
593192,-0.0244140625,-0.68994140625,0.400634765625,10.620116233825684,-4.150390625,-5.432128429412842
593204,-0.0347900390625,-0.7703857421875,0.3922119140625,12.023924827575684,-3.845214605331421,-4.33349609375
593237,-0.0716552734375,-0.766357421875,0.3800048828125,6.530761241912842,-1.5869139432907104,-1.0986328125
593253,-0.0736083984375,-1.06982421875,0.5185546875,-0.1831054538488388,1.5258787870407104,2.3193359375
593305,-0.0064697265625,-0.73876953125,0.3892822265625,-1.2817381620407104,-0.6713866591453552,-1.9531248807907104
593435,-0.0343017578125,-0.9090576171875,0.5020751953125,-2.990722417831421,-0.30517578125,0.30517578125
593452,-0.02880859375,-0.8646240234375,0.4732666015625,-2.746581792831421,-0.4882812201976776,-0.0610351525247097
593469,-0.0340576171875,-0.88525390625,0.458251953125,-2.563476324081421,-0.4882812201976776,0.2441406100988388
593489,-0.02978515625,-0.8951416015625,0.48291015625,-2.868652105331421,-0.1220703050494194,0.2441406100988388
593506,-0.029296875,-0.8790283203125,0.4852294921875,-2.50244140625,0.0,0.1831054538488388
593523,-0.0303955078125,-0.8699951171875,0.4949951171875,-2.01416015625,-0.3662109076976776,0.1831054538488388
593540,-0.0330810546875,-0.8687744140625,0.48095703125,-1.7700194120407104,-0.3662109076976776,0.2441406100988388
593561,-0.0318603515625,-0.8948974609375,0.4888916015625,-1.6479490995407104,-0.3662109076976776,0.30517578125
593577,-0.0291748046875,-0.8828125,0.4764404296875,-1.7089842557907104,-0.1220703050494194,0.1220703050494194
593594,-0.0323486328125,-0.879638671875,0.4920654296875,-1.5258787870407104,-0.0610351525247097,0.1831054538488388
593613,-0.03271484375,-0.8804931640625,0.4993896484375,-0.9765624403953552,-0.0610351525247097,0.2441406100988388
593630,-0.03076171875,-0.868896484375,0.4964599609375,-0.0610351525247097,-0.3662109076976776,0.2441406100988388
593663,-0.0313720703125,-0.8841552734375,0.4820556640625,0.7324218153953552,-0.30517578125,0.1831054538488388
593711,-0.030029296875,-0.8736572265625,0.4920654296875,1.7700194120407104,-0.3662109076976776,0.0
593731,-0.0306396484375,-0.87890625,0.498779296875,2.624511480331421,-0.4272460639476776,0.1220703050494194
593753,-0.0313720703125,-0.8780517578125,0.4893798828125,3.295898199081421,-0.4272460639476776,0.1831054538488388
593769,-0.0311279296875,-0.8778076171875,0.485107421875,3.845214605331421,-0.4882812201976776,0.0610351525247097
593788,-0.0296630859375,-0.876953125,0.4921875,4.39453125,-0.4882812201976776,0.0
593805,-0.031982421875,-0.879150390625,0.4879150390625,4.7607421875,-0.4882812201976776,0.0610351525247097
593834,-0.0322265625,-0.8846435546875,0.4830322265625,5.859374523162842,-0.4882812201976776,0.1220703050494194
593854,-0.03125,-0.8800048828125,0.4803466796875,6.286620616912842,-0.54931640625,0.0610351525247097
593900,-0.033203125,-0.88623046875,0.4808349609375,7.629394054412842,-0.54931640625,0.0610351525247097
593921,-0.03173828125,-0.886474609375,0.4791259765625,8.11767578125,-0.6103515625,0.0610351525247097
593937,-0.03173828125,-0.88623046875,0.472412109375,8.4228515625,-0.54931640625,0.0
593954,-0.03271484375,-0.887451171875,0.4700927734375,8.9111328125,-0.6103515625,0.0
593973,-0.0325927734375,-0.88671875,0.4683837890625,9.33837890625,-0.6713866591453552,-0.0610351525247097
593990,-0.033203125,-0.8900146484375,0.4678955078125,9.765625,-0.6713866591453552,-0.0610351525247097
594023,-0.0338134765625,-0.8966064453125,0.457275390625,10.070799827575684,-0.7324218153953552,-0.1831054538488388
594073,-0.033935546875,-0.899169921875,0.4517822265625,10.192870140075684,-0.6713866591453552,-0.1220703050494194
594091,-0.034912109375,-0.9022216796875,0.4501953125,10.131834983825684,-0.6713866591453552,-0.1220703050494194
594141,-0.0340576171875,-0.9061279296875,0.438232421875,9.765625,-0.6713866591453552,-0.0610351525247097
594157,-0.0341796875,-0.906982421875,0.4337158203125,9.3994140625,-0.6713866591453552,-0.0610351525247097
594174,-0.0355224609375,-0.909912109375,0.432373046875,9.21630859375,-0.6713866591453552,-0.0610351525247097
594195,-0.0357666015625,-0.91015625,0.4324951171875,8.85009765625,-0.6103515625,-0.1220703050494194
594211,-0.0343017578125,-0.908935546875,0.4285888671875,8.48388671875,-0.6103515625,-0.0610351525247097
594228,-0.03369140625,-0.9119873046875,0.4248046875,8.30078125,-0.6103515625,0.0
594261,-0.0367431640625,-0.9150390625,0.42236328125,7.446288585662842,-0.6103515625,0.0
594278,-0.03759765625,-0.9102783203125,0.4195556640625,7.019042491912842,-0.54931640625,0.0610351525247097
594295,-0.0367431640625,-0.9156494140625,0.4205322265625,6.652831554412842,-0.4882812201976776,0.0610351525247097
594312,-0.0360107421875,-0.9136962890625,0.417236328125,6.530761241912842,-0.4882812201976776,0.0610351525247097
594385,-0.037109375,-0.917236328125,0.4119873046875,5.065917491912842,-0.4272460639476776,0.0610351525247097
594456,-0.0367431640625,-0.9205322265625,0.4071044921875,3.601073980331421,-0.4272460639476776,0.1831054538488388
594473,-0.0382080078125,-0.9202880859375,0.4058837890625,3.112792730331421,-0.3662109076976776,0.1831054538488388
594490,-0.038818359375,-0.919921875,0.405029296875,2.868652105331421,-0.3662109076976776,0.1831054538488388
594542,-0.0372314453125,-0.9163818359375,0.4014892578125,1.3427733182907104,-0.30517578125,0.2441406100988388
594572,-0.0369873046875,-0.9215087890625,0.404296875,0.7324218153953552,-0.2441406100988388,0.30517578125
594589,-0.036376953125,-0.91748046875,0.4041748046875,0.54931640625,-0.2441406100988388,0.30517578125
594622,-0.0382080078125,-0.9193115234375,0.4039306640625,-0.30517578125,-0.1831054538488388,0.30517578125
594639,-0.0367431640625,-0.9195556640625,0.4041748046875,-0.6713866591453552,-0.1831054538488388,0.3662109076976776
594676,-0.0362548828125,-0.9190673828125,0.4080810546875,-1.220703125,-0.1220703050494194,0.3662109076976776
594710,-0.03564453125,-0.9178466796875,0.4083251953125,-1.5869139432907104,-0.1831054538488388,0.4272460639476776
594752,-0.037109375,-0.915771484375,0.4117431640625,-2.0751953125,-0.1220703050494194,0.4272460639476776
594769,-0.03466796875,-0.9144287109375,0.4136962890625,-2.0751953125,-0.1220703050494194,0.4272460639476776
594802,-0.0357666015625,-0.9146728515625,0.4158935546875,-2.01416015625,-0.1220703050494194,0.3662109076976776
594872,-0.0362548828125,-0.9129638671875,0.4189453125,-2.0751953125,-0.1831054538488388,0.4272460639476776
594884,-0.0364990234375,-0.913818359375,0.4205322265625,-2.0751953125,-0.1831054538488388,0.4272460639476776
594915,-0.035888671875,-0.9097900390625,0.42041015625,-1.9531248807907104,-0.1831054538488388,0.4272460639476776
594948,-0.035888671875,-0.911865234375,0.4246826171875,-1.7700194120407104,-0.1831054538488388,0.4272460639476776
594991,-0.0350341796875,-0.90869140625,0.4256591796875,-1.4648436307907104,-0.1831054538488388,0.4272460639476776
595007,-0.035888671875,-0.911865234375,0.427978515625,-1.2817381620407104,-0.1831054538488388,0.30517578125
595038,-0.037353515625,-0.9080810546875,0.4263916015625,-0.8544921278953552,-0.1831054538488388,0.2441406100988388
595054,-0.035888671875,-0.9102783203125,0.42724609375,-0.6713866591453552,-0.2441406100988388,0.30517578125
595071,-0.033203125,-0.9061279296875,0.424560546875,-0.4272460639476776,-0.1831054538488388,0.30517578125
595107,-0.03759765625,-0.908935546875,0.4287109375,-0.0610351525247097,-0.1831054538488388,0.2441406100988388
595157,-0.0347900390625,-0.90673828125,0.4298095703125,0.8544921278953552,-0.2441406100988388,0.30517578125
595231,-0.0361328125,-0.90966796875,0.4251708984375,2.25830078125,-0.3662109076976776,0.1831054538488388
595248,-0.0369873046875,-0.907470703125,0.4246826171875,2.44140625,-0.3662109076976776,0.1220703050494194
595281,-0.0361328125,-0.91162109375,0.4266357421875,2.685546636581421,-0.3662109076976776,0.1831054538488388
595315,-0.03564453125,-0.91015625,0.4256591796875,3.112792730331421,-0.3662109076976776,0.1220703050494194
595374,-0.036865234375,-0.9107666015625,0.42236328125,3.784179449081421,-0.4272460639476776,0.1220703050494194
595412,-0.0343017578125,-0.911376953125,0.424072265625,4.150390625,-0.3662109076976776,0.1220703050494194
595427,-0.03515625,-0.9161376953125,0.4217529296875,4.39453125,-0.6103515625,-0.0610351525247097
595474,-0.0364990234375,-0.913330078125,0.41845703125,5.0048828125,-0.4272460639476776,0.0610351525247097
595531,-0.036376953125,-0.9171142578125,0.4095458984375,5.615233898162842,-0.4272460639476776,0.1220703050494194
595543,-0.0367431640625,-0.918212890625,0.409423828125,5.737304210662842,-0.4272460639476776,0.1220703050494194
595576,-0.0390625,-0.9156494140625,0.407958984375,5.920409679412842,-0.4882812201976776,0.0
595609,-0.0362548828125,-0.9212646484375,0.404541015625,6.103515148162842,-0.54931640625,0.0
595654,-0.038330078125,-0.917724609375,0.3994140625,6.347655773162842,-0.54931640625,0.0610351525247097
595671,-0.0361328125,-0.9210205078125,0.39990234375,6.469726085662842,-0.54931640625,0.0
595688,-0.0360107421875,-0.9193115234375,0.39892578125,6.591796398162842,-0.6103515625,-0.0610351525247097
595708,-0.0390625,-0.924072265625,0.394287109375,6.591796398162842,-0.54931640625,0.0
595725,-0.039794921875,-0.92529296875,0.390625,6.530761241912842,-0.6103515625,0.1220703050494194
595742,-0.0384521484375,-0.924560546875,0.387451171875,6.347655773162842,-0.54931640625,0.1220703050494194
595758,-0.0379638671875,-0.9241943359375,0.3870849609375,6.225585460662842,-0.54931640625,0.0610351525247097
595778,-0.0386962890625,-0.9266357421875,0.387939453125,5.981444835662842,-0.4882812201976776,0.0
595794,-0.0380859375,-0.927001953125,0.3863525390625,5.859374523162842,-0.4882812201976776,0.0
595811,-0.03955078125,-0.9288330078125,0.3846435546875,5.737304210662842,-0.54931640625,0.0
595829,-0.0396728515625,-0.927490234375,0.3817138671875,5.554198741912842,-0.4882812201976776,0.0610351525247097
595846,-0.039794921875,-0.9298095703125,0.3785400390625,5.249022960662842,-0.4272460639476776,0.1831054538488388
595909,-0.0389404296875,-0.9307861328125,0.375,4.0283203125,-0.4272460639476776,0.1831054538488388
595951,-0.0399169921875,-0.93212890625,0.3729248046875,3.356933355331421,-0.4272460639476776,0.1831054538488388
595968,-0.041259765625,-0.9315185546875,0.3731689453125,2.990722417831421,-0.3662109076976776,0.1831054538488388
596001,-0.0382080078125,-0.9329833984375,0.36962890625,2.38037109375,-0.30517578125,0.2441406100988388
596035,-0.0399169921875,-0.93505859375,0.370849609375,1.4648436307907104,-0.30517578125,0.2441406100988388
596094,-0.0396728515625,-0.931396484375,0.371337890625,0.7324218153953552,-0.2441406100988388,0.2441406100988388
596131,-0.037841796875,-0.9306640625,0.374267578125,0.4272460639476776,-0.2441406100988388,0.30517578125
596147,-0.0386962890625,-0.9334716796875,0.373779296875,0.3662109076976776,-0.2441406100988388,0.30517578125
596178,-0.0390625,-0.9322509765625,0.3714599609375,0.0610351525247097,-0.1831054538488388,0.3662109076976776
596194,-0.038818359375,-0.9326171875,0.371337890625,-0.2441406100988388,-0.1831054538488388,0.30517578125
596211,-0.0404052734375,-0.931396484375,0.374267578125,-0.4272460639476776,-0.1831054538488388,0.2441406100988388
596244,-0.0390625,-0.93115234375,0.3768310546875,-0.54931640625,-0.2441406100988388,0.3662109076976776
596297,-0.04052734375,-0.9296875,0.375244140625,-0.54931640625,-0.2441406100988388,0.3662109076976776
596371,-0.038330078125,-0.9293212890625,0.37890625,-0.4882812201976776,-0.30517578125,0.30517578125
596386,-0.0382080078125,-0.9268798828125,0.37890625,-0.3662109076976776,-0.2441406100988388,0.3662109076976776
596419,-0.0394287109375,-0.9268798828125,0.3824462890625,-0.1220703050494194,-0.2441406100988388,0.30517578125
596436,-0.0369873046875,-0.9273681640625,0.38134765625,0.0,-0.1831054538488388,0.30517578125
596453,-0.038330078125,-0.928466796875,0.3809814453125,0.2441406100988388,-0.1831054538488388,0.30517578125
596469,-0.03955078125,-0.930908203125,0.381103515625,0.30517578125,-0.2441406100988388,0.30517578125
596521,-0.0384521484375,-0.9285888671875,0.3824462890625,0.6103515625,-0.2441406100988388,0.2441406100988388
596551,-0.0396728515625,-0.9278564453125,0.3809814453125,0.7934569716453552,-0.30517578125,0.3662109076976776
596568,-0.0408935546875,-0.9268798828125,0.3792724609375,0.8544921278953552,-0.2441406100988388,0.30517578125
596601,-0.036376953125,-0.9273681640625,0.3817138671875,0.9765624403953552,-0.2441406100988388,0.4272460639476776
596635,-0.038330078125,-0.93359375,0.37353515625,0.6103515625,-0.2441406100988388,0.3662109076976776
596676,-0.0418701171875,-0.9317626953125,0.379638671875,-0.0610351525247097,-0.1831054538488388,0.30517578125
596693,-0.0413818359375,-0.93115234375,0.3729248046875,-0.3662109076976776,-0.2441406100988388,0.30517578125
596709,-0.0411376953125,-0.9351806640625,0.3682861328125,-0.8544921278953552,-0.2441406100988388,0.30517578125
596729,-0.03857421875,-0.93359375,0.37255859375,-1.6479490995407104,-0.1220703050494194,0.30517578125
596779,-0.0386962890625,-0.928955078125,0.378662109375,-2.3193359375,-0.1220703050494194,0.4272460639476776
596851,-0.0367431640625,-0.9271240234375,0.3878173828125,-2.563476324081421,-0.1220703050494194,0.3662109076976776
596896,-0.0416259765625,-0.9197998046875,0.3956298828125,-2.38037109375,-0.1220703050494194,0.3662109076976776
597092,-0.035888671875,-0.92138671875,0.397216796875,3.723144292831421,-0.4272460639476776,0.1831054538488388
597109,-0.0400390625,-0.9217529296875,0.3934326171875,3.906249761581421,-0.3662109076976776,0.1220703050494194
597142,-0.03857421875,-0.92529296875,0.385498046875,4.150390625,-0.3662109076976776,0.2441406100988388
597158,-0.03662109375,-0.926025390625,0.389404296875,4.21142578125,-0.4272460639476776,0.1220703050494194
597174,-0.03857421875,-0.923583984375,0.388916015625,4.2724609375,-0.4272460639476776,0.1220703050494194
597191,-0.04052734375,-0.924072265625,0.3873291015625,4.45556640625,-0.4882812201976776,0.1220703050494194
597216,-0.0408935546875,-0.9267578125,0.3814697265625,4.39453125,-0.3662109076976776,0.1831054538488388
597232,-0.0379638671875,-0.9271240234375,0.381103515625,4.45556640625,-0.30517578125,0.1831054538488388
597249,-0.036376953125,-0.923828125,0.3841552734375,4.5166015625,-0.30517578125,0.1831054538488388
597268,-0.0411376953125,-0.927734375,0.380615234375,4.7607421875,-0.4272460639476776,0.1831054538488388
597285,-0.0406494140625,-0.9302978515625,0.3790283203125,4.82177734375,-0.4272460639476776,0.2441406100988388
597318,-0.0382080078125,-0.9310302734375,0.372802734375,4.5166015625,-0.3662109076976776,0.1831054538488388
597335,-0.0396728515625,-0.931884765625,0.3690185546875,4.39453125,-0.4272460639476776,0.1831054538488388
597356,-0.0399169921875,-0.9315185546875,0.370849609375,3.967284917831421,-0.3662109076976776,0.30517578125
597372,-0.038818359375,-0.932861328125,0.370849609375,3.601073980331421,-0.30517578125,0.30517578125
597391,-0.0380859375,-0.9334716796875,0.3719482421875,3.356933355331421,-0.3662109076976776,0.4272460639476776
597408,-0.040771484375,-0.9306640625,0.3681640625,3.234863042831421,-0.3662109076976776,0.4882812201976776
597437,-0.0369873046875,-0.9320068359375,0.374267578125,3.173827886581421,-0.30517578125,0.3662109076976776
597454,-0.03662109375,-0.9317626953125,0.3736572265625,3.173827886581421,-0.3662109076976776,0.3662109076976776
597471,-0.038818359375,-0.9327392578125,0.36865234375,3.112792730331421,-0.2441406100988388,0.3662109076976776
597492,-0.0389404296875,-0.9339599609375,0.367431640625,2.990722417831421,-0.30517578125,0.4272460639476776
597508,-0.039306640625,-0.9346923828125,0.3641357421875,2.868652105331421,-0.30517578125,0.4882812201976776
597574,-0.037841796875,-0.937255859375,0.3580322265625,1.3427733182907104,-0.2441406100988388,0.54931640625
597654,-0.03369140625,-0.935791015625,0.3548583984375,-2.01416015625,0.0,0.9155272841453552
597770,-0.0523681640625,-0.98681640625,0.36669921875,-9.33837890625,1.4648436307907104,4.21142578125
597874,-0.0235595703125,-1.2860107421875,0.5291748046875,-6.408690929412842,1.03759765625,4.21142578125
597891,-0.020263671875,-1.2335205078125,0.492919921875,-5.554198741912842,1.0986328125,4.39453125
597907,-0.0166015625,-1.2117919921875,0.4874267578125,-4.5166015625,1.5258787870407104,5.187987804412842
597926,-0.014404296875,-1.2078857421875,0.494873046875,-3.112792730331421,1.8920897245407104,5.859374523162842
597975,0.0037841796875,-1.2244873046875,0.543212890625,3.723144292831421,1.6479490995407104,5.920409679412842
597999,0.0126953125,-1.224853515625,0.5421142578125,6.958007335662842,1.3427733182907104,5.187987804412842
598015,0.0186767578125,-1.235107421875,0.5509033203125,10.253905296325684,0.7324218153953552,3.906249761581421
598032,0.021728515625,-1.233642578125,0.55712890625,11.901854515075684,0.3662109076976776,3.051757574081421
598099,-0.0113525390625,-1.2470703125,0.561279296875,23.620603561401367,-3.051757574081421,-5.310058116912842
598115,-0.0194091796875,-1.212158203125,0.5458984375,24.658201217651367,-3.540038824081421,-6.286620616912842
598131,-0.03857421875,-1.127197265625,0.489013671875,26.000974655151367,-3.662109136581421,-6.958007335662842
598169,-0.0556640625,-1.0653076171875,0.447021484375,26.000974655151367,-3.784179449081421,-7.202147960662842
598185,-0.0638427734375,-1.0064697265625,0.4105224609375,25.268552780151367,-3.601073980331421,-6.713866710662842
598197,-0.0665283203125,-0.9853515625,0.3916015625,24.780271530151367,-3.417968511581421,-6.408690929412842
598214,-0.068115234375,-0.9542236328125,0.373046875,23.376462936401367,-3.112792730331421,-5.859374523162842
598232,-0.073974609375,-0.928955078125,0.351806640625,22.583005905151367,-2.868652105331421,-5.126952648162842
598248,-0.0797119140625,-0.9173583984375,0.3353271484375,20.263669967651367,-1.9531248807907104,-3.479003667831421
598281,-0.0750732421875,-0.8858642578125,0.308349609375,18.1884765625,-1.220703125,-1.9531248807907104
598351,-0.052490234375,-0.7935791015625,0.263671875,13.610838890075684,0.2441406100988388,0.6103515625
598415,-0.031982421875,-0.74072265625,0.23193359375,11.047362327575684,0.4272460639476776,0.7934569716453552
598431,-0.028564453125,-0.650634765625,0.22265625,10.864256858825684,0.3662109076976776,0.6103515625
598448,-0.0263671875,-0.60546875,0.229736328125,11.169432640075684,0.1831054538488388,0.6713866591453552
598468,-0.016357421875,-0.57177734375,0.159423828125,11.413573265075684,-0.2441406100988388,0.7934569716453552
598518,-0.010009765625,-0.51318359375,0.1480712890625,9.46044921875,-0.30517578125,0.1220703050494194
598534,-0.00537109375,-0.5350341796875,0.162841796875,9.46044921875,-0.6103515625,-0.1220703050494194
598550,-0.0103759765625,-0.53369140625,0.149658203125,10.192870140075684,-0.6103515625,-0.7934569716453552
598567,-0.0125732421875,-0.5025634765625,0.137939453125,12.695311546325684,-0.7324218153953552,-1.4648436307907104
598588,-0.0174560546875,-0.4892578125,0.1219482421875,11.474608421325684,-0.4272460639476776,-1.4038084745407104
598604,-0.0191650390625,-0.4791259765625,0.113525390625,11.230467796325684,-0.2441406100988388,-1.0986328125
598621,-0.0206298828125,-0.50634765625,0.10791015625,9.94873046875,0.1220703050494194,-0.6713866591453552
598651,-0.0181884765625,-0.6475830078125,0.14794921875,8.9111328125,0.9155272841453552,0.54931640625
598712,-0.0279541015625,-1.0286865234375,0.2847900390625,11.230467796325684,0.54931640625,-0.1220703050494194
598729,-0.029052734375,-1.04150390625,0.285888671875,12.512206077575684,0.2441406100988388,-1.0986328125
598762,-0.0299072265625,-1.025390625,0.258544921875,14.160155296325684,0.1220703050494194,-0.9765624403953552
598795,-0.031494140625,-1.0311279296875,0.238525390625,14.526366233825684,0.1220703050494194,-0.7324218153953552
598897,-0.0333251953125,-0.95458984375,0.14697265625,6.469726085662842,0.7324218153953552,-0.1220703050494194
598909,-0.0338134765625,-0.9737548828125,0.15234375,5.249022960662842,0.7934569716453552,-0.1220703050494194
598944,-0.0321044921875,-1.0108642578125,0.165771484375,1.8920897245407104,0.9765624403953552,-0.1831054538488388
598960,-0.0333251953125,-1.027587890625,0.1717529296875,-0.0610351525247097,0.9155272841453552,-0.54931640625
598977,-0.03564453125,-1.027099609375,0.171142578125,-1.8920897245407104,0.8544921278953552,-0.8544921278953552
598993,-0.03955078125,-1.036865234375,0.1715087890625,-3.540038824081421,0.9155272841453552,-0.8544921278953552
599015,-0.0399169921875,-1.0457763671875,0.1734619140625,-4.2724609375,0.9155272841453552,-0.9765624403953552
599031,-0.041015625,-1.03857421875,0.1722412109375,-5.554198741912842,0.8544921278953552,-1.2817381620407104
599048,-0.0413818359375,-1.024169921875,0.1702880859375,-7.141112804412842,0.7934569716453552,-1.4038084745407104
599069,-0.0411376953125,-1.009765625,0.1710205078125,-8.544921875,0.9155272841453552,-1.3427733182907104
599119,-0.0474853515625,-0.9813232421875,0.16796875,-10.986327171325684,0.9155272841453552,-1.3427733182907104
599135,-0.051513671875,-0.9613037109375,0.1708984375,-11.535643577575684,0.8544921278953552,-1.4038084745407104
599151,-0.053955078125,-0.94677734375,0.174560546875,-11.657713890075684,0.9155272841453552,-1.3427733182907104
599180,-0.0531005859375,-0.939453125,0.185546875,-11.596678733825684,1.03759765625,-0.9765624403953552
599230,-0.0615234375,-0.94287109375,0.2161865234375,-9.27734375,0.9765624403953552,-0.4272460639476776
599253,-0.0594482421875,-0.9410400390625,0.224853515625,-7.934569835662842,0.9765624403953552,-0.1220703050494194
599270,-0.057373046875,-0.9510498046875,0.23681640625,-6.286620616912842,0.9155272841453552,0.1220703050494194
599303,-0.0592041015625,-0.94677734375,0.24267578125,-2.929687261581421,0.9155272841453552,0.7324218153953552
599320,-0.0562744140625,-0.945068359375,0.241943359375,-2.13623046875,0.9155272841453552,0.7934569716453552
599336,-0.0487060546875,-0.94189453125,0.2457275390625,-0.3662109076976776,0.9765624403953552,1.220703125
599354,-0.0426025390625,-0.947509765625,0.245361328125,1.4648436307907104,0.8544921278953552,1.4038084745407104
599371,-0.041748046875,-0.947265625,0.2445068359375,2.38037109375,0.7934569716453552,1.4038084745407104
599388,-0.04052734375,-0.9410400390625,0.24267578125,4.2724609375,0.6103515625,1.3427733182907104
599421,-0.03515625,-0.9420166015625,0.2333984375,6.469726085662842,0.4272460639476776,1.4038084745407104
599470,-0.031005859375,-0.9593505859375,0.2275390625,9.033203125,0.0,0.9765624403953552
599492,-0.0316162109375,-0.950927734375,0.21728515625,9.58251953125,-0.1220703050494194,0.6713866591453552
599509,-0.0306396484375,-0.959716796875,0.2196044921875,10.009765625,-0.2441406100988388,0.6103515625
599542,-0.031494140625,-0.9388427734375,0.203369140625,10.009765625,-0.4272460639476776,-0.0610351525247097
599559,-0.0322265625,-0.93359375,0.1971435546875,9.765625,-0.54931640625,-0.1220703050494194
599575,-0.031982421875,-0.9290771484375,0.19482421875,9.33837890625,-0.54931640625,-0.2441406100988388
599592,-0.0316162109375,-0.9261474609375,0.193115234375,9.033203125,-0.6103515625,-0.30517578125
599648,-0.0386962890625,-0.8460693359375,0.155517578125,6.286620616912842,-0.9155272841453552,-1.03759765625
599669,-0.0401611328125,-0.8076171875,0.136474609375,4.150390625,-0.7324218153953552,-0.7934569716453552
599684,-0.0372314453125,-0.7723388671875,0.1212158203125,2.929687261581421,-0.6103515625,-0.54931640625
599701,-0.0350341796875,-0.7738037109375,0.1241455078125,0.6103515625,-0.30517578125,0.1831054538488388
599718,-0.0328369140625,-0.8157958984375,0.1383056640625,-1.4648436307907104,-0.0610351525247097,0.7934569716453552
599734,-0.0340576171875,-0.89111328125,0.167724609375,-2.807616949081421,-0.1220703050494194,0.7934569716453552
599767,-0.04541015625,-0.9232177734375,0.18701171875,-3.540038824081421,-0.30517578125,0.0
599781,-0.0498046875,-0.8426513671875,0.16796875,-4.150390625,-0.4882812201976776,-0.7324218153953552
599831,-0.0521240234375,-0.85498046875,0.1663818359375,-6.713866710662842,-0.0610351525247097,0.7324218153953552
599899,-0.0447998046875,-0.7674560546875,0.147705078125,-10.803221702575684,0.54931640625,3.112792730331421
599974,-0.04052734375,-0.7293701171875,0.15966796875,-11.474608421325684,0.1831054538488388,1.8310545682907104
599991,-0.0413818359375,-0.7713623046875,0.1719970703125,-11.840819358825684,0.6713866591453552,3.479003667831421
600008,-0.0406494140625,-0.892578125,0.2093505859375,-11.840819358825684,0.7934569716453552,3.723144292831421
600060,-0.0352783203125,-0.779052734375,0.1986083984375,-8.7890625,-0.0610351525247097,1.7700194120407104
600092,-0.0299072265625,-0.74462890625,0.1943359375,-8.60595703125,0.6103515625,3.784179449081421
600139,-0.0257568359375,-0.995849609375,0.2830810546875,-4.57763671875,0.2441406100988388,3.479003667831421
600156,-0.0260009765625,-0.97412109375,0.2877197265625,-2.13623046875,-0.0610351525247097,2.50244140625
600173,-0.0260009765625,-0.9510498046875,0.2830810546875,-1.03759765625,-0.0610351525247097,2.38037109375
600193,-0.0247802734375,-0.8983154296875,0.2750244140625,0.9155272841453552,-0.2441406100988388,2.624511480331421
600210,-0.0242919921875,-0.898193359375,0.267333984375,2.746581792831421,-0.2441406100988388,3.479003667831421
600227,-0.025634765625,-0.9505615234375,0.2818603515625,3.723144292831421,-0.30517578125,3.601073980331421
600258,-0.0225830078125,-1.0294189453125,0.306884765625,8.85009765625,-0.54931640625,2.929687261581421
600274,-0.0123291015625,-1.0546875,0.32421875,10.314940452575684,-0.7934569716453552,2.44140625
600290,-0.0106201171875,-1.049072265625,0.322509765625,13.122557640075684,-1.220703125,1.8310545682907104
600327,-0.0108642578125,-1.046142578125,0.3121337890625,16.6015625,-1.7089842557907104,1.220703125
600343,-0.0123291015625,-1.0347900390625,0.2935791015625,18.310546875,-1.7700194120407104,1.15966796875
600377,-0.0208740234375,-1.08740234375,0.290283203125,20.385740280151367,-1.7700194120407104,0.9765624403953552
600393,-0.0242919921875,-1.094970703125,0.2864990234375,21.606443405151367,-1.8310545682907104,0.54931640625
600410,-0.0281982421875,-1.1044921875,0.28857421875,22.583005905151367,-2.01416015625,-0.0610351525247097
600448,-0.033935546875,-1.0645751953125,0.2681884765625,23.254392623901367,-2.0751953125,0.1831054538488388
600464,-0.03125,-1.0826416015625,0.2618408203125,22.766111373901367,-2.01416015625,0.4272460639476776
600481,-0.03076171875,-1.1126708984375,0.2535400390625,22.155759811401367,-1.7700194120407104,0.6103515625
600498,-0.0380859375,-1.15966796875,0.27490234375,21.911619186401367,-1.5869139432907104,0.6103515625
600514,-0.039306640625,-1.1629638671875,0.2769775390625,21.423337936401367,-1.7700194120407104,0.0
600531,-0.0361328125,-1.1055908203125,0.2449951171875,20.874021530151367,-1.5869139432907104,0.54931640625
600564,-0.036376953125,-1.150390625,0.2237548828125,19.53125,-1.2817381620407104,1.4648436307907104
600580,-0.0361328125,-1.1763916015625,0.2109375,18.12744140625,-1.03759765625,1.4648436307907104
600596,-0.034912109375,-1.202392578125,0.2144775390625,16.78466796875,-0.6713866591453552,1.5258787870407104
600613,-0.03173828125,-1.208984375,0.2236328125,15.991209983825684,-0.7324218153953552,1.4038084745407104
600638,-0.0306396484375,-1.1944580078125,0.2049560546875,14.282225608825684,-0.9155272841453552,1.3427733182907104
600655,-0.0281982421875,-1.1663818359375,0.1912841796875,12.207030296325684,-1.03759765625,1.2817381620407104
600672,-0.0272216796875,-1.16650390625,0.18017578125,9.8876953125,-0.7324218153953552,1.03759765625
600691,-0.0233154296875,-1.1136474609375,0.1754150390625,8.48388671875,-0.9765624403953552,0.6713866591453552
600756,-0.0274658203125,-1.087646484375,0.1400146484375,-0.8544921278953552,-1.0986328125,0.3662109076976776
600811,-0.029296875,-1.031982421875,0.1414794921875,-6.408690929412842,-0.7934569716453552,0.54931640625
600828,-0.030517578125,-1.0294189453125,0.132568359375,-8.36181640625,-0.7324218153953552,0.30517578125
600861,-0.0301513671875,-1.0667724609375,0.1480712890625,-10.314940452575684,-0.54931640625,0.30517578125
600894,-0.0289306640625,-1.036865234375,0.1566162109375,-12.023924827575684,-0.4882812201976776,-0.7324218153953552
600936,-0.0374755859375,-1.0682373046875,0.1617431640625,-13.000487327575684,-0.3662109076976776,-0.9765624403953552
600953,-0.0341796875,-1.0909423828125,0.1500244140625,-11.962889671325684,-0.30517578125,-1.8310545682907104
600970,0.000244140625,-1.540283203125,0.1427001953125,-8.7890625,-0.2441406100988388,-3.173827886581421
601022,-0.055908203125,-0.8721923828125,0.1593017578125,-2.868652105331421,-0.1220703050494194,-7.141112804412842
601066,-0.0535888671875,-0.9027099609375,0.16943359375,-3.540038824081421,0.3662109076976776,-6.958007335662842
601111,-0.022216796875,-1.0179443359375,0.238037109375,-4.0283203125,0.6103515625,-5.187987804412842
601128,0.017822265625,-1.1270751953125,0.2625732421875,-8.6669921875,0.54931640625,-1.7089842557907104
601158,-0.031494140625,-0.942626953125,0.1763916015625,-9.21630859375,0.4272460639476776,1.15966796875
601191,-0.099365234375,-0.9478759765625,0.207275390625,-8.60595703125,0.4882812201976776,0.30517578125
601244,-0.015380859375,-0.9879150390625,0.1904296875,-9.1552734375,-0.2441406100988388,0.0
601292,-0.0621337890625,-0.9228515625,0.2254638671875,-10.620116233825684,0.4882812201976776,-0.1220703050494194
601308,-0.0328369140625,-0.9993896484375,0.2486572265625,-10.070799827575684,0.1831054538488388,0.54931640625
601341,-0.038818359375,-0.9598388671875,0.2125244140625,-9.3994140625,-0.0610351525247097,0.1220703050494194
601373,-0.0567626953125,-0.9912109375,0.2406005859375,-8.60595703125,0.0610351525247097,0.0
601415,-0.03857421875,-0.9620361328125,0.2542724609375,-6.042479991912842,-0.1220703050494194,0.1831054538488388
601432,-0.0479736328125,-0.9739990234375,0.245361328125,-5.493163585662842,-0.1831054538488388,0.30517578125
601468,-0.0438232421875,-0.96875,0.2547607421875,-3.601073980331421,0.0,0.4272460639476776
601532,-0.04736328125,-0.9676513671875,0.2501220703125,0.0610351525247097,-0.3662109076976776,0.0610351525247097
601549,-0.0457763671875,-0.971435546875,0.250244140625,0.9765624403953552,-0.30517578125,0.0
601582,-0.04296875,-0.962890625,0.25927734375,2.929687261581421,-0.3662109076976776,-0.0610351525247097
601615,-0.0479736328125,-0.9603271484375,0.2476806640625,4.21142578125,-0.4882812201976776,-0.0610351525247097
601713,-0.0479736328125,-0.9656982421875,0.242431640625,8.544921875,-0.7324218153953552,-0.2441406100988388
601725,-0.04931640625,-0.96533203125,0.2352294921875,9.6435546875,-0.7324218153953552,-0.1831054538488388
601754,-0.0443115234375,-0.9730224609375,0.2333984375,10.742186546325684,-0.7324218153953552,-0.30517578125
601787,-0.0478515625,-0.9644775390625,0.2327880859375,11.840819358825684,-0.7324218153953552,-0.2441406100988388
601832,-0.045654296875,-0.9744873046875,0.2078857421875,13.000487327575684,-0.9765624403953552,-0.4882812201976776
601843,-0.0472412109375,-0.976806640625,0.20068359375,12.756346702575684,-0.7934569716453552,-0.30517578125
601877,-0.0489501953125,-0.975341796875,0.202392578125,12.145995140075684,-0.7934569716453552,-0.1831054538488388
601893,-0.0474853515625,-0.98193359375,0.19384765625,11.657713890075684,-0.6713866591453552,-0.0610351525247097
601910,-0.0494384765625,-0.9822998046875,0.1851806640625,11.291502952575684,-0.7324218153953552,-0.0610351525247097
601930,-0.0501708984375,-0.9808349609375,0.1766357421875,10.375975608825684,-0.7324218153953552,-0.1831054538488388
601948,-0.049560546875,-0.9852294921875,0.1766357421875,9.33837890625,-0.54931640625,0.1220703050494194
602001,-0.0479736328125,-0.9853515625,0.168212890625,6.347655773162842,-0.4882812201976776,0.0
602070,-0.0498046875,-0.9832763671875,0.1689453125,1.7089842557907104,-0.30517578125,0.2441406100988388
602108,-0.0506591796875,-0.98583984375,0.17236328125,-0.30517578125,-0.2441406100988388,0.30517578125
602151,-0.048583984375,-0.983154296875,0.175537109375,-1.8310545682907104,-0.1831054538488388,0.30517578125
602196,-0.0487060546875,-0.980224609375,0.1815185546875,-2.929687261581421,0.0,0.4272460639476776
602213,-0.050048828125,-0.9814453125,0.1856689453125,-2.929687261581421,-0.0610351525247097,0.4272460639476776
602230,-0.05078125,-0.9771728515625,0.1888427734375,-2.807616949081421,0.0,0.54931640625
602282,-0.0513916015625,-0.9803466796875,0.198974609375,0.1220703050494194,-0.3662109076976776,0.1831054538488388
602331,-0.0458984375,-0.9725341796875,0.198974609375,1.8310545682907104,-0.2441406100988388,0.1831054538488388
602374,-0.0517578125,-0.978515625,0.1927490234375,3.417968511581421,-0.4272460639476776,0.1220703050494194
602386,-0.05126953125,-0.9801025390625,0.1920166015625,3.967284917831421,-0.4272460639476776,0.1220703050494194
602419,-0.046875,-0.9783935546875,0.185791015625,4.57763671875,-0.4272460639476776,0.1220703050494194
602436,-0.04931640625,-0.9801025390625,0.1822509765625,4.638671875,-0.4272460639476776,0.2441406100988388
602469,-0.05126953125,-0.983642578125,0.1763916015625,4.150390625,-0.4882812201976776,0.1831054538488388
602555,-0.0513916015625,-0.978515625,0.1763916015625,3.479003667831421,-0.3662109076976776,0.0610351525247097
602572,-0.050048828125,-0.98046875,0.178955078125,3.540038824081421,-0.3662109076976776,0.1831054538488388
602589,-0.048828125,-0.982421875,0.1729736328125,3.479003667831421,-0.4272460639476776,0.2441406100988388
602609,-0.0498046875,-0.98291015625,0.174560546875,3.417968511581421,-0.3662109076976776,0.1220703050494194
602626,-0.0496826171875,-0.9827880859375,0.1705322265625,3.356933355331421,-0.3662109076976776,0.1831054538488388
602643,-0.051025390625,-0.9827880859375,0.1700439453125,3.356933355331421,-0.3662109076976776,0.2441406100988388
602660,-0.051025390625,-0.982666015625,0.16845703125,3.295898199081421,-0.3662109076976776,0.2441406100988388
602710,-0.0511474609375,-0.982177734375,0.1728515625,3.173827886581421,-0.4272460639476776,0.0610351525247097
602750,-0.0482177734375,-0.9818115234375,0.1746826171875,3.662109136581421,-0.3662109076976776,0.1220703050494194
602795,-0.0517578125,-0.9818115234375,0.1689453125,4.33349609375,-0.4272460639476776,0.1220703050494194
602807,-0.0509033203125,-0.9818115234375,0.1676025390625,4.57763671875,-0.4272460639476776,0.0
602839,-0.0489501953125,-0.982177734375,0.1617431640625,4.69970703125,-0.4272460639476776,0.1831054538488388
602855,-0.0518798828125,-0.9830322265625,0.1619873046875,4.7607421875,-0.4272460639476776,0.1220703050494194
602872,-0.0518798828125,-0.983642578125,0.1622314453125,4.7607421875,-0.4882812201976776,0.0610351525247097
602914,-0.050048828125,-0.986572265625,0.15234375,4.45556640625,-0.4272460639476776,0.1831054538488388
602930,-0.0516357421875,-0.984375,0.1494140625,4.08935546875,-0.30517578125,0.1220703050494194
602947,-0.0528564453125,-0.9866943359375,0.1541748046875,3.845214605331421,-0.30517578125,0.0610351525247097
602967,-0.0516357421875,-0.9866943359375,0.1533203125,3.479003667831421,-0.30517578125,0.1220703050494194
603016,-0.052490234375,-0.9862060546875,0.1483154296875,2.746581792831421,-0.3662109076976776,0.0610351525247097
603085,-0.0501708984375,-0.98876953125,0.1468505859375,1.8920897245407104,-0.3662109076976776,0.2441406100988388
603101,-0.0511474609375,-0.985107421875,0.1429443359375,1.3427733182907104,-0.2441406100988388,0.30517578125
603118,-0.0535888671875,-0.9864501953125,0.1451416015625,0.9155272841453552,-0.2441406100988388,0.3662109076976776
603135,-0.05224609375,-0.986572265625,0.1453857421875,0.4882812201976776,-0.1831054538488388,0.2441406100988388
603154,-0.0501708984375,-0.9859619140625,0.1488037109375,0.30517578125,-0.1831054538488388,0.1831054538488388
603175,-0.05029296875,-0.9842529296875,0.152099609375,0.2441406100988388,-0.30517578125,0.1831054538488388
603191,-0.0535888671875,-0.9825439453125,0.1510009765625,0.30517578125,-0.2441406100988388,0.2441406100988388
603210,-0.0513916015625,-0.9844970703125,0.1497802734375,0.2441406100988388,-0.2441406100988388,0.3662109076976776
603227,-0.0494384765625,-0.9849853515625,0.151611328125,0.2441406100988388,-0.2441406100988388,0.30517578125
603260,-0.0511474609375,-0.9842529296875,0.1527099609375,0.30517578125,-0.1831054538488388,0.3662109076976776
603309,-0.0501708984375,-0.98291015625,0.1549072265625,0.9155272841453552,-0.2441406100988388,0.1831054538488388
603329,-0.050537109375,-0.9847412109375,0.15185546875,1.0986328125,-0.30517578125,0.30517578125
603351,-0.0528564453125,-0.9849853515625,0.150634765625,1.0986328125,-0.2441406100988388,0.3662109076976776
603367,-0.052001953125,-0.98486328125,0.15185546875,1.0986328125,-0.2441406100988388,0.3662109076976776
603385,-0.05029296875,-0.98486328125,0.1522216796875,1.0986328125,-0.1831054538488388,0.3662109076976776
603402,-0.0487060546875,-0.9844970703125,0.156005859375,1.220703125,-0.2441406100988388,0.1831054538488388
603452,-0.05029296875,-0.98486328125,0.150390625,1.5258787870407104,-0.2441406100988388,0.3662109076976776
603572,-0.052001953125,-0.985107421875,0.1475830078125,1.15966796875,-0.2441406100988388,0.0610351525247097
603589,-0.0526123046875,-0.9854736328125,0.148193359375,1.0986328125,-0.30517578125,0.1220703050494194
603626,-0.0498046875,-0.986083984375,0.149169921875,1.15966796875,-0.2441406100988388,0.2441406100988388
603642,-0.0498046875,-0.9864501953125,0.1492919921875,1.220703125,-0.30517578125,0.30517578125
603674,-0.0535888671875,-0.9833984375,0.1451416015625,1.15966796875,-0.2441406100988388,0.30517578125
603729,-0.05224609375,-0.9857177734375,0.1448974609375,0.9765624403953552,-0.30517578125,0.1831054538488388
603754,-0.0533447265625,-0.983154296875,0.144775390625,0.8544921278953552,-0.2441406100988388,0.30517578125
603766,-0.051513671875,-0.98583984375,0.146728515625,0.7934569716453552,-0.2441406100988388,0.3662109076976776
603796,-0.052490234375,-0.985595703125,0.1461181640625,0.54931640625,-0.2441406100988388,0.2441406100988388
603829,-0.051025390625,-0.98486328125,0.1483154296875,0.4272460639476776,-0.30517578125,0.30517578125
603935,-0.0496826171875,-0.986083984375,0.1495361328125,0.3662109076976776,-0.2441406100988388,0.3662109076976776
603952,-0.0511474609375,-0.98486328125,0.14501953125,0.3662109076976776,-0.2441406100988388,0.30517578125
603969,-0.05224609375,-0.9849853515625,0.1484375,0.30517578125,-0.1831054538488388,0.2441406100988388
603989,-0.0509033203125,-0.9837646484375,0.1544189453125,0.54931640625,-0.2441406100988388,0.2441406100988388
604005,-0.05078125,-0.9857177734375,0.1546630859375,0.7324218153953552,-0.2441406100988388,0.30517578125
604022,-0.052734375,-0.98486328125,0.1534423828125,0.9765624403953552,-0.30517578125,0.30517578125
604038,-0.052001953125,-0.9832763671875,0.1488037109375,1.220703125,-0.30517578125,0.1831054538488388
604060,-0.0509033203125,-0.9840087890625,0.148681640625,1.3427733182907104,-0.2441406100988388,0.1831054538488388
604076,-0.050537109375,-0.984619140625,0.15087890625,1.5258787870407104,-0.2441406100988388,0.30517578125
604092,-0.0513916015625,-0.98486328125,0.1492919921875,1.5869139432907104,-0.30517578125,0.30517578125
604110,-0.05078125,-0.98583984375,0.14697265625,1.6479490995407104,-0.30517578125,0.30517578125
604127,-0.0518798828125,-0.986083984375,0.1453857421875,1.6479490995407104,-0.3662109076976776,0.2441406100988388
604158,-0.051513671875,-0.9864501953125,0.143310546875,1.3427733182907104,-0.2441406100988388,0.2441406100988388
604211,-0.0513916015625,-0.9835205078125,0.144775390625,1.220703125,-0.30517578125,0.1220703050494194
604231,-0.051025390625,-0.984130859375,0.146728515625,1.15966796875,-0.2441406100988388,0.2441406100988388
604247,-0.0517578125,-0.984375,0.146484375,1.0986328125,-0.2441406100988388,0.3662109076976776
604280,-0.051513671875,-0.987060546875,0.1439208984375,0.9765624403953552,-0.30517578125,0.1831054538488388
604328,-0.0509033203125,-0.9864501953125,0.14501953125,0.8544921278953552,-0.2441406100988388,0.30517578125
604415,-0.051513671875,-0.986572265625,0.14306640625,-0.1220703050494194,-0.2441406100988388,0.1831054538488388
604432,-0.05126953125,-0.984619140625,0.1435546875,-0.2441406100988388,-0.1831054538488388,0.2441406100988388
604449,-0.0523681640625,-0.9853515625,0.1441650390625,-0.4272460639476776,-0.2441406100988388,0.30517578125
604501,-0.0516357421875,-0.98388671875,0.1444091796875,-1.15966796875,-0.1220703050494194,0.3662109076976776
604532,-0.0494384765625,-0.983154296875,0.1505126953125,-1.220703125,-0.1220703050494194,0.54931640625
604549,-0.0517578125,-0.982421875,0.15234375,-0.9765624403953552,-0.0610351525247097,0.7934569716453552
604582,-0.05078125,-0.9805908203125,0.1573486328125,0.2441406100988388,-0.2441406100988388,0.3662109076976776
604599,-0.0499267578125,-0.982421875,0.1546630859375,0.54931640625,-0.2441406100988388,0.4272460639476776
604631,-0.0469970703125,-0.9876708984375,0.1536865234375,1.2817381620407104,-0.30517578125,0.30517578125
604670,-0.058349609375,-0.9825439453125,0.144287109375,1.03759765625,-0.1831054538488388,0.1831054538488388
604771,-0.0570068359375,-0.987548828125,0.1405029296875,4.638671875,-0.4272460639476776,0.7324218153953552
604799,-0.04345703125,-0.9876708984375,0.14599609375,4.7607421875,-0.2441406100988388,0.8544921278953552
604831,-0.054931640625,-0.9884033203125,0.14794921875,5.065917491912842,-0.3662109076976776,0.54931640625
604881,-0.0433349609375,-0.9931640625,0.123779296875,4.2724609375,-0.4272460639476776,0.6103515625
604898,-0.045654296875,-0.9927978515625,0.1251220703125,3.234863042831421,-0.30517578125,0.6713866591453552
604915,-0.0555419921875,-0.9910888671875,0.126708984375,2.25830078125,-0.3662109076976776,0.9155272841453552
604932,-0.0540771484375,-0.986083984375,0.118408203125,1.03759765625,-0.1831054538488388,1.03759765625
604988,-0.0526123046875,-0.994384765625,0.1240234375,-1.7700194120407104,-0.1220703050494194,0.6713866591453552
605012,-0.048095703125,-0.9786376953125,0.1380615234375,-2.197265625,0.0610351525247097,0.9765624403953552
605062,-0.0445556640625,-0.9940185546875,0.115966796875,-3.295898199081421,-0.0610351525247097,2.685546636581421
605315,-0.027099609375,-1.39794921875,0.270751953125,-0.8544921278953552,-0.30517578125,3.295898199081421
605332,-0.0245361328125,-1.4114990234375,0.2779541015625,2.13623046875,-0.2441406100988388,2.01416015625
605349,-0.0142822265625,-1.378662109375,0.3028564453125,5.249022960662842,-0.8544921278953552,0.0
605368,-0.015380859375,-1.2698974609375,0.3023681640625,8.23974609375,-1.2817381620407104,-1.03759765625
605383,-0.02392578125,-1.2364501953125,0.3057861328125,10.986327171325684,-1.7089842557907104,-1.4038084745407104
605400,-0.0301513671875,-1.2222900390625,0.306884765625,12.512206077575684,-1.9531248807907104,-1.5258787870407104
605416,-0.0494384765625,-1.25048828125,0.296630859375,15.319823265075684,-2.197265625,-2.197265625
605468,-0.0589599609375,-1.1175537109375,0.257568359375,19.775390625,-2.563476324081421,-3.295898199081421
605494,-0.065185546875,-1.0902099609375,0.248291015625,20.385740280151367,-2.563476324081421,-2.868652105331421
605511,-0.0594482421875,-1.0693359375,0.234375,20.751951217651367,-2.868652105331421,-2.868652105331421
605528,-0.0562744140625,-1.0068359375,0.2044677734375,20.690916061401367,-2.929687261581421,-3.051757574081421
605548,-0.0712890625,-0.908203125,0.2132568359375,19.47021484375,-3.295898199081421,-2.197265625
605565,-0.0771484375,-0.7978515625,0.123046875,17.39501953125,-3.051757574081421,-2.01416015625
605581,-0.0667724609375,-0.7271728515625,0.1331787109375,15.930174827575684,-2.746581792831421,-1.4038084745407104
605594,-0.0611572265625,-0.666015625,0.0960693359375,13.183592796325684,-2.563476324081421,-0.30517578125
605651,-0.0386962890625,-0.6365966796875,0.117431640625,9.09423828125,-2.624511480331421,1.03759765625
605693,-0.0517578125,-0.56005859375,0.0701904296875,7.141112804412842,-2.807616949081421,0.8544921278953552
605750,-0.036376953125,-0.4346923828125,0.0389404296875,2.807616949081421,-2.13623046875,1.8920897245407104
605795,-0.02392578125,-0.41162109375,0.0223388671875,0.30517578125,-2.13623046875,2.01416015625
605812,-0.02001953125,-0.4093017578125,0.0284423828125,-0.7934569716453552,-1.8920897245407104,2.197265625
605829,-0.0166015625,-0.427001953125,0.02099609375,-1.4648436307907104,-1.7700194120407104,2.563476324081421
605849,-0.0150146484375,-0.501220703125,0.029052734375,-2.563476324081421,-1.7700194120407104,2.990722417831421
605866,-0.0181884765625,-0.60400390625,0.033447265625,-3.051757574081421,-1.5869139432907104,2.929687261581421
605882,-0.0205078125,-0.6578369140625,0.0401611328125,-3.173827886581421,-1.7089842557907104,2.746581792831421
605912,-0.02783203125,-0.8228759765625,0.0159912109375,-3.662109136581421,-2.197265625,2.197265625
