tMillis,ax,ay,az,gx,gy,gz
377346,0.028564453125,-0.0079345703125,1.0263671875,0.7324218153953552,-0.1831054538488388,0.30517578125
377358,0.02685546875,-0.0078125,1.0274658203125,0.7934569716453552,-0.30517578125,0.30517578125
377373,0.0263671875,-0.00830078125,1.0269775390625,0.7934569716453552,-0.30517578125,0.2441406100988388
377389,0.0260009765625,-0.00830078125,1.0264892578125,0.6713866591453552,-0.1831054538488388,0.2441406100988388
377408,0.0264892578125,-0.0079345703125,1.0257568359375,0.6713866591453552,-0.1831054538488388,0.30517578125
377432,0.0269775390625,-0.0076904296875,1.026611328125,0.7324218153953552,-0.1831054538488388,0.3662109076976776
377448,0.0263671875,-0.008056640625,1.02685546875,0.7324218153953552,-0.2441406100988388,0.2441406100988388
377465,0.02734375,-0.00830078125,1.0267333984375,0.6713866591453552,-0.1831054538488388,0.2441406100988388
377482,0.0277099609375,-0.007568359375,1.0250244140625,0.6713866591453552,-0.1831054538488388,0.2441406100988388
377500,0.0277099609375,-0.0074462890625,1.025390625,0.6713866591453552,-0.1831054538488388,0.2441406100988388
377519,0.0267333984375,-0.008056640625,1.026611328125,0.6713866591453552,-0.1831054538488388,0.2441406100988388
377537,0.027099609375,-0.008544921875,1.025146484375,0.6713866591453552,-0.1831054538488388,0.30517578125
377560,0.0281982421875,-0.0084228515625,1.0240478515625,0.6713866591453552,-0.2441406100988388,0.30517578125
377576,0.027099609375,-0.0084228515625,1.029296875,0.6713866591453552,-0.2441406100988388,0.30517578125
377593,0.027587890625,-0.008544921875,1.029296875,0.7324218153953552,-0.2441406100988388,0.30517578125
377610,0.02783203125,-0.0087890625,1.0233154296875,0.6103515625,-0.2441406100988388,0.30517578125
377630,0.0284423828125,-0.0084228515625,1.0244140625,0.6713866591453552,-0.30517578125,0.2441406100988388
377647,0.027099609375,-0.0078125,1.0191650390625,0.7934569716453552,-0.2441406100988388,0.3662109076976776
377671,0.0262451171875,-0.0078125,1.02587890625,0.7324218153953552,-0.2441406100988388,0.30517578125
377687,0.02685546875,-0.0087890625,1.0340576171875,0.7324218153953552,-0.2441406100988388,0.30517578125
377704,0.02734375,-0.0079345703125,1.031982421875,0.6713866591453552,-0.1831054538488388,0.2441406100988388
377722,0.0272216796875,-0.007568359375,1.0289306640625,0.6713866591453552,-0.1831054538488388,0.30517578125
377741,0.027587890625,-0.0084228515625,1.0233154296875,0.7324218153953552,-0.2441406100988388,0.30517578125
377760,0.02783203125,-0.008544921875,1.0277099609375,0.7934569716453552,-0.1831054538488388,0.30517578125
377778,0.0262451171875,-0.0086669921875,1.027099609375,0.7934569716453552,-0.1831054538488388,0.30517578125
377799,0.0272216796875,-0.0078125,1.0264892578125,0.7324218153953552,-0.2441406100988388,0.2441406100988388
377820,0.0281982421875,-0.00830078125,1.0269775390625,0.7324218153953552,-0.1831054538488388,0.2441406100988388
377832,0.026611328125,-0.0076904296875,1.0123291015625,0.6713866591453552,-0.1831054538488388,0.2441406100988388
377852,0.0263671875,-0.007568359375,1.0103759765625,0.6713866591453552,-0.2441406100988388,0.30517578125
377871,0.02734375,-0.0086669921875,1.02734375,0.6713866591453552,-0.1831054538488388,0.30517578125
377888,0.0281982421875,-0.0079345703125,1.0286865234375,0.7324218153953552,-0.1831054538488388,0.3662109076976776
377905,0.0257568359375,-0.008056640625,1.030517578125,0.7324218153953552,-0.1831054538488388,0.30517578125
377926,0.0262451171875,-0.0084228515625,1.030029296875,0.7324218153953552,-0.1831054538488388,0.30517578125
377945,0.0272216796875,-0.00830078125,1.0291748046875,0.7934569716453552,-0.2441406100988388,0.2441406100988388
377961,0.0272216796875,-0.007080078125,1.03173828125,0.7324218153953552,-0.1831054538488388,0.2441406100988388
377978,0.027099609375,-0.00927734375,1.0255126953125,0.7324218153953552,-0.1831054538488388,0.2441406100988388
377994,0.0277099609375,-0.0091552734375,1.019287109375,0.7324218153953552,-0.1831054538488388,0.2441406100988388
378011,0.0283203125,-0.0079345703125,1.0185546875,0.7324218153953552,-0.1220703050494194,0.2441406100988388
378028,0.027587890625,-0.0068359375,1.0201416015625,0.7324218153953552,-0.2441406100988388,0.2441406100988388
378047,0.026611328125,-0.0087890625,1.02685546875,0.7324218153953552,-0.1831054538488388,0.3662109076976776
378065,0.0269775390625,-0.00830078125,1.0313720703125,0.7324218153953552,-0.1831054538488388,0.30517578125
378080,0.0269775390625,-0.0084228515625,1.03076171875,0.7934569716453552,-0.2441406100988388,0.30517578125
378100,0.0263671875,-0.0079345703125,1.0269775390625,0.7324218153953552,-0.2441406100988388,0.2441406100988388
378119,0.02734375,-0.0078125,1.0257568359375,0.7324218153953552,-0.2441406100988388,0.2441406100988388
378138,0.0284423828125,-0.0084228515625,1.025634765625,0.7324218153953552,-0.2441406100988388,0.30517578125
378157,0.02734375,-0.0089111328125,1.02685546875,0.7324218153953552,-0.1831054538488388,0.30517578125
378180,0.027587890625,-0.0079345703125,1.0235595703125,0.7324218153953552,-0.2441406100988388,0.3662109076976776
378196,0.0277099609375,-0.0084228515625,1.0247802734375,0.7324218153953552,-0.2441406100988388,0.30517578125
378208,0.0269775390625,-0.0078125,1.025390625,0.7934569716453552,-0.2441406100988388,0.3662109076976776
378227,0.0267333984375,-0.0089111328125,1.0272216796875,0.7934569716453552,-0.1831054538488388,0.30517578125
378248,0.0274658203125,-0.0087890625,1.0257568359375,0.7934569716453552,-0.1831054538488388,0.30517578125
378265,0.02734375,-0.008056640625,1.0260009765625,0.8544921278953552,-0.2441406100988388,0.30517578125
378283,0.0274658203125,-0.0089111328125,1.0260009765625,0.7934569716453552,-0.30517578125,0.2441406100988388
378305,0.027587890625,-0.00927734375,1.027587890625,0.7324218153953552,-0.2441406100988388,0.2441406100988388
378322,0.0267333984375,-0.0086669921875,1.0272216796875,0.7324218153953552,-0.2441406100988388,0.2441406100988388
378333,0.02685546875,-0.0086669921875,1.0233154296875,0.7324218153953552,-0.2441406100988388,0.30517578125
378350,0.0257568359375,-0.00830078125,1.0240478515625,0.7324218153953552,-0.1220703050494194,0.30517578125
378367,0.0262451171875,-0.00830078125,1.0274658203125,0.7934569716453552,-0.1220703050494194,0.2441406100988388
378382,0.0279541015625,-0.0086669921875,1.025634765625,0.7324218153953552,-0.1831054538488388,0.30517578125
378403,0.0284423828125,-0.008056640625,1.02490234375,0.7324218153953552,-0.30517578125,0.30517578125
378423,0.0272216796875,-0.008544921875,1.0269775390625,0.7324218153953552,-0.2441406100988388,0.2441406100988388
378435,0.0269775390625,-0.009521484375,1.025390625,0.7324218153953552,-0.2441406100988388,0.2441406100988388
378452,0.0272216796875,-0.009033203125,1.0255126953125,0.7324218153953552,-0.1831054538488388,0.30517578125
378472,0.02685546875,-0.007568359375,1.0252685546875,0.7324218153953552,-0.2441406100988388,0.3662109076976776
378491,0.026611328125,-0.009033203125,1.02783203125,0.7324218153953552,-0.1831054538488388,0.30517578125
378511,0.0267333984375,-0.0087890625,1.02685546875,0.7324218153953552,-0.1831054538488388,0.2441406100988388
378529,0.027587890625,-0.008544921875,1.02392578125,0.7934569716453552,-0.30517578125,0.30517578125
378549,0.0277099609375,-0.008056640625,1.027099609375,0.7934569716453552,-0.2441406100988388,0.30517578125
378566,0.0274658203125,-0.00830078125,1.026611328125,0.7324218153953552,-0.1831054538488388,0.30517578125
378583,0.0274658203125,-0.0074462890625,1.0267333984375,0.7324218153953552,-0.2441406100988388,0.30517578125
378599,0.02734375,-0.0074462890625,1.0286865234375,0.7324218153953552,-0.1831054538488388,0.30517578125
378620,0.0277099609375,-0.0081787109375,1.02587890625,0.7934569716453552,-0.1831054538488388,0.30517578125
378636,0.0279541015625,-0.0084228515625,1.0230712890625,0.7324218153953552,-0.2441406100988388,0.30517578125
378652,0.0272216796875,-0.008544921875,1.0225830078125,0.7324218153953552,-0.1831054538488388,0.30517578125
378669,0.0264892578125,-0.0078125,1.0269775390625,0.7934569716453552,-0.1220703050494194,0.30517578125
378690,0.0272216796875,-0.008056640625,1.02880859375,0.7934569716453552,-0.1831054538488388,0.30517578125
378706,0.0274658203125,-0.00830078125,1.028564453125,0.7934569716453552,-0.1831054538488388,0.30517578125
378723,0.0262451171875,-0.0084228515625,1.0294189453125,0.7324218153953552,-0.1831054538488388,0.2441406100988388
378790,0.0267333984375,-0.0089111328125,1.0267333984375,0.6713866591453552,-0.2441406100988388,0.2441406100988388
378883,0.0269775390625,-0.0084228515625,1.0196533203125,0.7324218153953552,-0.1831054538488388,0.2441406100988388
379000,0.0255126953125,-0.00830078125,1.01953125,0.7324218153953552,-0.1831054538488388,0.30517578125
379102,0.0260009765625,-0.008544921875,1.0203857421875,0.7324218153953552,-0.2441406100988388,0.30517578125
379114,0.026611328125,-0.00830078125,1.0213623046875,0.7324218153953552,-0.1831054538488388,0.30517578125
379146,0.0264892578125,-0.008056640625,1.033203125,0.7324218153953552,-0.2441406100988388,0.2441406100988388
379236,0.0267333984375,-0.00830078125,1.0291748046875,0.6713866591453552,-0.1831054538488388,0.30517578125
379342,0.0269775390625,-0.00830078125,1.026611328125,0.7324218153953552,-0.1831054538488388,0.2441406100988388
379359,0.028076171875,-0.00927734375,1.028564453125,0.7324218153953552,-0.2441406100988388,0.2441406100988388
379388,0.0283203125,-0.0025634765625,1.0262451171875,0.7324218153953552,-0.2441406100988388,0.1831054538488388
379405,0.028076171875,0.01416015625,1.02880859375,1.3427733182907104,-0.2441406100988388,0.1220703050494194
379421,0.025390625,-0.0133056640625,1.0238037109375,2.25830078125,-0.1831054538488388,0.30517578125
379449,0.0283203125,-0.0008544921875,1.0220947265625,3.356933355331421,-0.0610351525247097,0.30517578125
379471,0.0291748046875,-0.0089111328125,1.0250244140625,3.601073980331421,0.1220703050494194,0.1220703050494194
379487,0.026123046875,-0.00244140625,1.019287109375,4.150390625,0.7934569716453552,0.3662109076976776
379504,0.0211181640625,-0.016845703125,1.01953125,4.2724609375,2.01416015625,-0.2441406100988388
379554,0.006591796875,0.0067138671875,1.005615234375,6.164550304412842,5.920409679412842,0.4272460639476776
379645,0.0361328125,-0.0166015625,1.5556640625,2.3193359375,-0.4882812201976776,-0.30517578125
379662,0.04150390625,-0.025634765625,1.46826171875,1.4038084745407104,-0.4272460639476776,-0.2441406100988388
379695,0.037353515625,-0.0045166015625,1.3743896484375,-5.0048828125,1.4038084745407104,0.1220703050494194
379842,0.0491943359375,0.0498046875,1.41845703125,-17.51708984375,-2.38037109375,0.4272460639476776
379942,0.0228271484375,0.0706787109375,1.200439453125,-20.751951217651367,-6.530761241912842,0.6713866591453552
379954,0.0218505859375,0.0751953125,1.1807861328125,-21.301267623901367,-7.080077648162842,0.6713866591453552
379987,0.0111083984375,0.0765380859375,1.08203125,-21.545408248901367,-7.629394054412842,0.6713866591453552
380003,0.0091552734375,0.0714111328125,1.0125732421875,-22.216794967651367,-8.11767578125,0.6103515625
380019,0.009033203125,0.0733642578125,0.9737548828125,-22.460935592651367,-8.30078125,0.6713866591453552
380055,0.0059814453125,0.06689453125,0.8079833984375,-24.414060592651367,-8.6669921875,1.03759765625
380067,0.0029296875,0.05712890625,0.72509765625,-24.658201217651367,-8.7890625,1.0986328125
380084,0.0008544921875,0.05419921875,0.6749267578125,-24.963376998901367,-8.85009765625,1.03759765625
380100,-0.0008544921875,0.049560546875,0.5748291015625,-25.512693405151367,-8.60595703125,0.9155272841453552
380152,-0.00927734375,0.0185546875,0.3616943359375,-27.099607467651367,-6.286620616912842,0.7934569716453552
380184,-0.010986328125,-0.0028076171875,0.2864990234375,-28.015134811401367,-4.8828125,0.4882812201976776
380201,-0.0093994140625,-0.0042724609375,0.29296875,-28.564451217651367,-3.540038824081421,0.1831054538488388
380218,-0.0032958984375,-0.0008544921875,0.3184814453125,-29.113767623901367,-2.624511480331421,0.0
380236,0.0042724609375,0.0146484375,0.36767578125,-29.296873092651367,-1.5258787870407104,-0.1220703050494194
380284,-0.0113525390625,0.0758056640625,0.6593017578125,-28.076169967651367,-0.1831054538488388,-0.1831054538488388
380307,-0.0130615234375,0.1068115234375,0.7427978515625,-27.526853561401367,-0.30517578125,-0.1831054538488388
380323,-0.010498046875,0.1387939453125,0.77783203125,-27.465818405151367,-0.30517578125,-0.0610351525247097
380340,-0.010498046875,0.150634765625,0.7896728515625,-27.587888717651367,0.1220703050494194,0.1831054538488388
380359,-0.0108642578125,0.173095703125,0.8316650390625,-27.893064498901367,0.6103515625,0.30517578125
380375,-0.013427734375,0.1864013671875,0.8714599609375,-27.954099655151367,0.9155272841453552,0.2441406100988388
380409,-0.013427734375,0.2313232421875,0.937744140625,-27.465818405151367,1.4648436307907104,0.1831054538488388
380425,-0.0140380859375,0.250244140625,0.9482421875,-26.489255905151367,1.6479490995407104,0.2441406100988388
380442,-0.0098876953125,0.258056640625,0.9600830078125,-25.878904342651367,1.6479490995407104,0.30517578125
380488,-0.006591796875,0.2462158203125,0.904052734375,-23.559568405151367,2.197265625,-0.1831054538488388
380546,0.0126953125,0.30712890625,0.97314453125,-21.484373092651367,2.38037109375,-0.2441406100988388
380563,0.0206298828125,0.3363037109375,1.0269775390625,-19.4091796875,2.38037109375,-0.30517578125
380579,0.0225830078125,0.3470458984375,1.03564453125,-17.08984375,1.5258787870407104,0.0610351525247097
380599,0.0244140625,0.3231201171875,1.0107421875,-14.892577171325684,0.7934569716453552,0.3662109076976776
380616,0.023681640625,0.301513671875,0.968017578125,-13.488768577575684,0.8544921278953552,0.30517578125
380632,0.02490234375,0.302490234375,0.9931640625,-12.756346702575684,0.9765624403953552,0.0610351525247097
380649,0.0247802734375,0.305908203125,1.0020751953125,-11.535643577575684,0.54931640625,0.0610351525247097
380698,0.03466796875,0.3421630859375,1.032470703125,-7.568358898162842,-0.6103515625,0.2441406100988388
380786,0.01708984375,0.3297119140625,0.9659423828125,-1.8310545682907104,-1.4038084745407104,0.3662109076976776
380803,0.0147705078125,0.3258056640625,0.954345703125,-0.6713866591453552,-1.5869139432907104,0.4272460639476776
380820,0.0101318359375,0.3209228515625,0.9364013671875,0.1831054538488388,-1.15966796875,0.30517578125
380840,0.0072021484375,0.32861328125,0.948486328125,1.2817381620407104,-1.03759765625,0.2441406100988388
380856,0.003662109375,0.3321533203125,0.9481201171875,2.44140625,-0.9765624403953552,0.0610351525247097
380872,0.005126953125,0.337158203125,0.9466552734375,3.234863042831421,-0.9155272841453552,0.0
380889,0.0072021484375,0.34326171875,0.943603515625,4.82177734375,-0.4882812201976776,-0.2441406100988388
380906,0.01220703125,0.3665771484375,0.9671630859375,6.652831554412842,-0.54931640625,-0.1220703050494194
380922,0.0123291015625,0.3675537109375,0.9654541015625,7.568358898162842,-0.7324218153953552,0.0
380939,0.007568359375,0.350341796875,0.93505859375,8.97216796875,-0.6103515625,0.0
380960,0.0054931640625,0.338623046875,0.9315185546875,10.314940452575684,-0.0610351525247097,-0.30517578125
380976,0.0087890625,0.344970703125,0.9501953125,10.925292015075684,0.0610351525247097,-0.4272460639476776
380993,0.01171875,0.3448486328125,0.9532470703125,11.962889671325684,-0.0610351525247097,-0.4272460639476776
381009,0.0128173828125,0.3330078125,0.9283447265625,12.817381858825684,0.1220703050494194,-0.54931640625
381029,0.013427734375,0.3282470703125,0.92529296875,13.427733421325684,0.6713866591453552,-0.7324218153953552
381045,0.014404296875,0.3326416015625,0.9432373046875,13.671874046325684,0.7934569716453552,-0.8544921278953552
381078,0.013427734375,0.33154296875,0.9443359375,14.465331077575684,0.9155272841453552,-0.9765624403953552
381094,0.01708984375,0.3310546875,0.948486328125,14.953612327575684,1.2817381620407104,-1.15966796875
381111,0.0174560546875,0.3336181640625,0.9566650390625,15.258788108825684,1.4648436307907104,-1.0986328125
381128,0.018798828125,0.337158203125,0.9722900390625,15.441893577575684,1.4038084745407104,-0.9765624403953552
381145,0.0140380859375,0.3275146484375,0.9569091796875,15.502928733825684,1.3427733182907104,-0.8544921278953552
381166,0.01318359375,0.3253173828125,0.95849609375,15.502928733825684,1.6479490995407104,-0.7324218153953552
381182,0.0164794921875,0.331298828125,0.986083984375,15.319823265075684,1.5869139432907104,-0.4882812201976776
381244,0.0067138671875,0.2904052734375,0.968505859375,13.671874046325684,1.6479490995407104,0.2441406100988388
381342,0.001220703125,0.266357421875,0.98486328125,11.230467796325684,1.7089842557907104,1.3427733182907104
381387,0.006103515625,0.2479248046875,0.9925537109375,10.803221702575684,1.5869139432907104,1.5869139432907104
381404,0.0079345703125,0.248046875,0.9969482421875,10.314940452575684,1.5258787870407104,1.5869139432907104
381421,0.0125732421875,0.2535400390625,1.013427734375,9.82666015625,1.3427733182907104,1.6479490995407104
381473,0.0172119140625,0.25341796875,1.02099609375,8.7890625,0.4882812201976776,2.197265625
381562,0.0223388671875,0.2314453125,0.9908447265625,7.202147960662842,-1.2817381620407104,2.50244140625
381579,0.02294921875,0.2279052734375,0.982666015625,7.080077648162842,-1.220703125,2.50244140625
381608,0.0205078125,0.229736328125,0.9976806640625,6.530761241912842,-1.4038084745407104,2.50244140625
381625,0.0179443359375,0.2291259765625,1.0030517578125,6.408690929412842,-1.4648436307907104,2.50244140625
381641,0.0140380859375,0.229736328125,1.0089111328125,6.103515148162842,-1.8920897245407104,2.685546636581421
381670,0.0048828125,0.20849609375,0.976318359375,5.432128429412842,-1.7089842557907104,2.685546636581421
381691,0.00048828125,0.210693359375,0.9892578125,5.126952648162842,-1.220703125,2.50244140625
381703,-0.0030517578125,0.22119140625,1.005859375,5.065917491912842,-1.220703125,2.44140625
381720,-0.0050048828125,0.2216796875,1.0029296875,5.0048828125,-1.220703125,2.44140625
381740,-0.003173828125,0.2310791015625,1.0211181640625,5.126952648162842,-0.9765624403953552,2.3193359375
381757,-0.003173828125,0.23046875,1.026611328125,5.493163585662842,-0.7934569716453552,2.38037109375
381774,-0.0028076171875,0.2275390625,1.0194091796875,5.615233898162842,-0.7934569716453552,2.38037109375
381791,-0.0050048828125,0.2110595703125,0.9921875,5.554198741912842,-0.4882812201976776,2.3193359375
381807,-0.0047607421875,0.2044677734375,0.98486328125,5.371093273162842,-0.2441406100988388,2.25830078125
381874,0.00341796875,0.1866455078125,0.9871826171875,3.662109136581421,0.6713866591453552,1.9531248807907104
381927,0.0062255859375,0.1683349609375,0.9884033203125,1.7089842557907104,0.6713866591453552,1.7700194120407104
381939,0.0068359375,0.1607666015625,0.9908447265625,0.7324218153953552,0.7324218153953552,1.5258787870407104
381972,0.0107421875,0.166748046875,1.0111083984375,-0.30517578125,0.6713866591453552,1.0986328125
382004,0.0130615234375,0.177490234375,1.032470703125,-0.6713866591453552,0.1220703050494194,0.9765624403953552
382046,0.012939453125,0.17236328125,1.0240478515625,-1.03759765625,-0.3662109076976776,0.6713866591453552
382063,0.0106201171875,0.1693115234375,1.00634765625,-1.15966796875,-0.4882812201976776,0.4882812201976776
382080,0.0076904296875,0.1683349609375,0.998779296875,-1.0986328125,-0.4882812201976776,0.30517578125
382131,0.0067138671875,0.155517578125,0.951904296875,0.1831054538488388,-1.03759765625,-0.1220703050494194
382166,0.0054931640625,0.138916015625,0.899169921875,0.3662109076976776,-0.6713866591453552,-0.4882812201976776
382183,0.005126953125,0.1326904296875,0.87646484375,0.30517578125,-0.4882812201976776,-0.6713866591453552
382200,0.006103515625,0.1318359375,0.8599853515625,0.2441406100988388,-0.4272460639476776,-0.7934569716453552
382220,0.00634765625,0.1287841796875,0.82958984375,0.1831054538488388,-0.4882812201976776,-0.9155272841453552
382237,0.0072021484375,0.1287841796875,0.82177734375,0.0,-0.2441406100988388,-1.03759765625
382253,0.0093994140625,0.127685546875,0.824951171875,-0.2441406100988388,0.3662109076976776,-1.2817381620407104
382269,0.0177001953125,0.139892578125,0.875,-0.4882812201976776,0.3662109076976776,-1.5258787870407104
382290,0.021240234375,0.146728515625,0.8975830078125,-0.3662109076976776,0.2441406100988388,-1.6479490995407104
382305,0.02587890625,0.1640625,0.9256591796875,0.30517578125,-0.30517578125,-1.7089842557907104
382322,0.02734375,0.162109375,0.9005126953125,0.6103515625,-0.8544921278953552,-1.5258787870407104
382385,0.021728515625,0.1612548828125,0.8958740234375,-1.03759765625,0.8544921278953552,-2.685546636581421
382407,0.0235595703125,0.184326171875,0.9488525390625,-0.54931640625,0.4272460639476776,-2.746581792831421
382424,0.02294921875,0.20068359375,0.95654296875,0.1220703050494194,-0.9765624403953552,-2.25830078125
382441,0.016357421875,0.1712646484375,0.8568115234375,0.1831054538488388,-1.3427733182907104,-2.197265625
382460,0.0167236328125,0.1556396484375,0.817626953125,-0.3662109076976776,-0.6103515625,-2.38037109375
382509,0.01953125,0.194091796875,0.936279296875,-2.685546636581421,0.4272460639476776,-2.50244140625
382529,0.0228271484375,0.1956787109375,0.9483642578125,-3.051757574081421,-0.6103515625,-1.9531248807907104
382545,0.017822265625,0.16552734375,0.8560791015625,-4.2724609375,-1.4038084745407104,-1.6479490995407104
382562,0.0140380859375,0.150390625,0.7728271484375,-5.249022960662842,-0.9155272841453552,-1.7700194120407104
382580,0.016357421875,0.1578369140625,0.7928466796875,-6.835937023162842,0.9155272841453552,-2.0751953125
382596,0.0191650390625,0.19921875,0.914306640625,-7.507323741912842,1.6479490995407104,-2.197265625
382627,0.0198974609375,0.2694091796875,1.1104736328125,-5.798339366912842,0.3662109076976776,-1.7089842557907104
382681,-0.0018310546875,0.200927734375,0.830322265625,-3.906249761581421,-1.4038084745407104,-1.15966796875
382706,-0.0048828125,0.20068359375,0.8228759765625,-5.493163585662842,0.6713866591453552,-1.4648436307907104
382718,0.0023193359375,0.2335205078125,0.918212890625,-5.798339366912842,1.15966796875,-1.5258787870407104
382748,0.015869140625,0.287841796875,1.0855712890625,-4.69970703125,0.9765624403953552,-1.4038084745407104
382764,0.01220703125,0.2835693359375,1.0755615234375,-3.051757574081421,-0.4882812201976776,-0.9765624403953552
382781,0.0006103515625,0.2587890625,0.9837646484375,-1.4648436307907104,-0.30517578125,-1.0986328125
382816,-0.005126953125,0.2567138671875,0.9493408203125,0.1220703050494194,0.9155272841453552,-1.2817381620407104
382827,-0.0006103515625,0.25634765625,0.963623046875,0.4272460639476776,1.15966796875,-1.3427733182907104
382844,0.00146484375,0.2591552734375,0.979736328125,0.7324218153953552,1.4038084745407104,-1.4648436307907104
382861,0.0072021484375,0.2742919921875,1.0301513671875,2.44140625,1.7089842557907104,-1.6479490995407104
382909,0.0118408203125,0.2672119140625,1.0462646484375,6.042479991912842,1.15966796875,-1.5869139432907104
382941,0.0133056640625,0.2576904296875,1.0052490234375,7.263183116912842,1.2817381620407104,-1.5869139432907104
382953,0.0108642578125,0.25048828125,0.986328125,7.507323741912842,1.3427733182907104,-1.3427733182907104
382986,0.0098876953125,0.2564697265625,1.005615234375,7.812499523162842,2.3193359375,-1.220703125
383005,0.015625,0.272216796875,1.061767578125,8.6669921875,1.8920897245407104,-0.8544921278953552
383022,0.021484375,0.2646484375,1.0509033203125,9.27734375,1.5869139432907104,-0.4882812201976776
383060,0.02197265625,0.238037109375,1.016357421875,9.27734375,1.8920897245407104,-0.1831054538488388
383076,0.0198974609375,0.2386474609375,1.0284423828125,8.9111328125,2.197265625,-0.0610351525247097
383093,0.0218505859375,0.2529296875,1.0606689453125,8.9111328125,2.25830078125,0.0
383107,0.0233154296875,0.264404296875,1.078857421875,9.27734375,2.3193359375,0.1831054538488388
383124,0.026611328125,0.2745361328125,1.1131591796875,10.253905296325684,1.8310545682907104,0.54931640625
383141,0.0281982421875,0.2698974609375,1.1158447265625,10.742186546325684,1.7089842557907104,0.8544921278953552
383174,0.02685546875,0.242431640625,1.1082763671875,11.840819358825684,1.0986328125,1.4648436307907104
383195,0.0252685546875,0.233642578125,1.108154296875,11.901854515075684,1.15966796875,1.4648436307907104
383225,0.0306396484375,0.239013671875,1.1549072265625,12.756346702575684,1.0986328125,1.5869139432907104
383274,0.0262451171875,0.242919921875,1.17236328125,14.709471702575684,0.1220703050494194,1.9531248807907104
383302,0.0208740234375,0.22412109375,1.127197265625,15.075682640075684,0.0,2.01416015625
383314,0.0189208984375,0.2047119140625,1.08984375,14.648436546325684,0.54931640625,2.01416015625
383346,0.025390625,0.1947021484375,1.1170654296875,13.977049827575684,1.3427733182907104,1.7700194120407104
383365,0.03466796875,0.2069091796875,1.1795654296875,13.916014671325684,0.9155272841453552,1.8310545682907104
383381,0.0400390625,0.2008056640625,1.1728515625,13.977049827575684,0.54931640625,1.8310545682907104
383416,0.03662109375,0.1761474609375,1.10498046875,13.610838890075684,-0.3662109076976776,1.8920897245407104
383432,0.0340576171875,0.1697998046875,1.093994140625,12.817381858825684,0.0,1.7700194120407104
383449,0.0335693359375,0.165283203125,1.1207275390625,11.718749046325684,0.0610351525247097,1.6479490995407104
383465,0.0341796875,0.167724609375,1.1336669921875,11.352538108825684,-0.2441406100988388,1.6479490995407104
383531,0.0355224609375,0.1546630859375,1.091064453125,9.21630859375,-1.7700194120407104,1.6479490995407104
383552,0.031494140625,0.1375732421875,1.033447265625,8.1787109375,-1.7700194120407104,1.6479490995407104
383569,0.0272216796875,0.123291015625,0.9932861328125,6.896972179412842,-1.220703125,1.5258787870407104
383585,0.0299072265625,0.1243896484375,1.0003662109375,6.286620616912842,-0.9765624403953552,1.4648436307907104
383634,-0.0045166015625,0.112060546875,0.941162109375,2.563476324081421,0.3662109076976776,1.2817381620407104
383726,0.1724853515625,0.256103515625,2.1998291015625,-0.4272460639476776,9.46044921875,0.1831054538488388
383743,0.2430419921875,0.2913818359375,2.5958251953125,6.042479991912842,-7.751464366912842,1.5869139432907104
383760,0.007568359375,-0.02294921875,0.4266357421875,1.7089842557907104,-8.056640625,1.220703125
383780,0.0047607421875,0.0382080078125,0.3092041015625,-2.624511480331421,4.57763671875,-0.6103515625
383797,0.005859375,0.135009765625,1.1221923828125,1.03759765625,3.417968511581421,-0.1220703050494194
383833,0.0311279296875,0.0125732421875,0.51171875,0.7324218153953552,-3.540038824081421,1.15966796875
383850,0.0430908203125,0.0521240234375,0.7822265625,-1.4038084745407104,0.7324218153953552,0.1831054538488388
383871,0.0650634765625,0.1348876953125,1.2330322265625,-2.25830078125,-1.2817381620407104,0.1831054538488388
383888,0.0281982421875,0.1290283203125,0.91455078125,-2.197265625,-1.220703125,0.1831054538488388
383956,0.040771484375,0.1236572265625,1.0631103515625,1.2817381620407104,-0.6103515625,0.30517578125
384099,0.03955078125,0.1240234375,1.0123291015625,4.638671875,-0.4882812201976776,0.1831054538488388
384144,0.031982421875,0.1004638671875,1.012939453125,4.5166015625,-0.4272460639476776,0.1220703050494194
384161,0.0355224609375,0.106201171875,1.0260009765625,4.150390625,-0.54931640625,0.0610351525247097
384178,0.034912109375,0.11474609375,1.0108642578125,4.08935546875,-0.4882812201976776,0.0610351525247097
384232,0.033935546875,0.097900390625,1.0177001953125,3.845214605331421,-0.4272460639476776,0.1220703050494194
384262,0.0335693359375,0.1031494140625,1.012939453125,3.295898199081421,-0.3662109076976776,0.1220703050494194
384290,0.03369140625,0.1094970703125,1.0196533203125,3.356933355331421,-0.3662109076976776,0.1831054538488388
384324,0.033935546875,0.1029052734375,1.0238037109375,3.356933355331421,-0.30517578125,0.2441406100988388
384341,0.033935546875,0.0980224609375,1.012451171875,3.173827886581421,-0.3662109076976776,0.1831054538488388
384358,0.0350341796875,0.10498046875,1.02490234375,3.112792730331421,-0.3662109076976776,0.1831054538488388
384376,0.0330810546875,0.1038818359375,1.017822265625,3.173827886581421,-0.3662109076976776,0.1831054538488388
384393,0.0328369140625,0.1015625,1.0233154296875,3.173827886581421,-0.3662109076976776,0.1831054538488388
384441,0.0333251953125,0.0955810546875,1.021240234375,2.807616949081421,-0.3662109076976776,0.1831054538488388
384520,0.03369140625,0.0897216796875,1.02392578125,1.9531248807907104,-0.30517578125,0.2441406100988388
384623,0.0333251953125,0.0906982421875,1.0230712890625,0.8544921278953552,-0.2441406100988388,0.2441406100988388
384640,0.0328369140625,0.091552734375,1.02001953125,0.6713866591453552,-0.2441406100988388,0.2441406100988388
384673,0.033203125,0.095703125,1.0206298828125,0.3662109076976776,-0.1831054538488388,0.3662109076976776
384690,0.033203125,0.0948486328125,1.022216796875,0.1831054538488388,-0.2441406100988388,0.30517578125
384706,0.032470703125,0.0948486328125,1.024169921875,0.1220703050494194,-0.2441406100988388,0.30517578125
384722,0.032958984375,0.095703125,1.018310546875,0.1220703050494194,-0.1831054538488388,0.2441406100988388
384742,0.032958984375,0.0989990234375,1.0223388671875,0.1831054538488388,-0.1220703050494194,0.2441406100988388
384764,0.0333251953125,0.099853515625,1.0169677734375,0.30517578125,-0.1831054538488388,0.3662109076976776
384779,0.03271484375,0.098388671875,1.0196533203125,0.3662109076976776,-0.1831054538488388,0.30517578125
384798,0.033203125,0.098876953125,1.02001953125,0.4272460639476776,-0.1831054538488388,0.30517578125
384815,0.033935546875,0.100341796875,1.0233154296875,0.6103515625,-0.1831054538488388,0.30517578125
384847,0.0325927734375,0.0994873046875,1.019775390625,0.9155272841453552,-0.1831054538488388,0.30517578125
384864,0.033203125,0.0986328125,1.016845703125,0.9765624403953552,-0.1831054538488388,0.30517578125
384901,0.0338134765625,0.096923828125,1.021240234375,1.220703125,-0.2441406100988388,0.2441406100988388
384921,0.0322265625,0.0970458984375,1.0216064453125,1.2817381620407104,-0.2441406100988388,0.1831054538488388
384938,0.033447265625,0.097412109375,1.0184326171875,1.3427733182907104,-0.2441406100988388,0.30517578125
384971,0.0343017578125,0.0968017578125,1.0240478515625,1.4038084745407104,-0.1831054538488388,0.30517578125
384988,0.03173828125,0.095458984375,1.0191650390625,1.4038084745407104,-0.2441406100988388,0.2441406100988388
385025,0.0341796875,0.09619140625,1.0218505859375,1.4038084745407104,-0.2441406100988388,0.2441406100988388
385041,0.03369140625,0.0966796875,1.0191650390625,1.4038084745407104,-0.2441406100988388,0.30517578125
385058,0.0330810546875,0.094970703125,1.02099609375,1.4648436307907104,-0.2441406100988388,0.30517578125
385088,0.033447265625,0.0943603515625,1.0201416015625,1.5258787870407104,-0.2441406100988388,0.2441406100988388
385104,0.0340576171875,0.094482421875,1.021484375,1.5258787870407104,-0.30517578125,0.1831054538488388
385121,0.033447265625,0.094482421875,1.0224609375,1.5258787870407104,-0.2441406100988388,0.2441406100988388
385154,0.0321044921875,0.0946044921875,1.02197265625,1.5869139432907104,-0.2441406100988388,0.2441406100988388
385170,0.03369140625,0.09375,1.0191650390625,1.5869139432907104,-0.2441406100988388,0.2441406100988388
385187,0.0333251953125,0.09375,1.01953125,1.5258787870407104,-0.30517578125,0.30517578125
385204,0.03271484375,0.0946044921875,1.02294921875,1.5869139432907104,-0.2441406100988388,0.30517578125
385223,0.0338134765625,0.0927734375,1.020263671875,1.5869139432907104,-0.2441406100988388,0.2441406100988388
385239,0.03369140625,0.09326171875,1.0216064453125,1.7089842557907104,-0.2441406100988388,0.2441406100988388
385277,0.0333251953125,0.0924072265625,1.0198974609375,1.6479490995407104,-0.30517578125,0.2441406100988388
385293,0.0328369140625,0.091064453125,1.021728515625,1.7089842557907104,-0.30517578125,0.2441406100988388
385310,0.032470703125,0.091552734375,1.0205078125,1.7089842557907104,-0.30517578125,0.30517578125
385327,0.03271484375,0.091552734375,1.02099609375,1.7089842557907104,-0.2441406100988388,0.30517578125
385343,0.032958984375,0.090576171875,1.0220947265625,1.7089842557907104,-0.30517578125,0.30517578125
385360,0.0325927734375,0.090576171875,1.021240234375,1.7089842557907104,-0.30517578125,0.30517578125
385408,0.03271484375,0.0904541015625,1.021484375,1.7089842557907104,-0.30517578125,0.2441406100988388
385459,0.033203125,0.088623046875,1.021484375,1.8920897245407104,-0.2441406100988388,0.1831054538488388
385471,0.033203125,0.08935546875,1.0233154296875,1.8310545682907104,-0.2441406100988388,0.2441406100988388
385504,0.0322265625,0.0885009765625,1.0208740234375,1.7089842557907104,-0.2441406100988388,0.2441406100988388
385521,0.03271484375,0.0875244140625,1.021240234375,1.7089842557907104,-0.1831054538488388,0.2441406100988388
385538,0.032958984375,0.0867919921875,1.0224609375,1.7089842557907104,-0.2441406100988388,0.2441406100988388
385570,0.0325927734375,0.0855712890625,1.0225830078125,1.5258787870407104,-0.2441406100988388,0.2441406100988388
385591,0.032470703125,0.086181640625,1.0220947265625,1.5258787870407104,-0.2441406100988388,0.30517578125
385607,0.032958984375,0.08642578125,1.02099609375,1.5258787870407104,-0.30517578125,0.2441406100988388
385619,0.033447265625,0.0858154296875,1.023193359375,1.5258787870407104,-0.30517578125,0.2441406100988388
385689,0.0322265625,0.0853271484375,1.012451171875,1.4648436307907104,-0.2441406100988388,0.2441406100988388
385706,0.0303955078125,0.0855712890625,1.02685546875,1.4038084745407104,-0.30517578125,0.30517578125
385722,0.0338134765625,0.083251953125,1.0172119140625,1.4038084745407104,-0.30517578125,0.30517578125
385739,0.033447265625,0.083740234375,1.0174560546875,1.4038084745407104,-0.2441406100988388,0.2441406100988388
385760,0.0330810546875,0.0845947265625,1.0235595703125,1.3427733182907104,-0.30517578125,0.2441406100988388
385776,0.0325927734375,0.0858154296875,1.0205078125,1.3427733182907104,-0.2441406100988388,0.30517578125
385793,0.03271484375,0.0850830078125,1.021728515625,1.3427733182907104,-0.2441406100988388,0.1831054538488388
385809,0.0330810546875,0.0850830078125,1.0235595703125,1.2817381620407104,-0.2441406100988388,0.2441406100988388
385857,0.0311279296875,0.084228515625,1.020263671875,1.4038084745407104,-0.2441406100988388,0.2441406100988388
385881,0.033447265625,0.0843505859375,1.0218505859375,1.5258787870407104,-0.2441406100988388,0.30517578125
385897,0.0325927734375,0.0843505859375,1.0228271484375,1.5258787870407104,-0.30517578125,0.2441406100988388
385930,0.0308837890625,0.083984375,1.0205078125,1.6479490995407104,-0.30517578125,0.2441406100988388
385946,0.03173828125,0.0841064453125,1.0228271484375,1.6479490995407104,-0.2441406100988388,0.2441406100988388
385963,0.031982421875,0.0838623046875,1.0216064453125,1.7700194120407104,-0.2441406100988388,0.2441406100988388
386003,0.0325927734375,0.082763671875,1.0218505859375,1.9531248807907104,-0.2441406100988388,0.1831054538488388
386019,0.031982421875,0.0833740234375,1.0223388671875,2.0751953125,-0.1831054538488388,0.1220703050494194
386036,0.0335693359375,0.0845947265625,1.0242919921875,2.3193359375,-0.1831054538488388,0.1831054538488388
386056,0.0333251953125,0.0845947265625,1.0198974609375,2.624511480331421,-0.2441406100988388,0.1831054538488388
386073,0.0311279296875,0.0841064453125,1.0225830078125,2.929687261581421,-0.3662109076976776,0.2441406100988388
386138,0.0328369140625,0.082763671875,1.0247802734375,3.906249761581421,-0.30517578125,0.1831054538488388
386180,0.0321044921875,0.077880859375,1.023193359375,4.45556640625,-0.3662109076976776,0.1831054538488388
386192,0.0328369140625,0.0738525390625,1.0238037109375,4.5166015625,-0.3662109076976776,0.1831054538488388
386225,0.031005859375,0.0738525390625,1.0230712890625,4.638671875,-0.3662109076976776,0.1220703050494194
386243,0.03173828125,0.0712890625,1.0225830078125,4.82177734375,-0.4272460639476776,0.0610351525247097
386260,0.032470703125,0.0701904296875,1.0238037109375,4.8828125,-0.4272460639476776,0.1220703050494194
386298,0.0296630859375,0.0653076171875,1.02294921875,4.7607421875,-0.3662109076976776,0.1220703050494194
386314,0.031982421875,0.063232421875,1.0233154296875,4.69970703125,-0.3662109076976776,0.1220703050494194
386331,0.032470703125,0.0616455078125,1.021484375,4.638671875,-0.30517578125,0.1831054538488388
386347,0.0316162109375,0.0582275390625,1.0205078125,4.33349609375,-0.1220703050494194,0.1831054538488388
386364,0.029541015625,0.05517578125,1.0230712890625,3.906249761581421,0.1220703050494194,0.2441406100988388
386381,0.02978515625,0.05322265625,1.023681640625,3.662109136581421,0.2441406100988388,0.2441406100988388
386435,0.03515625,0.0435791015625,1.0452880859375,1.3427733182907104,2.01416015625,0.0610351525247097
386493,0.073974609375,0.0732421875,1.2283935546875,-2.44140625,3.051757574081421,-0.54931640625
386543,0.08544921875,0.134765625,1.517578125,3.356933355331421,1.03759765625,-0.2441406100988388
386560,0.08447265625,0.1151123046875,1.5098876953125,6.225585460662842,0.1220703050494194,-0.2441406100988388
386597,0.066650390625,0.094482421875,1.409423828125,8.23974609375,-0.54931640625,-0.54931640625
386614,0.0528564453125,0.0894775390625,1.3365478515625,7.995604991912842,-0.0610351525247097,-0.30517578125
386631,0.047119140625,0.0799560546875,1.3172607421875,7.629394054412842,0.30517578125,-0.30517578125
386648,0.0462646484375,0.0806884765625,1.330078125,7.263183116912842,0.8544921278953552,-0.2441406100988388
386669,0.058349609375,0.0860595703125,1.386474609375,7.568358898162842,0.6103515625,-0.30517578125
386734,0.0550537109375,0.077880859375,1.3896484375,12.390135765075684,-2.746581792831421,-0.54931640625
386800,0.025390625,0.0863037109375,1.293212890625,10.803221702575684,-3.295898199081421,-0.9155272841453552
386843,0.0225830078125,0.083740234375,1.2418212890625,10.131834983825684,-4.33349609375,-0.9155272841453552
386855,0.021240234375,0.0704345703125,1.1947021484375,9.21630859375,-3.967284917831421,-0.9155272841453552
386888,0.0146484375,0.0489501953125,1.16357421875,8.056640625,-3.662109136581421,-0.7934569716453552
386905,0.00732421875,0.03076171875,1.12060546875,6.652831554412842,-3.601073980331421,-0.8544921278953552
386922,0.007080078125,0.0224609375,1.1116943359375,6.225585460662842,-3.356933355331421,-0.8544921278953552
386954,0.00732421875,0.0042724609375,1.082275390625,5.126952648162842,-3.356933355331421,-1.0986328125
386971,0.0068359375,0.005126953125,1.0628662109375,4.57763671875,-3.784179449081421,-1.2817381620407104
386992,0.0078125,0.001708984375,0.9970703125,3.967284917831421,-3.967284917831421,-1.2817381620407104
387006,0.0115966796875,-0.0003662109375,0.916015625,3.662109136581421,-4.08935546875,-1.2817381620407104
387018,0.01123046875,-0.006103515625,0.8726806640625,3.173827886581421,-4.21142578125,-1.2817381620407104
387034,0.008544921875,-0.01171875,0.78466796875,2.685546636581421,-4.21142578125,-1.3427733182907104
387068,0.0045166015625,-0.0238037109375,0.642333984375,0.1220703050494194,-3.845214605331421,-1.3427733182907104
387085,0.0048828125,-0.0146484375,0.573974609375,-0.7324218153953552,-3.479003667831421,-1.4038084745407104
387106,0.0032958984375,-0.0164794921875,0.55029296875,-1.7700194120407104,-2.807616949081421,-1.3427733182907104
387122,0.001708984375,-0.0123291015625,0.5177001953125,-2.746581792831421,-2.3193359375,-1.4648436307907104
387141,0.00537109375,-0.0107421875,0.4971923828125,-3.173827886581421,-2.01416015625,-1.5869139432907104
387158,0.008056640625,-0.007568359375,0.4854736328125,-3.112792730331421,-1.7700194120407104,-1.6479490995407104
387191,0.010498046875,0.005859375,0.4781494140625,-3.173827886581421,-1.2817381620407104,-1.8920897245407104
387258,0.0068359375,-0.011962890625,0.543212890625,-4.2724609375,0.4272460639476776,-2.01416015625
387278,0.01611328125,-0.0069580078125,0.6280517578125,-4.69970703125,0.8544921278953552,-2.0751953125
387294,0.0223388671875,-0.0013427734375,0.680908203125,-5.981444835662842,1.220703125,-2.01416015625
387307,0.026611328125,0.0030517578125,0.7603759765625,-7.324218273162842,1.3427733182907104,-1.8310545682907104
387324,0.0262451171875,0.00244140625,0.800048828125,-7.995604991912842,1.5258787870407104,-1.7089842557907104
387341,0.0301513671875,-0.0018310546875,0.9033203125,-9.33837890625,1.5869139432907104,-1.5258787870407104
387373,0.0323486328125,0.0009765625,0.9940185546875,-10.314940452575684,0.9765624403953552,-1.3427733182907104
387390,0.036376953125,0.0101318359375,1.010986328125,-10.498045921325684,0.6713866591453552,-1.0986328125
387424,0.032958984375,0.0185546875,1.030029296875,-9.8876953125,0.6713866591453552,-0.7934569716453552
387469,0.03173828125,0.027099609375,1.097900390625,-7.080077648162842,-0.1220703050494194,-0.3662109076976776
387502,0.02734375,0.03125,1.0919189453125,-5.615233898162842,-0.9155272841453552,0.0
387519,0.021728515625,0.0228271484375,1.0706787109375,-5.310058116912842,-1.0986328125,0.1220703050494194
387552,0.017578125,0.0174560546875,1.0615234375,-4.69970703125,-1.5258787870407104,0.30517578125
387569,0.0167236328125,0.025146484375,1.0733642578125,-4.21142578125,-1.7089842557907104,0.4272460639476776
387586,0.0137939453125,0.0279541015625,1.07177734375,-4.0283203125,-2.13623046875,0.4272460639476776
387602,0.0123291015625,0.0262451171875,1.051513671875,-3.662109136581421,-2.868652105331421,0.6103515625
387622,0.010009765625,0.0152587890625,1.0185546875,-3.662109136581421,-2.929687261581421,0.6103515625
387644,0.005126953125,0.0137939453125,1.00634765625,-3.845214605331421,-2.929687261581421,0.54931640625
387660,0.00390625,0.0196533203125,1.0068359375,-3.906249761581421,-2.990722417831421,0.4272460639476776
387677,0.001220703125,0.030517578125,1.0032958984375,-3.845214605331421,-3.112792730331421,0.4272460639476776
387694,-0.001708984375,0.036376953125,1.0009765625,-3.540038824081421,-2.929687261581421,0.4272460639476776
387726,-0.004638671875,0.0570068359375,1.014404296875,-2.868652105331421,-2.990722417831421,0.4272460639476776
387744,-0.0042724609375,0.0611572265625,1.005615234375,-2.50244140625,-2.746581792831421,0.3662109076976776
387761,-0.006591796875,0.0684814453125,0.982666015625,-1.9531248807907104,-2.197265625,0.4272460639476776
387780,-0.0068359375,0.0723876953125,1.0009765625,-1.220703125,-1.4648436307907104,0.3662109076976776
387800,-0.00439453125,0.07763671875,1.0146484375,-0.8544921278953552,-1.4038084745407104,0.3662109076976776
387817,-0.00048828125,0.0809326171875,1.0169677734375,0.0,-1.15966796875,0.30517578125
387850,0.00390625,0.083984375,1.006103515625,1.220703125,-0.6713866591453552,0.3662109076976776
387867,0.004150390625,0.0810546875,0.9984130859375,1.2817381620407104,-0.6103515625,0.4272460639476776
387883,0.0048828125,0.0809326171875,0.9981689453125,1.4648436307907104,-0.3662109076976776,0.4882812201976776
387919,0.0086669921875,0.0772705078125,1.006103515625,1.2817381620407104,-0.1220703050494194,0.4882812201976776
387976,0.005615234375,0.0718994140625,0.990234375,0.7934569716453552,0.1220703050494194,0.6713866591453552
387992,0.007568359375,0.069580078125,1.0006103515625,0.6713866591453552,0.30517578125,0.6713866591453552
388009,0.0079345703125,0.068603515625,1.0069580078125,0.6713866591453552,0.4272460639476776,0.6713866591453552
388026,0.0098876953125,0.0716552734375,1.0167236328125,0.8544921278953552,0.4272460639476776,0.6713866591453552
388042,0.0078125,0.07080078125,1.0126953125,0.9155272841453552,0.3662109076976776,0.7324218153953552
388059,0.0091552734375,0.07080078125,1.0218505859375,0.9765624403953552,0.6713866591453552,0.7324218153953552
388092,0.0059814453125,0.069580078125,1.02587890625,0.9765624403953552,0.6103515625,0.8544921278953552
388145,0.0029296875,0.0616455078125,1.0035400390625,0.6103515625,0.8544921278953552,0.9765624403953552
388161,0.0052490234375,0.062255859375,1.0130615234375,0.4272460639476776,0.9765624403953552,0.9765624403953552
388178,0.004638671875,0.0638427734375,1.018798828125,0.1831054538488388,1.03759765625,0.9155272841453552
388209,0.0040283203125,0.059814453125,1.00830078125,-0.54931640625,0.9155272841453552,1.0986328125
388225,0.0029296875,0.0604248046875,1.00341796875,-0.7324218153953552,1.15966796875,1.03759765625
388242,0.007080078125,0.0699462890625,1.0321044921875,-0.9155272841453552,1.4038084745407104,1.03759765625
388263,0.010986328125,0.080322265625,1.0509033203125,-0.9155272841453552,1.220703125,1.15966796875
388279,0.008544921875,0.0780029296875,1.036865234375,-0.8544921278953552,0.9765624403953552,1.3427733182907104
388329,0.007568359375,0.0767822265625,1.022216796875,-1.220703125,0.7934569716453552,1.2817381620407104
388346,0.0067138671875,0.0753173828125,1.006103515625,-1.7089842557907104,0.7324218153953552,1.4038084745407104
388363,0.0072021484375,0.073486328125,0.9896240234375,-1.9531248807907104,0.9155272841453552,1.4648436307907104
388400,0.01123046875,0.074462890625,1.0037841796875,-1.7089842557907104,0.7324218153953552,1.5869139432907104
388449,0.0064697265625,0.0574951171875,0.9432373046875,-1.03759765625,-0.1831054538488388,1.7089842557907104
388465,0.0045166015625,0.0445556640625,0.8887939453125,-1.03759765625,-0.30517578125,1.7700194120407104
388482,0.00146484375,0.03076171875,0.8414306640625,-1.220703125,0.1831054538488388,1.7089842557907104
388515,0.00146484375,0.0206298828125,0.8431396484375,-1.4038084745407104,0.6103515625,1.5869139432907104
388535,0.0023193359375,0.0263671875,0.857177734375,-0.9155272841453552,0.7324218153953552,1.4648436307907104
388552,0.005615234375,0.03955078125,0.88134765625,-0.4272460639476776,0.9155272841453552,1.4038084745407104
388569,0.0072021484375,0.04296875,0.887939453125,0.7324218153953552,0.9765624403953552,1.4038084745407104
388585,0.0091552734375,0.043212890625,0.882568359375,2.01416015625,0.7934569716453552,1.3427733182907104
388602,0.0072021484375,0.028564453125,0.8533935546875,2.868652105331421,1.03759765625,1.220703125
388639,0.0213623046875,0.036865234375,0.8956298828125,3.906249761581421,1.7089842557907104,0.9155272841453552
388660,0.027587890625,0.0496826171875,0.9345703125,4.94384765625,1.9531248807907104,0.7324218153953552
388676,0.0340576171875,0.0650634765625,0.9757080078125,6.347655773162842,0.8544921278953552,0.9765624403953552
388697,0.026123046875,0.050048828125,0.9248046875,6.958007335662842,-0.1831054538488388,1.220703125
388714,0.0142822265625,0.0306396484375,0.8330078125,6.652831554412842,-0.0610351525247097,1.220703125
388730,0.015625,0.0218505859375,0.81640625,5.493163585662842,0.7934569716453552,1.0986328125
388747,0.0179443359375,0.02392578125,0.8236083984375,4.0283203125,1.3427733182907104,1.0986328125
388764,0.023193359375,0.0341796875,0.8577880859375,2.868652105331421,1.3427733182907104,1.220703125
388780,0.0244140625,0.0391845703125,0.8673095703125,2.25830078125,1.0986328125,1.3427733182907104
388801,0.0181884765625,0.03173828125,0.8341064453125,0.6713866591453552,0.4882812201976776,1.5869139432907104
388820,0.0155029296875,0.0274658203125,0.8072509765625,-1.220703125,1.4648436307907104,1.7089842557907104
388836,0.023681640625,0.0396728515625,0.876953125,-2.624511480331421,2.25830078125,1.6479490995407104
388869,0.0330810546875,0.074951171875,1.0101318359375,-2.929687261581421,0.9155272841453552,2.0751953125
388935,0.030029296875,0.052001953125,0.964111328125,-4.69970703125,1.7089842557907104,2.25830078125
388951,0.034912109375,0.063720703125,1.0224609375,-4.33349609375,1.4648436307907104,2.0751953125
388967,0.037109375,0.0745849609375,1.052978515625,-3.845214605331421,1.15966796875,2.0751953125
388983,0.0303955078125,0.087646484375,1.0478515625,-2.563476324081421,-0.1220703050494194,2.25830078125
389002,0.0150146484375,0.0858154296875,0.94384765625,-2.13623046875,-0.3662109076976776,2.3193359375
389014,0.0142822265625,0.0865478515625,0.920654296875,-1.5869139432907104,0.7934569716453552,2.197265625
389030,0.0194091796875,0.08544921875,0.96337890625,-1.3427733182907104,1.5258787870407104,2.0751953125
389047,0.023681640625,0.0909423828125,1.0142822265625,-0.30517578125,2.197265625,2.01416015625
389096,0.0179443359375,0.086181640625,1.0322265625,4.33349609375,0.3662109076976776,1.7700194120407104
389195,0.02734375,0.09033203125,1.016357421875,7.873534679412842,0.7934569716453552,1.4648436307907104
389242,0.0352783203125,0.1041259765625,1.0849609375,8.11767578125,1.2817381620407104,1.3427733182907104
389253,0.0374755859375,0.1087646484375,1.0919189453125,8.30078125,0.4882812201976776,1.5869139432907104
389287,0.036376953125,0.0849609375,1.0689697265625,7.934569835662842,0.8544921278953552,1.5869139432907104
389303,0.0357666015625,0.0867919921875,1.1171875,8.1787109375,1.4648436307907104,1.15966796875
389320,0.036865234375,0.0950927734375,1.148193359375,8.544921875,1.3427733182907104,1.0986328125
389357,0.031494140625,0.104736328125,1.173583984375,10.742186546325684,0.54931640625,1.0986328125
389407,0.0291748046875,0.0765380859375,1.1273193359375,11.230467796325684,0.7934569716453552,0.9765624403953552
389423,0.03173828125,0.0745849609375,1.1517333984375,11.169432640075684,1.2817381620407104,0.9155272841453552
389440,0.0357666015625,0.0753173828125,1.179443359375,11.413573265075684,1.4648436307907104,0.7324218153953552
389473,0.0440673828125,0.0577392578125,1.1864013671875,11.718749046325684,0.4882812201976776,0.7324218153953552
389509,0.0401611328125,0.050537109375,1.1455078125,10.803221702575684,0.9765624403953552,0.54931640625
389545,0.0389404296875,0.0469970703125,1.163330078125,9.82666015625,0.3662109076976776,0.6103515625
389562,0.03662109375,0.0438232421875,1.14794921875,9.1552734375,0.0610351525247097,0.6713866591453552
389579,0.0360107421875,0.0301513671875,1.14013671875,8.6669921875,0.2441406100988388,0.6103515625
389599,0.0369873046875,0.0257568359375,1.1416015625,7.812499523162842,0.2441406100988388,0.6103515625
389616,0.037353515625,0.026123046875,1.1533203125,7.141112804412842,0.4882812201976776,0.4272460639476776
389633,0.0396728515625,0.025634765625,1.1982421875,6.896972179412842,0.4882812201976776,0.4272460639476776
389649,0.0390625,0.020263671875,1.2174072265625,6.591796398162842,0.1220703050494194,0.30517578125
389697,0.0263671875,-0.0009765625,1.1123046875,4.638671875,-0.8544921278953552,-0.1220703050494194
389728,0.0283203125,-0.0052490234375,1.0762939453125,2.685546636581421,-0.4882812201976776,-0.2441406100988388
389745,0.0308837890625,-0.0048828125,1.08154296875,0.9155272841453552,-0.1220703050494194,-0.4272460639476776
389762,0.031005859375,-0.003173828125,1.08203125,-0.7324218153953552,-0.1831054538488388,-0.6103515625
389781,0.03125,0.0050048828125,1.0814208984375,-2.13623046875,-0.7324218153953552,-0.7324218153953552
389797,0.0186767578125,0.00830078125,0.9990234375,-3.845214605331421,-0.4882812201976776,-0.7324218153953552
389830,0.022705078125,0.0123291015625,0.9910888671875,-6.286620616912842,0.8544921278953552,-0.8544921278953552
389852,0.0302734375,0.0120849609375,1.028076171875,-7.568358898162842,0.9765624403953552,-0.7934569716453552
389868,0.0341796875,0.0072021484375,1.036865234375,-7.995604991912842,0.8544921278953552,-0.8544921278953552
389880,0.1270751953125,-0.0499267578125,1.78466796875,-6.896972179412842,0.30517578125,-1.2817381620407104
389901,0.17333984375,-0.066650390625,1.9627685546875,0.7324218153953552,-8.1787109375,-2.25830078125
389917,0.0006103515625,0.0091552734375,0.6395263671875,-0.7324218153953552,-10.803221702575684,-2.197265625
389951,0.00634765625,0.0230712890625,0.7115478515625,16.4794921875,4.638671875,-1.220703125
389967,0.079833984375,0.038818359375,1.5242919921875,5.0048828125,0.30517578125,-1.0986328125
389984,0.0843505859375,0.042724609375,1.556640625,2.25830078125,-3.295898199081421,-0.7934569716453552
390005,0.0093994140625,0.067626953125,0.680908203125,8.85009765625,-3.540038824081421,-0.4272460639476776
390021,0.0045166015625,0.0682373046875,1.04833984375,10.681151390075684,0.4882812201976776,0.3662109076976776
390038,0.060791015625,0.012451171875,1.1871337890625,10.803221702575684,-0.8544921278953552,0.6713866591453552
390070,0.017822265625,-0.0467529296875,0.9969482421875,10.253905296325684,-1.5869139432907104,-0.0610351525247097
390086,0.01220703125,-0.0322265625,1.072998046875,9.21630859375,-1.8920897245407104,-0.54931640625
390103,0.0245361328125,0.0050048828125,0.9736328125,9.09423828125,-1.7700194120407104,-0.54931640625
390138,0.0286865234375,-0.009765625,1.0150146484375,10.009765625,-1.3427733182907104,0.30517578125
390160,0.0194091796875,-0.0579833984375,1.015380859375,9.033203125,-0.6103515625,0.0610351525247097
390176,0.0263671875,-0.045166015625,1.0361328125,8.23974609375,-0.54931640625,-0.1220703050494194
390197,0.0302734375,-0.0330810546875,1.022216796875,7.568358898162842,-0.54931640625,-0.30517578125
390214,0.02978515625,0.0010986328125,1.0343017578125,8.056640625,-0.8544921278953552,-0.0610351525247097
390230,0.02099609375,-0.01806640625,1.0233154296875,8.544921875,-0.9765624403953552,0.30517578125
390247,0.0238037109375,-0.051025390625,1.027099609375,8.056640625,-0.8544921278953552,0.30517578125
390264,0.028076171875,-0.064208984375,1.0189208984375,7.507323741912842,-0.7934569716453552,0.1220703050494194
390281,0.0311279296875,-0.0506591796875,1.02978515625,6.530761241912842,-0.6713866591453552,-0.1831054538488388
390300,0.025146484375,-0.0252685546875,1.0230712890625,6.652831554412842,-0.6713866591453552,-0.1220703050494194
390365,0.022216796875,-0.0782470703125,1.0263671875,5.981444835662842,-0.54931640625,0.2441406100988388
390388,0.023681640625,-0.064697265625,1.0240478515625,4.2724609375,-0.4272460639476776,0.0610351525247097
390405,0.0242919921875,-0.05810546875,1.0228271484375,2.868652105331421,-0.30517578125,0.0610351525247097
390422,0.0242919921875,-0.0537109375,1.027099609375,1.7700194120407104,-0.2441406100988388,0.2441406100988388
390440,0.0224609375,-0.0648193359375,1.0235595703125,1.220703125,-0.1831054538488388,0.30517578125
390456,0.023193359375,-0.066162109375,1.0260009765625,-0.54931640625,-0.1220703050494194,0.2441406100988388
390489,0.0257568359375,-0.0413818359375,1.0179443359375,-1.2817381620407104,-0.1220703050494194,0.1831054538488388
390543,0.024169921875,-0.046142578125,1.0242919921875,-0.7324218153953552,-0.1831054538488388,0.4272460639476776
390681,0.0250244140625,-0.0428466796875,1.02587890625,-0.4272460639476776,-0.1831054538488388,0.30517578125
390697,0.0235595703125,-0.04296875,1.02392578125,-0.6713866591453552,-0.1220703050494194,0.3662109076976776
390728,0.0264892578125,-0.0460205078125,1.02783203125,-1.2817381620407104,-0.1220703050494194,0.3662109076976776
390744,0.0252685546875,-0.043701171875,1.0303955078125,-1.4648436307907104,-0.1220703050494194,0.30517578125
390761,0.0234375,-0.035888671875,1.024169921875,-1.4648436307907104,-0.1220703050494194,0.30517578125
390791,0.0272216796875,-0.0328369140625,1.0245361328125,-1.15966796875,-0.0610351525247097,0.3662109076976776
390813,0.026123046875,-0.03759765625,1.02587890625,-1.15966796875,-0.0610351525247097,0.3662109076976776
390829,0.024169921875,-0.038330078125,1.02392578125,-1.0986328125,-0.0610351525247097,0.3662109076976776
390846,0.02490234375,-0.037353515625,1.02294921875,-1.15966796875,-0.0610351525247097,0.3662109076976776
390862,0.0284423828125,-0.0316162109375,1.0255126953125,-1.0986328125,-0.0610351525247097,0.30517578125
390909,0.0247802734375,-0.031494140625,1.025634765625,-0.4882812201976776,-0.2441406100988388,0.3662109076976776
390925,0.0263671875,-0.0330810546875,1.0238037109375,-0.4882812201976776,-0.1831054538488388,0.4272460639476776
390977,0.0242919921875,-0.0291748046875,1.0247802734375,-0.30517578125,-0.1831054538488388,0.30517578125
390994,0.025146484375,-0.028564453125,1.02294921875,-0.1831054538488388,-0.1831054538488388,0.30517578125
391011,0.027099609375,-0.0316162109375,1.026123046875,-0.1220703050494194,-0.1220703050494194,0.30517578125
391027,0.0252685546875,-0.033203125,1.0257568359375,0.0,-0.1220703050494194,0.30517578125
391044,0.0238037109375,-0.03125,1.0283203125,0.0610351525247097,-0.1831054538488388,0.3662109076976776
391060,0.0257568359375,-0.0289306640625,1.023681640625,0.1220703050494194,-0.2441406100988388,0.30517578125
391092,0.0267333984375,-0.0286865234375,1.0263671875,0.2441406100988388,-0.1831054538488388,0.30517578125
391145,0.0245361328125,-0.02685546875,1.029296875,0.6103515625,-0.2441406100988388,0.2441406100988388
391162,0.026123046875,-0.027587890625,1.0225830078125,0.7324218153953552,-0.1831054538488388,0.30517578125
391178,0.0252685546875,-0.0283203125,1.02783203125,0.9155272841453552,-0.1831054538488388,0.2441406100988388
391209,0.026123046875,-0.0299072265625,1.0252685546875,1.2817381620407104,-0.2441406100988388,0.3662109076976776
391225,0.0264892578125,-0.0308837890625,1.0267333984375,1.3427733182907104,-0.2441406100988388,0.30517578125
391242,0.0264892578125,-0.03173828125,1.0244140625,1.2817381620407104,-0.1831054538488388,0.2441406100988388
391258,0.0242919921875,-0.0306396484375,1.0272216796875,1.2817381620407104,-0.2441406100988388,0.30517578125
391309,0.0260009765625,-0.0313720703125,1.0267333984375,1.3427733182907104,-0.30517578125,0.30517578125
391343,0.0252685546875,-0.030517578125,1.0245361328125,1.2817381620407104,-0.2441406100988388,0.2441406100988388
391359,0.025390625,-0.0321044921875,1.0274658203125,1.2817381620407104,-0.2441406100988388,0.2441406100988388
391393,0.0250244140625,-0.03515625,1.02490234375,1.2817381620407104,-0.2441406100988388,0.2441406100988388
391408,0.0252685546875,-0.03515625,1.02587890625,1.03759765625,-0.1831054538488388,0.2441406100988388
391425,0.0250244140625,-0.034423828125,1.0247802734375,0.9155272841453552,-0.1831054538488388,0.2441406100988388
391441,0.0260009765625,-0.0322265625,1.0269775390625,0.9155272841453552,-0.2441406100988388,0.2441406100988388
391466,0.0250244140625,-0.0333251953125,1.0269775390625,0.9155272841453552,-0.2441406100988388,0.2441406100988388
391482,0.0242919921875,-0.032958984375,1.02490234375,0.9155272841453552,-0.2441406100988388,0.2441406100988388
391499,0.0242919921875,-0.03173828125,1.0247802734375,0.9765624403953552,-0.2441406100988388,0.30517578125
391520,0.0257568359375,-0.03173828125,1.026123046875,1.0986328125,-0.2441406100988388,0.2441406100988388
391536,0.0262451171875,-0.030517578125,1.025634765625,1.15966796875,-0.1831054538488388,0.2441406100988388
391570,0.0250244140625,-0.0333251953125,1.0260009765625,1.2817381620407104,-0.2441406100988388,0.30517578125
391586,0.026123046875,-0.0338134765625,1.026123046875,1.2817381620407104,-0.1831054538488388,0.2441406100988388
391623,0.0252685546875,-0.0328369140625,1.0257568359375,1.3427733182907104,-0.1831054538488388,0.2441406100988388
391642,0.0250244140625,-0.033447265625,1.0263671875,1.4038084745407104,-0.2441406100988388,0.2441406100988388
391658,0.02587890625,-0.034423828125,1.0272216796875,1.3427733182907104,-0.2441406100988388,0.2441406100988388
391691,0.0250244140625,-0.0341796875,1.0250244140625,1.3427733182907104,-0.1831054538488388,0.30517578125
391758,0.0260009765625,-0.0341796875,1.02587890625,1.3427733182907104,-0.1831054538488388,0.2441406100988388
391832,0.025390625,-0.0279541015625,1.01904296875,2.38037109375,-0.0610351525247097,0.1220703050494194
391886,0.0264892578125,-0.0281982421875,1.02490234375,4.33349609375,-0.30517578125,0.1220703050494194
391903,0.0238037109375,-0.031494140625,1.0245361328125,4.7607421875,-0.30517578125,0.1831054538488388
391920,0.02490234375,-0.032958984375,1.0262451171875,5.432128429412842,-0.3662109076976776,0.1220703050494194
391939,0.02587890625,-0.034912109375,1.0228271484375,5.920409679412842,-0.3662109076976776,0.1220703050494194
391955,0.026123046875,-0.040283203125,1.02392578125,6.286620616912842,-0.2441406100988388,0.1831054538488388
391972,0.0262451171875,-0.0474853515625,1.02685546875,6.408690929412842,-0.1220703050494194,0.1220703050494194
391989,0.025390625,-0.0496826171875,1.028564453125,6.347655773162842,-0.0610351525247097,0.1220703050494194
392038,0.0281982421875,-0.051025390625,1.019775390625,5.981444835662842,0.3662109076976776,0.0610351525247097
392143,0.13623046875,0.0328369140625,1.5069580078125,7.690429210662842,1.5869139432907104,0.0
392203,0.0928955078125,-0.018310546875,1.5341796875,4.0283203125,-2.990722417831421,0.7934569716453552
392255,0.0540771484375,-0.031982421875,1.3240966796875,-1.2817381620407104,-3.845214605331421,1.5869139432907104
392300,0.035888671875,-0.049560546875,1.333740234375,-5.981444835662842,-2.0751953125,1.9531248807907104
392350,-0.0028076171875,-0.0318603515625,1.4090576171875,-5.798339366912842,-5.310058116912842,2.01416015625
392383,-0.015869140625,-0.0411376953125,1.200927734375,-9.033203125,-3.356933355331421,2.197265625
392425,-0.0218505859375,-0.0235595703125,1.2071533203125,-11.352538108825684,-1.2817381620407104,2.13623046875
392459,-0.0186767578125,-0.010986328125,1.25634765625,-12.207030296325684,-0.7934569716453552,2.01416015625
392483,-0.0211181640625,-0.0111083984375,1.1953125,-12.695311546325684,0.0,2.01416015625
392500,-0.0189208984375,-0.0106201171875,1.1788330078125,-13.244627952575684,0.6713866591453552,1.8920897245407104
392533,-0.010498046875,-0.03271484375,1.024169921875,-15.075682640075684,1.15966796875,1.7700194120407104
392550,-0.007568359375,-0.041748046875,0.9981689453125,-17.08984375,2.0751953125,1.6479490995407104
392582,-0.0030517578125,-0.0369873046875,0.94189453125,-19.4091796875,2.746581792831421,1.4648436307907104
392680,0.006103515625,-0.030029296875,0.673828125,-21.240232467651367,2.25830078125,1.4038084745407104
392742,0.0062255859375,-0.0150146484375,0.4908447265625,-23.620603561401367,3.112792730331421,1.5258787870407104
392860,0.025390625,-0.0186767578125,0.550048828125,-23.864744186401367,2.746581792831421,1.4038084745407104
392905,0.0345458984375,0.0135498046875,0.78857421875,-23.803709030151367,2.01416015625,1.4038084745407104
392917,0.0345458984375,0.022216796875,0.8170166015625,-23.681638717651367,1.3427733182907104,1.5258787870407104
392950,0.0389404296875,0.0638427734375,0.9071044921875,-22.644041061401367,0.9765624403953552,1.7089842557907104
392967,0.0433349609375,0.0933837890625,0.98046875,-20.996091842651367,0.8544921278953552,1.5869139432907104
392984,0.04736328125,0.10693359375,1.020263671875,-19.95849609375,0.6713866591453552,1.6479490995407104
393005,0.0516357421875,0.1358642578125,1.0682373046875,-17.27294921875,0.2441406100988388,1.5869139432907104
393021,0.058349609375,0.1688232421875,1.1248779296875,-13.977049827575684,0.0,1.5258787870407104
393033,0.058349609375,0.191162109375,1.1505126953125,-12.268065452575684,-0.30517578125,1.6479490995407104
393066,0.0460205078125,0.183837890625,1.089111328125,-7.324218273162842,-1.5869139432907104,1.8310545682907104
393083,0.0440673828125,0.183837890625,1.0684814453125,-4.45556640625,-1.5258787870407104,1.5258787870407104
393100,0.04296875,0.1937255859375,1.0482177734375,-1.8310545682907104,-1.4648436307907104,1.4038084745407104
393137,0.0400390625,0.1937255859375,1.0372314453125,2.25830078125,-1.7700194120407104,1.220703125
393153,0.034423828125,0.1793212890625,1.010009765625,4.5166015625,-2.197265625,1.15966796875
393170,0.03173828125,0.1630859375,0.978515625,5.432128429412842,-2.3193359375,1.15966796875
393186,0.027099609375,0.145751953125,0.9520263671875,6.774901866912842,-2.3193359375,1.03759765625
393203,0.0262451171875,0.141845703125,0.9501953125,7.995604991912842,-2.3193359375,0.8544921278953552
393220,0.0257568359375,0.132080078125,0.940673828125,8.60595703125,-2.44140625,0.7934569716453552
393252,0.0281982421875,0.1258544921875,0.9510498046875,9.3994140625,-2.38037109375,0.6713866591453552
393302,0.0303955078125,0.136962890625,1.00830078125,11.657713890075684,-2.563476324081421,0.4272460639476776
393327,0.0296630859375,0.1414794921875,1.0194091796875,13.000487327575684,-2.563476324081421,0.1831054538488388
393344,0.0284423828125,0.1417236328125,1.023681640625,14.221190452575684,-2.563476324081421,0.0610351525247097
393361,0.0283203125,0.140625,1.031982421875,15.136717796325684,-2.50244140625,0.0
393413,0.0294189453125,0.1258544921875,1.0511474609375,15.624999046325684,-2.38037109375,-0.4272460639476776
393443,0.029541015625,0.1168212890625,1.0333251953125,15.624999046325684,-2.3193359375,-0.6103515625
393455,0.0279541015625,0.103515625,1.01318359375,15.502928733825684,-2.3193359375,-0.6713866591453552
393488,0.028564453125,0.0853271484375,1.0128173828125,14.343260765075684,-1.7700194120407104,-1.0986328125
393505,0.0286865234375,0.0777587890625,1.0081787109375,13.854979515075684,-1.7089842557907104,-1.220703125
393522,0.0281982421875,0.0657958984375,0.9937744140625,12.878417015075684,-1.5869139432907104,-1.4648436307907104
393543,0.02587890625,0.0584716796875,0.9739990234375,11.718749046325684,-1.3427733182907104,-1.5258787870407104
393558,0.0245361328125,0.0552978515625,0.9759521484375,11.108397483825684,-1.0986328125,-1.5258787870407104
393608,0.01904296875,0.0755615234375,1.01953125,7.812499523162842,-0.4882812201976776,-1.7089842557907104
393625,0.0179443359375,0.08349609375,1.0247802734375,6.774901866912842,-0.30517578125,-1.7089842557907104
393642,0.01806640625,0.0986328125,1.0516357421875,5.981444835662842,-0.2441406100988388,-1.4648436307907104
393674,0.0201416015625,0.10302734375,1.05078125,5.126952648162842,-0.4272460639476776,-1.15966796875
393722,0.021240234375,0.0927734375,1.023681640625,3.540038824081421,0.30517578125,-0.9155272841453552
393747,0.0189208984375,0.0875244140625,1.00927734375,2.990722417831421,0.30517578125,-0.8544921278953552
393764,0.018798828125,0.0855712890625,1.001953125,2.38037109375,0.4882812201976776,-0.7934569716453552
393781,0.02001953125,0.078125,0.988525390625,2.01416015625,0.54931640625,-0.7324218153953552
393833,0.0277099609375,0.0716552734375,0.9925537109375,-0.1220703050494194,1.0986328125,-0.6713866591453552
393922,0.035400390625,0.0767822265625,1.0321044921875,-0.7934569716453552,0.6713866591453552,-0.3662109076976776
393939,0.039794921875,0.07763671875,1.0499267578125,-0.7324218153953552,0.6103515625,-0.30517578125
393971,0.034423828125,0.0789794921875,1.06201171875,-0.1831054538488388,0.0,-0.1831054538488388
393988,0.031005859375,0.08203125,1.0657958984375,0.0,-0.0610351525247097,-0.2441406100988388
394004,0.030029296875,0.0838623046875,1.06982421875,0.54931640625,-0.2441406100988388,-0.1831054538488388
394025,0.0286865234375,0.0877685546875,1.0731201171875,1.15966796875,-0.54931640625,-0.1220703050494194
394041,0.02490234375,0.08447265625,1.0555419921875,1.4038084745407104,-0.6713866591453552,-0.1220703050494194
394057,0.0224609375,0.078369140625,1.0421142578125,1.8920897245407104,-0.8544921278953552,-0.0610351525247097
394090,0.0186767578125,0.068359375,1.012939453125,2.25830078125,-0.6103515625,-0.1831054538488388
394140,0.0130615234375,0.060546875,0.9976806640625,2.01416015625,-0.7324218153953552,-0.1220703050494194
394241,0.0159912109375,0.0760498046875,1.0150146484375,1.220703125,-0.7324218153953552,-0.4272460639476776
394283,0.01953125,0.0770263671875,1.033203125,1.6479490995407104,-0.6713866591453552,-0.54931640625
394300,0.02099609375,0.073486328125,1.02587890625,1.8920897245407104,-0.8544921278953552,-0.6713866591453552
394333,0.0218505859375,0.06884765625,1.0269775390625,2.0751953125,-0.6103515625,-0.6713866591453552
394350,0.02392578125,0.0684814453125,1.033935546875,2.01416015625,-0.7324218153953552,-0.7324218153953552
394367,0.0234375,0.0679931640625,1.0301513671875,2.01416015625,-0.7324218153953552,-0.7324218153953552
394388,0.024658203125,0.0653076171875,1.021240234375,1.8310545682907104,-0.6713866591453552,-0.7934569716453552
394438,0.0264892578125,0.06591796875,1.0186767578125,1.15966796875,-0.6103515625,-0.7324218153953552
394524,0.0235595703125,0.060791015625,0.97021484375,0.9765624403953552,-0.7324218153953552,-0.30517578125
394541,0.0233154296875,0.0440673828125,0.942626953125,0.9155272841453552,-0.7324218153953552,-0.0610351525247097
394558,0.0250244140625,0.0391845703125,0.939208984375,0.7934569716453552,-0.54931640625,0.1220703050494194
394578,0.0277099609375,0.0302734375,0.94287109375,0.6713866591453552,-0.6713866591453552,0.30517578125
394595,0.0294189453125,0.0196533203125,0.9405517578125,0.8544921278953552,-0.7934569716453552,0.4882812201976776
394612,0.030029296875,0.0174560546875,0.9451904296875,0.8544921278953552,-1.0986328125,0.4882812201976776
394628,0.0279541015625,0.0208740234375,0.9403076171875,0.9765624403953552,-1.220703125,0.54931640625
394650,0.0233154296875,0.030517578125,0.93603515625,1.3427733182907104,-1.3427733182907104,0.6103515625
394666,0.0194091796875,0.0333251953125,0.9307861328125,1.7700194120407104,-1.5869139432907104,0.8544921278953552
394683,0.01513671875,0.023681640625,0.9195556640625,1.9531248807907104,-1.7089842557907104,0.8544921278953552
394701,0.01416015625,0.018310546875,0.9200439453125,2.563476324081421,-1.5869139432907104,0.8544921278953552
394718,0.0126953125,0.01416015625,0.9383544921875,3.662109136581421,-1.9531248807907104,0.6713866591453552
394750,0.011474609375,0.0177001953125,0.8695068359375,5.676269054412842,-2.38037109375,0.3662109076976776
394772,0.0096435546875,0.0162353515625,0.8477783203125,5.859374523162842,-2.13623046875,0.30517578125
394788,0.0068359375,0.0150146484375,0.8387451171875,5.615233898162842,-1.5258787870407104,0.2441406100988388
394805,0.005859375,0.0155029296875,0.875,5.676269054412842,-1.15966796875,0.2441406100988388
394822,0.0115966796875,0.0379638671875,0.9622802734375,6.042479991912842,-0.6103515625,-0.1831054538488388
394838,0.01611328125,0.0457763671875,1.0079345703125,7.385253429412842,-1.3427733182907104,-0.1220703050494194
394872,-0.000732421875,0.01513671875,0.80615234375,8.48388671875,-2.807616949081421,-0.1220703050494194
394889,-0.0029296875,0.0098876953125,0.7557373046875,7.995604991912842,-2.13623046875,-0.1220703050494194
394910,-0.0013427734375,0.0003662109375,0.737060546875,6.835937023162842,-0.7324218153953552,-0.1831054538488388
394926,0.005615234375,0.0074462890625,0.798095703125,5.920409679412842,0.0610351525247097,-0.30517578125
394943,0.01513671875,0.01953125,0.8895263671875,5.615233898162842,0.0610351525247097,-0.3662109076976776
394959,0.0162353515625,0.0240478515625,0.905029296875,5.615233898162842,-0.7324218153953552,-0.30517578125
394990,0.0098876953125,0.0350341796875,0.8323974609375,4.57763671875,-0.9765624403953552,-0.2441406100988388
395006,0.01123046875,0.0386962890625,0.8360595703125,3.417968511581421,-0.2441406100988388,-0.1831054538488388
395023,0.011474609375,0.044189453125,0.8778076171875,2.197265625,0.1831054538488388,0.0
395039,0.0107421875,0.041015625,0.9033203125,1.7700194120407104,0.30517578125,0.0
395054,0.011474609375,0.042724609375,0.95166015625,0.7324218153953552,0.0,0.0610351525247097
395070,0.0086669921875,0.04248046875,0.9453125,0.2441406100988388,-0.1831054538488388,0.0610351525247097
395087,0.008544921875,0.051025390625,0.9110107421875,-0.8544921278953552,0.0,0.1220703050494194
395104,0.0040283203125,0.0623779296875,0.8948974609375,-2.0751953125,1.220703125,0.1220703050494194
395122,0.00537109375,0.0802001953125,0.953369140625,-2.685546636581421,1.5869139432907104,0.1831054538488388
395143,0.0057373046875,0.080322265625,0.9832763671875,-3.784179449081421,2.01416015625,0.2441406100988388
395159,0.011962890625,0.089599609375,1.0283203125,-3.906249761581421,2.01416015625,0.4882812201976776
395179,0.0185546875,0.0858154296875,1.0540771484375,-3.295898199081421,2.38037109375,0.30517578125
395196,0.02294921875,0.0789794921875,1.0648193359375,-2.929687261581421,2.0751953125,0.3662109076976776
395258,0.0347900390625,0.0926513671875,1.062744140625,0.1831054538488388,3.479003667831421,-0.2441406100988388
395300,0.052001953125,0.0931396484375,1.124267578125,2.868652105331421,2.3193359375,0.0610351525247097
395350,0.0262451171875,0.0296630859375,1.074951171875,5.371093273162842,0.8544921278953552,-0.3662109076976776
395367,0.0255126953125,0.0198974609375,1.0908203125,6.591796398162842,0.8544921278953552,-0.7934569716453552
395384,0.031005859375,0.0223388671875,1.1295166015625,8.056640625,0.2441406100988388,-0.9765624403953552
395420,0.028564453125,0.0360107421875,1.14794921875,10.620116233825684,-1.0986328125,-1.3427733182907104
395482,0.0145263671875,0.0380859375,1.150390625,15.747069358825684,-1.6479490995407104,-1.5258787870407104
395499,0.0179443359375,0.02685546875,1.15380859375,17.333984375,-1.9531248807907104,-1.5869139432907104
395532,0.0260009765625,0.018310546875,1.072998046875,19.10400390625,-2.25830078125,-1.6479490995407104
395566,0.02880859375,0.009033203125,1.07275390625,20.080564498901367,-0.6713866591453552,-1.7089842557907104
395608,0.0223388671875,0.0208740234375,1.1275634765625,21.484373092651367,-0.8544921278953552,-1.8310545682907104
395625,0.0164794921875,0.006591796875,1.0791015625,21.667478561401367,-0.7934569716453552,-1.7700194120407104
395642,0.0155029296875,0.0029296875,1.05078125,21.789548873901367,-0.3662109076976776,-1.5869139432907104
395661,0.0203857421875,-0.0181884765625,1.0328369140625,21.606443405151367,0.6103515625,-1.4648436307907104
395677,0.02783203125,-0.0284423828125,1.06640625,21.545408248901367,1.2817381620407104,-1.5258787870407104
395709,0.0364990234375,-0.0201416015625,1.1531982421875,22.277830123901367,1.4648436307907104,-1.7089842557907104
395763,0.0318603515625,-0.039306640625,1.0577392578125,22.583005905151367,1.03759765625,-1.0986328125
395842,0.034912109375,-0.05419921875,1.154052734375,23.071287155151367,1.6479490995407104,-0.6713866591453552
395859,0.0318603515625,-0.06884765625,1.1590576171875,23.681638717651367,1.4648436307907104,-0.7324218153953552
395892,0.01904296875,-0.097900390625,1.0693359375,24.230955123901367,1.15966796875,-0.54931640625
395926,0.0250244140625,-0.1197509765625,1.0672607421875,23.315427780151367,1.9531248807907104,-0.4272460639476776
395966,0.0313720703125,-0.129638671875,1.0859375,22.827146530151367,1.5869139432907104,-0.2441406100988388
395983,0.066162109375,-0.1788330078125,1.5150146484375,20.324705123901367,0.0,-0.1220703050494194
396000,0.17333984375,-0.2718505859375,2.384765625,7.812499523162842,-12.390135765075684,-0.54931640625
396052,-0.046630859375,-0.065673828125,0.610107421875,-0.7934569716453552,0.4882812201976776,1.4648436307907104
396162,-0.0142822265625,-0.090087890625,0.8602294921875,1.2817381620407104,1.7089842557907104,-0.1220703050494194
396284,0.027587890625,-0.148681640625,1.0057373046875,-1.3427733182907104,-0.6713866591453552,0.1220703050494194
396383,0.013671875,-0.146240234375,1.0059814453125,0.6103515625,-0.30517578125,0.0
396400,0.0186767578125,-0.1390380859375,1.0211181640625,0.8544921278953552,-0.30517578125,0.0
396433,0.0234375,-0.1417236328125,1.0157470703125,2.624511480331421,-0.4882812201976776,0.1831054538488388
396467,0.0189208984375,-0.1512451171875,1.021728515625,3.662109136581421,-0.6103515625,0.30517578125
396562,0.0169677734375,-0.14501953125,1.0174560546875,3.723144292831421,-0.4272460639476776,0.0610351525247097
396578,0.023193359375,-0.1444091796875,1.0159912109375,4.21142578125,-0.4272460639476776,0.1220703050494194
396609,0.0157470703125,-0.1566162109375,1.01171875,5.371093273162842,-0.4272460639476776,0.1831054538488388
396625,0.0137939453125,-0.1641845703125,1.0157470703125,5.737304210662842,-0.54931640625,0.1831054538488388
396642,0.01611328125,-0.1650390625,1.0108642578125,5.859374523162842,-0.4882812201976776,0.0
396673,0.021484375,-0.162353515625,1.0181884765625,6.225585460662842,-0.6713866591453552,-0.0610351525247097
396695,0.0157470703125,-0.16259765625,1.01220703125,6.652831554412842,-0.6103515625,0.0610351525247097
396711,0.0135498046875,-0.1693115234375,1.010986328125,6.835937023162842,-0.54931640625,0.0610351525247097
396728,0.019775390625,-0.1761474609375,1.0091552734375,6.958007335662842,-0.6103515625,0.1220703050494194
396745,0.02001953125,-0.1785888671875,1.0108642578125,6.958007335662842,-0.54931640625,0.0610351525247097
396795,0.0146484375,-0.17822265625,1.006591796875,7.751464366912842,-0.6103515625,0.1220703050494194
396812,0.017578125,-0.1756591796875,1.0103759765625,7.995604991912842,-0.54931640625,0.0
396831,0.016845703125,-0.1868896484375,1.009033203125,8.23974609375,-0.6103515625,0.0
396845,0.015380859375,-0.184326171875,1.0064697265625,8.30078125,-0.6103515625,-0.1220703050494194
396857,0.0145263671875,-0.1878662109375,1.007568359375,8.4228515625,-0.6713866591453552,-0.0610351525247097
396907,0.0157470703125,-0.193115234375,1.005859375,9.033203125,-0.6713866591453552,0.0
396961,0.01513671875,-0.20068359375,1.0072021484375,9.21630859375,-0.6103515625,-0.0610351525247097
396987,0.01416015625,-0.203125,1.003173828125,9.521484375,-0.7934569716453552,-0.0610351525247097
397004,0.0142822265625,-0.212158203125,1.001953125,9.521484375,-0.7934569716453552,-0.0610351525247097
397021,0.0157470703125,-0.2156982421875,1.0045166015625,9.3994140625,-0.7324218153953552,-0.0610351525247097
397040,0.0118408203125,-0.2232666015625,1.0025634765625,8.7890625,-0.6713866591453552,0.0610351525247097
397055,0.012451171875,-0.223388671875,1.00341796875,8.48388671875,-0.6713866591453552,0.0
397072,0.013427734375,-0.2391357421875,0.9990234375,7.446288585662842,-0.6103515625,0.0
397088,0.013427734375,-0.2030029296875,1.000732421875,6.713866710662842,-0.54931640625,0.0
397107,0.0137939453125,-0.1771240234375,1.0128173828125,7.446288585662842,-0.6713866591453552,0.30517578125
397128,0.0128173828125,-0.24755859375,0.9935302734375,7.385253429412842,-0.6103515625,0.1831054538488388
397144,0.0118408203125,-0.2674560546875,0.9927978515625,5.676269054412842,-0.4272460639476776,0.0
397161,0.0145263671875,-0.2247314453125,1.0006103515625,4.94384765625,-0.3662109076976776,-0.2441406100988388
397210,0.0107421875,-0.2503662109375,0.994140625,4.45556640625,-0.3662109076976776,0.3662109076976776
397227,0.0106201171875,-0.256591796875,0.9931640625,3.906249761581421,-0.30517578125,0.2441406100988388
397243,0.0126953125,-0.24853515625,0.998291015625,2.990722417831421,-0.30517578125,0.0610351525247097
397278,0.011962890625,-0.220458984375,1.000732421875,2.929687261581421,-0.4272460639476776,0.1831054538488388
397328,0.0133056640625,-0.2586669921875,0.9930419921875,1.7089842557907104,-0.30517578125,0.2441406100988388
397360,0.0103759765625,-0.2364501953125,0.9974365234375,0.0,-0.2441406100988388,0.2441406100988388
397403,0.011962890625,-0.2529296875,0.9967041015625,-1.15966796875,-0.2441406100988388,0.4882812201976776
397420,0.011474609375,-0.2548828125,0.994873046875,-2.3193359375,-0.1220703050494194,0.3662109076976776
397453,0.0123291015625,-0.2379150390625,1.0,-3.967284917831421,0.0610351525247097,0.4272460639476776
397470,0.0128173828125,-0.2288818359375,0.9976806640625,-4.69970703125,0.1220703050494194,0.54931640625
397487,0.0123291015625,-0.2303466796875,0.99951171875,-4.8828125,0.1220703050494194,0.54931640625
397503,0.011474609375,-0.2337646484375,0.9981689453125,-5.310058116912842,0.1220703050494194,0.54931640625
397526,0.0128173828125,-0.2296142578125,1.0001220703125,-5.615233898162842,0.2441406100988388,0.4272460639476776
397542,0.015380859375,-0.2132568359375,1.0042724609375,-5.554198741912842,0.2441406100988388,0.4272460639476776
397554,0.0142822265625,-0.20947265625,1.0048828125,-5.0048828125,0.0610351525247097,0.4272460639476776
397568,0.011474609375,-0.204833984375,1.004638671875,-4.57763671875,0.0,0.4882812201976776
397585,0.0130615234375,-0.2066650390625,1.0042724609375,-3.784179449081421,-0.0610351525247097,0.4272460639476776
397601,0.01611328125,-0.21240234375,1.001953125,-3.234863042831421,-0.0610351525247097,0.4272460639476776
397634,0.0130615234375,-0.2117919921875,1.0037841796875,-2.746581792831421,0.0,0.4272460639476776
397650,0.013916015625,-0.2109375,1.0037841796875,-2.624511480331421,0.0,0.4272460639476776
397666,0.0142822265625,-0.21142578125,1.003173828125,-2.563476324081421,-0.1220703050494194,0.4882812201976776
397683,0.013916015625,-0.2161865234375,1.0025634765625,-2.685546636581421,-0.1220703050494194,0.54931640625
397703,0.012451171875,-0.2197265625,1.001708984375,-2.807616949081421,-0.0610351525247097,0.4882812201976776
397715,0.01220703125,-0.2186279296875,1.0028076171875,-3.234863042831421,-0.0610351525247097,0.4272460639476776
397731,0.014892578125,-0.2110595703125,1.0037841796875,-3.417968511581421,0.0,0.4272460639476776
397748,0.0157470703125,-0.2078857421875,1.0035400390625,-3.601073980331421,-0.0610351525247097,0.4272460639476776
397765,0.01416015625,-0.20654296875,1.0050048828125,-3.601073980331421,-0.1220703050494194,0.4882812201976776
397782,0.0130615234375,-0.2109375,1.0045166015625,-3.784179449081421,-0.0610351525247097,0.4272460639476776
397801,0.013916015625,-0.21044921875,1.00439453125,-3.845214605331421,0.0,0.4272460639476776
397822,0.014892578125,-0.2047119140625,1.005126953125,-3.967284917831421,0.0610351525247097,0.4272460639476776
397834,0.0140380859375,-0.1995849609375,1.0067138671875,-3.845214605331421,0.1220703050494194,0.4272460639476776
397867,0.0137939453125,-0.192138671875,1.00732421875,-3.356933355331421,0.0,0.4272460639476776
397886,0.014892578125,-0.1939697265625,1.0067138671875,-2.807616949081421,-0.0610351525247097,0.4272460639476776
397903,0.015625,-0.19091796875,1.009521484375,-2.25830078125,-0.1220703050494194,0.3662109076976776
397924,0.0157470703125,-0.189208984375,1.0084228515625,-2.0751953125,-0.1220703050494194,0.3662109076976776
398007,0.0137939453125,-0.186767578125,1.009033203125,-0.7324218153953552,-0.1831054538488388,0.3662109076976776
398062,0.014892578125,-0.1939697265625,1.005859375,-0.1831054538488388,-0.2441406100988388,0.3662109076976776
398078,0.0146484375,-0.196044921875,1.0067138671875,-0.2441406100988388,-0.2441406100988388,0.3662109076976776
398109,0.015625,-0.1927490234375,1.0103759765625,-0.6713866591453552,-0.2441406100988388,0.1831054538488388
398125,0.014892578125,-0.194091796875,1.009521484375,-0.8544921278953552,-0.2441406100988388,0.2441406100988388
398142,0.015380859375,-0.193359375,1.0068359375,-0.9765624403953552,-0.1831054538488388,0.2441406100988388
398162,0.0172119140625,-0.19189453125,1.0081787109375,-1.15966796875,-0.1220703050494194,0.3662109076976776
398183,0.014404296875,-0.1893310546875,1.0050048828125,-1.220703125,-0.1220703050494194,0.3662109076976776
398204,0.0126953125,-0.18994140625,1.007568359375,-1.220703125,-0.1220703050494194,0.3662109076976776
398221,0.0142822265625,-0.1883544921875,1.0091552734375,-1.2817381620407104,-0.1831054538488388,0.30517578125
398239,0.0169677734375,-0.1925048828125,1.00634765625,-1.4038084745407104,-0.1831054538488388,0.30517578125
398256,0.015869140625,-0.1875,1.0089111328125,-1.4648436307907104,-0.1220703050494194,0.3662109076976776
398289,0.0126953125,-0.183837890625,1.0098876953125,-1.220703125,-0.0610351525247097,0.3662109076976776
398353,0.0137939453125,-0.17919921875,1.0101318359375,-0.30517578125,-0.30517578125,0.3662109076976776
398373,0.015380859375,-0.1839599609375,1.007568359375,-0.1831054538488388,-0.2441406100988388,0.3662109076976776
398390,0.01806640625,-0.183349609375,1.011474609375,0.0610351525247097,-0.1831054538488388,0.2441406100988388
398407,0.0184326171875,-0.1827392578125,1.0113525390625,0.1220703050494194,-0.1831054538488388,0.30517578125
398423,0.0135498046875,-0.183837890625,1.0084228515625,0.1831054538488388,-0.1831054538488388,0.30517578125
398440,0.0137939453125,-0.1876220703125,1.009521484375,0.0610351525247097,-0.1220703050494194,0.30517578125
398472,0.0162353515625,-0.189697265625,1.0084228515625,-0.30517578125,-0.1831054538488388,0.3662109076976776
398526,0.0147705078125,-0.18701171875,1.007568359375,-1.5258787870407104,0.1220703050494194,0.3662109076976776
398543,0.0145263671875,-0.1849365234375,1.005615234375,-1.8920897245407104,0.0610351525247097,0.4272460639476776
398558,0.0155029296875,-0.179443359375,1.007080078125,-2.13623046875,0.0610351525247097,0.30517578125
398592,0.01513671875,-0.176513671875,1.0128173828125,-2.01416015625,-0.1220703050494194,0.4272460639476776
398628,0.0152587890625,-0.1796875,1.010009765625,-2.197265625,-0.0610351525247097,0.30517578125
398734,0.015380859375,-0.1473388671875,1.014404296875,1.7700194120407104,-0.30517578125,0.1831054538488388
398844,0.0169677734375,-0.17529296875,1.0096435546875,5.920409679412842,0.0,0.1220703050494194
398861,0.0155029296875,-0.1749267578125,1.0096435546875,6.103515148162842,0.0,0.2441406100988388
398898,0.01904296875,-0.1827392578125,1.009765625,6.225585460662842,-0.0610351525247097,0.1220703050494194
398932,0.0152587890625,-0.1805419921875,1.01318359375,6.835937023162842,0.1220703050494194,0.3662109076976776
398963,0.017578125,-0.2049560546875,1.0015869140625,6.347655773162842,0.30517578125,0.4272460639476776
398980,0.0191650390625,-0.2125244140625,1.005126953125,5.493163585662842,0.4882812201976776,0.3662109076976776
399013,0.0147705078125,-0.194091796875,1.01318359375,4.94384765625,1.15966796875,0.1220703050494194
399030,0.015380859375,-0.1795654296875,1.008056640625,5.920409679412842,2.01416015625,0.2441406100988388
399046,0.023681640625,-0.171142578125,1.0294189453125,7.202147960662842,2.44140625,0.3662109076976776
399062,0.0247802734375,-0.1739501953125,1.01220703125,7.934569835662842,2.746581792831421,0.54931640625
399080,0.038818359375,-0.1910400390625,1.050048828125,8.48388671875,5.187987804412842,0.8544921278953552
399102,0.0523681640625,-0.251953125,1.35400390625,6.835937023162842,4.82177734375,0.4882812201976776
399118,0.08837890625,-0.34033203125,1.59521484375,5.859374523162842,4.638671875,0.6713866591453552
399136,0.1075439453125,-0.35693359375,1.6475830078125,5.249022960662842,3.295898199081421,0.0610351525247097
399153,0.103271484375,-0.328369140625,1.5845947265625,4.08935546875,2.25830078125,-0.8544921278953552
399186,0.0870361328125,-0.24755859375,1.3011474609375,-0.6713866591453552,3.540038824081421,-0.54931640625
399205,0.073486328125,-0.2249755859375,1.3023681640625,-2.38037109375,4.150390625,-0.54931640625
399221,0.0721435546875,-0.212646484375,1.3468017578125,-2.624511480331421,5.249022960662842,-0.54931640625
399255,0.078369140625,-0.251220703125,1.5322265625,-1.8920897245407104,2.624511480331421,-0.6713866591453552
399271,0.0653076171875,-0.2611083984375,1.453857421875,-1.4038084745407104,1.220703125,-0.9765624403953552
399339,0.02392578125,-0.236083984375,1.3680419921875,-7.080077648162842,2.13623046875,-1.03759765625
399398,0.031005859375,-0.2479248046875,1.300537109375,-9.94873046875,0.6103515625,-1.4648436307907104
399443,0.0213623046875,-0.226806640625,1.197998046875,-13.122557640075684,-1.220703125,-2.01416015625
399455,0.0130615234375,-0.2210693359375,1.15966796875,-13.732909202575684,-1.5258787870407104,-2.01416015625
399488,0.0089111328125,-0.2105712890625,1.1358642578125,-15.502928733825684,-2.990722417831421,-2.25830078125
399505,0.0072021484375,-0.205078125,1.103271484375,-15.991209983825684,-3.356933355331421,-2.38037109375
399522,0.003662109375,-0.185791015625,1.021728515625,-16.7236328125,-3.845214605331421,-2.44140625
399543,-0.00146484375,-0.1644287109375,0.937255859375,-17.15087890625,-3.662109136581421,-2.38037109375
399561,-0.00244140625,-0.1475830078125,0.891845703125,-17.333984375,-3.662109136581421,-2.25830078125
399578,-0.0062255859375,-0.13427734375,0.8096923828125,-17.39501953125,-4.150390625,-2.25830078125
399610,-0.00732421875,-0.1083984375,0.6807861328125,-17.578125,-4.0283203125,-2.3193359375
399680,0.0,-0.0677490234375,0.488037109375,-15.869139671325684,-4.7607421875,-2.197265625
399743,-0.003662109375,-0.0494384765625,0.380615234375,-12.878417015075684,-3.723144292831421,-2.0751953125
399760,-0.003662109375,-0.0421142578125,0.4088134765625,-12.023924827575684,-3.784179449081421,-2.13623046875
399793,0.001220703125,-0.0655517578125,0.509765625,-8.48388671875,-3.295898199081421,-1.8920897245407104
399826,0.005126953125,-0.081787109375,0.6510009765625,-6.042479991912842,-3.051757574081421,-2.0751953125
399862,0.000244140625,-0.07275390625,0.8646240234375,-2.990722417831421,-3.234863042831421,-2.0751953125
399879,0.0013427734375,-0.06591796875,0.9261474609375,-0.7324218153953552,-3.906249761581421,-1.9531248807907104
399912,0.009033203125,-0.0618896484375,0.945068359375,2.868652105331421,-4.39453125,-2.0751953125
399983,0.000732421875,-0.0601806640625,1.03955078125,14.526366233825684,-5.432128429412842,-1.8310545682907104
400000,-0.0047607421875,-0.084228515625,1.0274658203125,15.380858421325684,-5.432128429412842,-1.7089842557907104
400032,-0.009033203125,-0.1187744140625,1.0225830078125,18.12744140625,-4.82177734375,-1.7700194120407104
400105,-0.013916015625,-0.16943359375,0.95751953125,20.690916061401367,-4.21142578125,-1.0986328125
400122,-0.013427734375,-0.1795654296875,0.97900390625,20.507810592651367,-3.845214605331421,-0.9155272841453552
400139,-0.014404296875,-0.1864013671875,0.983154296875,20.629880905151367,-3.601073980331421,-0.6713866591453552
400159,-0.010498046875,-0.1845703125,0.9945068359375,20.874021530151367,-3.173827886581421,-0.4882812201976776
400176,-0.0078125,-0.17529296875,0.99609375,20.874021530151367,-3.051757574081421,-0.3662109076976776
400192,-0.005615234375,-0.1624755859375,0.986572265625,21.484373092651367,-2.807616949081421,0.0
400209,-0.0028076171875,-0.1488037109375,0.9970703125,22.155759811401367,-2.50244140625,0.4882812201976776
400226,-0.0010986328125,-0.144775390625,1.00830078125,22.888181686401367,-2.44140625,0.6713866591453552
400242,0.001220703125,-0.138427734375,1.027099609375,23.498533248901367,-2.44140625,0.7324218153953552
400259,0.0009765625,-0.131591796875,1.030517578125,24.780271530151367,-2.685546636581421,1.03759765625
400280,0.001220703125,-0.130615234375,1.0230712890625,26.245115280151367,-2.929687261581421,1.4038084745407104
400330,-0.009765625,-0.171630859375,0.9696044921875,26.245115280151367,-2.624511480331421,2.25830078125
400346,-0.0113525390625,-0.1788330078125,0.9708251953125,25.939939498901367,-2.50244140625,2.38037109375
400379,-0.01708984375,-0.2213134765625,0.98193359375,24.414060592651367,-2.197265625,2.868652105331421
400391,-0.0194091796875,-0.2349853515625,0.9842529296875,23.193357467651367,-2.0751953125,2.990722417831421
400407,-0.021240234375,-0.2454833984375,0.983154296875,22.399900436401367,-2.01416015625,2.990722417831421
400441,-0.0284423828125,-0.2752685546875,0.9603271484375,18.49365234375,-1.3427733182907104,3.295898199081421
400460,-0.0302734375,-0.289794921875,0.967529296875,16.05224609375,-0.8544921278953552,3.479003667831421
400482,-0.02880859375,-0.2957763671875,0.975830078125,14.770506858825684,-0.6713866591453552,3.479003667831421
400498,-0.0299072265625,-0.2987060546875,0.977294921875,12.145995140075684,-0.6103515625,3.540038824081421
400516,-0.031494140625,-0.305908203125,0.9718017578125,9.6435546875,-0.2441406100988388,3.540038824081421
400532,-0.0306396484375,-0.3035888671875,0.9736328125,8.36181640625,-0.0610351525247097,3.540038824081421
400563,-0.0303955078125,-0.2908935546875,0.962646484375,3.295898199081421,0.2441406100988388,3.479003667831421
400631,-0.0333251953125,-0.2835693359375,1.0013427734375,-3.479003667831421,0.9155272841453552,3.601073980331421
400706,-0.0250244140625,-0.282470703125,0.9940185546875,-8.1787109375,1.4038084745407104,3.356933355331421
400723,-0.024658203125,-0.2808837890625,0.9820556640625,-8.6669921875,1.4648436307907104,3.234863042831421
400740,-0.0240478515625,-0.2821044921875,0.983154296875,-9.521484375,1.7089842557907104,3.112792730331421
400760,-0.019287109375,-0.2774658203125,0.9901123046875,-10.253905296325684,1.6479490995407104,2.990722417831421
400777,-0.0177001953125,-0.274169921875,0.989501953125,-10.681151390075684,1.5869139432907104,2.868652105331421
400794,-0.0140380859375,-0.266845703125,0.9876708984375,-10.925292015075684,1.5869139432907104,2.685546636581421
400815,-0.01416015625,-0.2596435546875,0.98974609375,-10.925292015075684,1.6479490995407104,2.624511480331421
400865,-0.01025390625,-0.24853515625,0.99951171875,-10.253905296325684,1.4038084745407104,2.25830078125
400898,-0.002197265625,-0.238525390625,1.017578125,-9.09423828125,1.2817381620407104,1.7089842557907104
400941,-0.0006103515625,-0.224365234375,1.006591796875,-7.629394054412842,0.6713866591453552,1.3427733182907104
400969,0.0006103515625,-0.2220458984375,1.0091552734375,-6.103515148162842,0.4272460639476776,1.03759765625
401003,-0.00048828125,-0.2274169921875,1.010498046875,-4.5166015625,0.1831054538488388,0.6103515625
401020,-0.0015869140625,-0.2264404296875,1.0068359375,-3.234863042831421,-0.1220703050494194,0.4272460639476776
401053,-0.0030517578125,-0.224609375,1.009765625,-1.03759765625,-0.4272460639476776,0.0610351525247097
401070,-0.0035400390625,-0.225341796875,1.00830078125,-0.3662109076976776,-0.4272460639476776,-0.0610351525247097
401087,-0.00537109375,-0.227294921875,1.0087890625,0.6103515625,-0.4272460639476776,-0.30517578125
401108,-0.0076904296875,-0.2293701171875,1.010986328125,1.7700194120407104,-0.54931640625,-0.4882812201976776
401125,-0.0115966796875,-0.2335205078125,0.9998779296875,2.3193359375,-0.6103515625,-0.54931640625
401142,-0.013916015625,-0.2335205078125,0.9891357421875,3.417968511581421,-0.54931640625,-0.7934569716453552
401179,-0.01806640625,-0.2398681640625,0.9588623046875,5.432128429412842,-0.3662109076976776,-1.03759765625
401196,-0.02734375,-0.24658203125,0.9281005859375,6.530761241912842,-0.1831054538488388,-1.15966796875
401213,-0.02685546875,-0.248046875,0.940185546875,7.568358898162842,0.1831054538488388,-1.4038084745407104
401234,-0.0228271484375,-0.246826171875,0.9478759765625,8.11767578125,-0.0610351525247097,-1.5258787870407104
401249,-0.01953125,-0.2393798828125,0.9049072265625,8.85009765625,-0.7934569716453552,-1.5258787870407104
401266,-0.0196533203125,-0.236083984375,0.8302001953125,8.7890625,-0.9155272841453552,-1.4648436307907104
401283,-0.0233154296875,-0.2293701171875,0.790771484375,8.36181640625,-0.4272460639476776,-1.3427733182907104
401302,-0.026611328125,-0.2310791015625,0.7838134765625,7.751464366912842,0.0,-1.15966796875
401318,-0.03369140625,-0.227783203125,0.7740478515625,7.141112804412842,0.4272460639476776,-1.15966796875
401349,-0.033935546875,-0.217041015625,0.785400390625,6.469726085662842,0.9155272841453552,-0.9155272841453552
401370,-0.0313720703125,-0.218017578125,0.789794921875,6.164550304412842,1.2817381620407104,-0.6713866591453552
401431,-0.0118408203125,-0.2198486328125,0.7801513671875,5.065917491912842,1.8310545682907104,-0.54931640625
401483,-0.002685546875,-0.2337646484375,0.84228515625,3.784179449081421,3.479003667831421,-0.30517578125
401500,0.001220703125,-0.240966796875,0.8829345703125,3.845214605331421,3.479003667831421,-0.4882812201976776
401533,0.00390625,-0.23779296875,0.89794921875,4.45556640625,2.25830078125,-0.9765624403953552
401566,0.0142822265625,-0.228759765625,0.9437255859375,5.493163585662842,2.01416015625,-1.220703125
401666,0.0047607421875,-0.213623046875,0.8465576171875,6.652831554412842,2.01416015625,-2.0751953125
401683,0.0079345703125,-0.21923828125,0.878662109375,5.920409679412842,2.197265625,-1.8310545682907104
401700,0.0045166015625,-0.2379150390625,0.9134521484375,5.554198741912842,1.5869139432907104,-1.8920897245407104
401720,-0.0030517578125,-0.25244140625,0.8916015625,5.0048828125,1.6479490995407104,-2.01416015625
401736,-0.0009765625,-0.249755859375,0.8990478515625,4.7607421875,1.8920897245407104,-2.197265625
401784,0.011474609375,-0.272216796875,1.036376953125,4.45556640625,2.0751953125,-1.8310545682907104
401861,0.0029296875,-0.2550048828125,0.9642333984375,6.591796398162842,1.9531248807907104,-1.9531248807907104
401903,0.0098876953125,-0.2774658203125,1.02587890625,7.141112804412842,2.563476324081421,-1.5869139432907104
401920,0.015625,-0.2791748046875,1.0340576171875,7.507323741912842,2.0751953125,-1.7700194120407104
401953,0.0328369140625,-0.2769775390625,1.0394287109375,8.1787109375,1.4038084745407104,-1.6479490995407104
401970,0.03857421875,-0.2733154296875,1.0369873046875,8.4228515625,1.0986328125,-1.5258787870407104
401986,0.038330078125,-0.2890625,1.054931640625,8.9111328125,1.0986328125,-1.4038084745407104
402002,0.037109375,-0.29150390625,1.070556640625,9.21630859375,1.0986328125,-1.3427733182907104
402053,0.020751953125,-0.3193359375,1.1419677734375,12.634276390075684,-0.9765624403953552,-2.0751953125
402147,-0.0040283203125,-0.3360595703125,1.0714111328125,16.6015625,-0.9765624403953552,-1.9531248807907104
402164,-0.003173828125,-0.339599609375,1.0902099609375,17.39501953125,-0.7934569716453552,-1.9531248807907104
402181,-0.0013427734375,-0.3441162109375,1.095947265625,17.9443359375,-1.3427733182907104,-1.9531248807907104
402233,-0.00634765625,-0.3564453125,1.06591796875,18.9208984375,-0.4882812201976776,-1.4038084745407104
402265,-0.0013427734375,-0.3719482421875,1.058837890625,19.10400390625,-0.6103515625,-1.4038084745407104
402281,0.0030517578125,-0.3702392578125,1.0435791015625,18.9208984375,-0.4272460639476776,-1.220703125
402318,0.0045166015625,-0.384765625,1.060302734375,17.822265625,0.2441406100988388,-0.7324218153953552
402334,0.007080078125,-0.396240234375,1.1229248046875,17.39501953125,0.2441406100988388,-0.6713866591453552
402351,0.00634765625,-0.3896484375,1.1207275390625,17.4560546875,-0.6713866591453552,-0.7324218153953552
402368,0.0045166015625,-0.3824462890625,1.0767822265625,16.29638671875,-1.0986328125,-0.4272460639476776
402421,0.0159912109375,-0.4161376953125,1.0484619140625,13.549803733825684,-0.3662109076976776,0.4882812201976776
402446,0.022705078125,-0.419677734375,1.0584716796875,11.352538108825684,-0.3662109076976776,0.6713866591453552
402463,0.022216796875,-0.41796875,1.0546875,10.253905296325684,-0.7934569716453552,0.9155272841453552
402480,0.010498046875,-0.42333984375,1.012451171875,9.6435546875,-0.9155272841453552,1.03759765625
402500,0.00146484375,-0.4395751953125,0.98486328125,8.11767578125,-0.6713866591453552,1.3427733182907104
402517,0.00048828125,-0.436279296875,0.983154296875,6.042479991912842,0.1220703050494194,1.4648436307907104
402533,0.00830078125,-0.4232177734375,1.0096435546875,5.981444835662842,0.1831054538488388,1.6479490995407104
402549,0.0150146484375,-0.4385986328125,1.0147705078125,5.493163585662842,-0.30517578125,1.5869139432907104
402571,0.01220703125,-0.4322509765625,0.978515625,5.310058116912842,-0.2441406100988388,1.7089842557907104
402587,0.0113525390625,-0.442626953125,0.991943359375,5.0048828125,0.2441406100988388,1.9531248807907104
402604,0.0093994140625,-0.4442138671875,0.9964599609375,4.39453125,0.0,1.9531248807907104
402623,0.0048828125,-0.4351806640625,0.9739990234375,3.723144292831421,-0.1220703050494194,1.9531248807907104
402673,0.01123046875,-0.416259765625,0.9481201171875,1.4038084745407104,0.4882812201976776,2.685546636581421
402689,0.010009765625,-0.4111328125,0.93212890625,0.2441406100988388,0.4272460639476776,2.807616949081421
402705,0.009033203125,-0.41162109375,0.92626953125,-0.2441406100988388,0.4272460639476776,2.868652105331421
402721,0.006591796875,-0.3974609375,0.892578125,-1.4648436307907104,0.54931640625,3.051757574081421
402741,0.0068359375,-0.3902587890625,0.8909912109375,-2.25830078125,1.220703125,3.540038824081421
402763,0.0098876953125,-0.3968505859375,0.90625,-3.051757574081421,1.3427733182907104,3.784179449081421
402779,0.0126953125,-0.4019775390625,0.9215087890625,-3.356933355331421,1.4038084745407104,3.845214605331421
402798,0.0137939453125,-0.4075927734375,0.9312744140625,-2.990722417831421,1.220703125,3.784179449081421
402848,-0.037109375,-0.2197265625,0.5595703125,1.4038084745407104,-5.981444835662842,-0.9765624403953552
402865,-0.06787109375,-0.2752685546875,0.5755615234375,-0.6103515625,-2.0751953125,0.8544921278953552
402881,-0.0272216796875,-0.3450927734375,0.7154541015625,-9.21630859375,4.5166015625,2.868652105331421
402917,0.0382080078125,-0.6314697265625,1.36572265625,-2.01416015625,-0.1220703050494194,0.6103515625
402929,0.0191650390625,-0.5048828125,1.0706787109375,-1.220703125,-4.57763671875,-1.5869139432907104
402945,-0.0137939453125,-0.30810546875,0.6365966796875,-3.417968511581421,-2.44140625,-1.03759765625
402962,-0.0343017578125,-0.3631591796875,0.82177734375,-3.173827886581421,1.5869139432907104,0.6713866591453552
402982,0.01171875,-0.483642578125,1.1993408203125,-2.807616949081421,-2.13623046875,-0.4882812201976776
402998,0.015869140625,-0.3179931640625,0.7515869140625,-2.685546636581421,-2.38037109375,-0.2441406100988388
403068,-0.0008544921875,-0.422607421875,0.9625244140625,-3.906249761581421,-0.30517578125,0.1831054538488388
403103,0.005859375,-0.3858642578125,0.934814453125,-3.662109136581421,-0.6103515625,0.1831054538488388
403120,-0.00048828125,-0.400634765625,0.955810546875,-3.295898199081421,-0.4272460639476776,0.3662109076976776
403153,0.0028076171875,-0.4019775390625,0.9383544921875,-3.540038824081421,-0.2441406100988388,0.3662109076976776
403170,0.0064697265625,-0.4012451171875,0.9547119140625,-3.601073980331421,-0.2441406100988388,0.30517578125
403186,0.0064697265625,-0.396484375,0.94873046875,-3.540038824081421,-0.2441406100988388,0.30517578125
403207,0.001708984375,-0.38232421875,0.9371337890625,-3.356933355331421,-0.30517578125,0.3662109076976776
403257,0.003173828125,-0.395751953125,0.940673828125,-3.112792730331421,-0.4272460639476776,0.30517578125
403280,0.0015869140625,-0.393310546875,0.9425048828125,-3.479003667831421,-0.3662109076976776,0.2441406100988388
403330,0.0050048828125,-0.368408203125,0.9503173828125,-3.356933355331421,-0.1220703050494194,0.2441406100988388
403347,0.004150390625,-0.3685302734375,0.9464111328125,-2.44140625,-0.0610351525247097,0.4272460639476776
403364,0.00390625,-0.372802734375,0.9613037109375,-1.4648436307907104,-0.1831054538488388,0.30517578125
403404,0.0030517578125,-0.369384765625,0.9552001953125,0.6103515625,-0.4882812201976776,0.1831054538488388
403420,0.003662109375,-0.3759765625,0.950927734375,1.03759765625,-0.4882812201976776,0.1831054538488388
403437,0.0030517578125,-0.37158203125,0.947265625,1.5869139432907104,-0.3662109076976776,0.1831054538488388
403455,0.0023193359375,-0.38232421875,0.9515380859375,1.8920897245407104,-0.2441406100988388,0.1831054538488388
403505,0.00244140625,-0.377685546875,0.9525146484375,2.807616949081421,-0.30517578125,0.1831054538488388
403585,0.0028076171875,-0.3792724609375,0.950439453125,5.126952648162842,-0.54931640625,0.1220703050494194
403619,0.003662109375,-0.388916015625,0.9464111328125,5.676269054412842,-0.54931640625,0.1220703050494194
403706,0.002685546875,-0.395263671875,0.9447021484375,5.737304210662842,-0.54931640625,0.1220703050494194
403723,0.0013427734375,-0.4005126953125,0.9388427734375,5.737304210662842,-0.54931640625,0.1220703050494194
403740,-0.0003662109375,-0.4010009765625,0.942626953125,5.615233898162842,-0.4882812201976776,0.0
403791,0.001220703125,-0.411376953125,0.938232421875,5.187987804412842,-0.4272460639476776,0.1831054538488388
403818,-0.001708984375,-0.4154052734375,0.9337158203125,4.21142578125,-0.2441406100988388,0.2441406100988388
403867,-0.0001220703125,-0.421142578125,0.933349609375,1.8310545682907104,-0.0610351525247097,0.30517578125
403900,0.0025634765625,-0.41796875,0.9349365234375,0.3662109076976776,0.0,0.3662109076976776
404021,-0.0037841796875,-0.400146484375,0.9403076171875,-1.7700194120407104,0.0610351525247097,0.4272460639476776
404064,0.0054931640625,-0.390625,0.9459228515625,-0.9765624403953552,0.1220703050494194,0.3662109076976776
404081,0.004638671875,-0.39501953125,0.9456787109375,-0.3662109076976776,-0.0610351525247097,0.4272460639476776
404117,-0.001708984375,-0.4019775390625,0.9420166015625,0.2441406100988388,-0.0610351525247097,0.3662109076976776
404134,0.0013427734375,-0.3974609375,0.9417724609375,0.2441406100988388,0.0,0.4882812201976776
404151,0.0028076171875,-0.4002685546875,0.9412841796875,0.1831054538488388,-0.0610351525247097,0.4882812201976776
404167,0.002685546875,-0.40576171875,0.940185546875,-0.1220703050494194,-0.0610351525247097,0.4272460639476776
404186,0.0006103515625,-0.41259765625,0.9384765625,-0.6713866591453552,-0.0610351525247097,0.3662109076976776
404206,-0.00146484375,-0.40673828125,0.94091796875,-1.15966796875,-0.0610351525247097,0.30517578125
404222,0.0035400390625,-0.3961181640625,0.9449462890625,-1.2817381620407104,0.0,0.30517578125
404300,0.0023193359375,-0.3948974609375,0.943359375,0.0610351525247097,-0.30517578125,0.30517578125
404362,0.00341796875,-0.3895263671875,0.9444580078125,1.2817381620407104,-0.1831054538488388,0.30517578125
404379,0.000732421875,-0.396240234375,0.9425048828125,1.5258787870407104,0.0,0.30517578125
404412,0.0032958984375,-0.3980712890625,0.9434814453125,1.8310545682907104,-0.0610351525247097,0.30517578125
404429,0.004150390625,-0.3927001953125,0.943359375,2.01416015625,-0.0610351525247097,0.3662109076976776
404446,0.001708984375,-0.3955078125,0.9412841796875,2.25830078125,0.0610351525247097,0.54931640625
404467,0.0020751953125,-0.3970947265625,0.9349365234375,2.25830078125,0.2441406100988388,0.6103515625
404483,0.0032958984375,-0.404296875,0.9427490234375,2.25830078125,0.6103515625,0.6713866591453552
404500,0.0008544921875,-0.4119873046875,0.941162109375,1.8310545682907104,1.03759765625,0.7934569716453552
404533,0.0029296875,-0.4066162109375,0.931396484375,1.220703125,1.03759765625,0.9765624403953552
404550,0.0064697265625,-0.4071044921875,0.947509765625,0.6713866591453552,1.03759765625,0.7934569716453552
404566,0.018798828125,-0.3968505859375,0.94970703125,0.7324218153953552,0.6713866591453552,0.7324218153953552
404583,0.021240234375,-0.3912353515625,0.93212890625,0.9155272841453552,0.6103515625,0.6103515625
404607,0.0352783203125,-0.393798828125,0.960693359375,1.7700194120407104,1.03759765625,0.6103515625
404672,0.062255859375,-0.5008544921875,1.2109375,11.169432640075684,-1.7089842557907104,-0.8544921278953552
404743,0.0477294921875,-0.5633544921875,1.3255615234375,8.60595703125,-2.624511480331421,-1.5258787870407104
404783,0.01708984375,-0.5745849609375,1.3455810546875,2.990722417831421,-2.990722417831421,-1.6479490995407104
404795,0.013427734375,-0.5992431640625,1.396484375,1.0986328125,-3.295898199081421,-1.5869139432907104
404828,0.0072021484375,-0.642333984375,1.4510498046875,0.6713866591453552,-4.39453125,-2.01416015625
404845,0.0068359375,-0.6663818359375,1.450927734375,0.30517578125,-6.042479991912842,-2.746581792831421
404861,0.003173828125,-0.671875,1.432373046875,-0.1220703050494194,-6.835937023162842,-3.234863042831421
404891,-0.0311279296875,-0.5550537109375,1.216552734375,-3.051757574081421,-8.48388671875,-4.39453125
404911,-0.042724609375,-0.47265625,1.1378173828125,-4.82177734375,-7.995604991912842,-3.967284917831421
404927,-0.048828125,-0.4302978515625,1.116943359375,-5.493163585662842,-8.056640625,-3.723144292831421
404944,-0.05224609375,-0.4141845703125,1.0914306640625,-6.469726085662842,-8.544921875,-3.295898199081421
404994,-0.061767578125,-0.392578125,0.9288330078125,-10.498045921325684,-6.774901866912842,-1.8920897245407104
405023,-0.067626953125,-0.3975830078125,0.959228515625,-12.939452171325684,-4.39453125,-0.9765624403953552
405035,-0.0638427734375,-0.4127197265625,1.0345458984375,-13.122557640075684,-3.906249761581421,-0.6713866591453552
405068,-0.06201171875,-0.432373046875,1.068603515625,-12.695311546325684,-2.563476324081421,0.0
405085,-0.0543212890625,-0.43310546875,1.08056640625,-12.451170921325684,-2.3193359375,0.0610351525247097
405101,-0.0494384765625,-0.422607421875,1.0802001953125,-11.840819358825684,-1.9531248807907104,0.1220703050494194
405121,-0.041748046875,-0.4051513671875,1.0526123046875,-11.230467796325684,-1.4648436307907104,0.30517578125
405178,-0.0340576171875,-0.3795166015625,1.0068359375,-8.11767578125,-0.9765624403953552,0.30517578125
405204,-0.02734375,-0.36572265625,0.9744873046875,-5.249022960662842,-1.03759765625,0.30517578125
405221,-0.021728515625,-0.3526611328125,0.9144287109375,-3.356933355331421,-1.220703125,0.2441406100988388
405256,-0.015380859375,-0.312255859375,0.7744140625,-0.4882812201976776,-1.8920897245407104,-0.1831054538488388
405273,-0.01611328125,-0.2872314453125,0.7083740234375,0.9765624403953552,-2.685546636581421,-0.4882812201976776
405290,-0.01806640625,-0.2374267578125,0.5587158203125,1.9531248807907104,-2.929687261581421,-0.6103515625
405307,-0.0167236328125,-0.18896484375,0.423828125,2.50244140625,-2.50244140625,-0.54931640625
405330,-0.014892578125,-0.1572265625,0.341796875,2.50244140625,-2.13623046875,-0.4272460639476776
405346,-0.017578125,-0.140625,0.2838134765625,2.50244140625,-1.7089842557907104,-0.1831054538488388
405363,-0.020263671875,-0.13671875,0.2659912109375,2.13623046875,-1.15966796875,-0.0610351525247097
405383,-0.0264892578125,-0.12939453125,0.2437744140625,1.5258787870407104,-0.3662109076976776,0.1831054538488388
405432,-0.029296875,-0.157958984375,0.393310546875,0.8544921278953552,2.50244140625,1.4038084745407104
405452,-0.029052734375,-0.200439453125,0.5042724609375,1.2817381620407104,2.868652105331421,2.0751953125
405468,-0.0362548828125,-0.2742919921875,0.6280517578125,1.5258787870407104,2.990722417831421,2.3193359375
405485,-0.0430908203125,-0.3096923828125,0.6761474609375,1.5869139432907104,2.929687261581421,2.197265625
405504,-0.05029296875,-0.334716796875,0.7471923828125,1.5258787870407104,3.173827886581421,1.8920897245407104
405521,-0.0443115234375,-0.3297119140625,0.7962646484375,1.4038084745407104,3.173827886581421,1.8920897245407104
405554,-0.0228271484375,-0.3291015625,0.8812255859375,1.9531248807907104,3.601073980331421,2.563476324081421
405571,-0.0189208984375,-0.35693359375,0.9383544921875,2.807616949081421,3.356933355331421,2.746581792831421
405607,-0.0360107421875,-0.39501953125,0.9659423828125,4.39453125,2.990722417831421,2.624511480331421
405624,-0.0361328125,-0.3914794921875,0.951904296875,5.859374523162842,2.868652105331421,2.44140625
405640,-0.030517578125,-0.3826904296875,0.940673828125,6.591796398162842,2.929687261581421,2.44140625
405674,-0.0274658203125,-0.4002685546875,0.9576416015625,9.46044921875,2.38037109375,2.685546636581421
405724,-0.0302734375,-0.40380859375,0.912109375,12.023924827575684,2.197265625,2.929687261581421
405742,-0.0216064453125,-0.423828125,0.9703369140625,12.512206077575684,2.197265625,3.051757574081421
405759,-0.0213623046875,-0.43505859375,0.987548828125,13.793944358825684,0.9765624403953552,2.807616949081421
405792,-0.017822265625,-0.461669921875,1.0162353515625,14.404295921325684,-0.30517578125,2.563476324081421
405808,-0.0164794921875,-0.4525146484375,1.0076904296875,14.526366233825684,-1.220703125,2.25830078125
405825,-0.017578125,-0.446533203125,0.9891357421875,14.465331077575684,-1.5258787870407104,2.197265625
405846,-0.0167236328125,-0.4334716796875,0.9691162109375,14.526366233825684,-1.6479490995407104,2.13623046875
405912,-0.01708984375,-0.419921875,0.9320068359375,13.610838890075684,-3.540038824081421,1.4038084745407104
405928,-0.0164794921875,-0.3973388671875,0.8857421875,12.268065452575684,-3.540038824081421,1.3427733182907104
405945,-0.0155029296875,-0.38818359375,0.8807373046875,11.718749046325684,-3.356933355331421,1.4648436307907104
405962,-0.0167236328125,-0.380126953125,0.8797607421875,10.498045921325684,-3.356933355331421,1.7089842557907104
405987,-0.020263671875,-0.378173828125,0.8707275390625,9.27734375,-3.173827886581421,1.9531248807907104
405999,-0.0213623046875,-0.38330078125,0.87646484375,8.30078125,-2.44140625,2.25830078125
406016,-0.0198974609375,-0.3905029296875,0.8931884765625,7.873534679412842,-2.13623046875,2.38037109375
406032,-0.02099609375,-0.4097900390625,0.9232177734375,7.446288585662842,-1.8920897245407104,2.38037109375
406049,-0.026611328125,-0.428955078125,0.94921875,6.347655773162842,-1.5258787870407104,2.563476324081421
406066,-0.0301513671875,-0.4351806640625,0.9501953125,5.920409679412842,-1.4648436307907104,2.563476324081421
406082,-0.0367431640625,-0.443359375,0.937744140625,5.065917491912842,-1.220703125,2.624511480331421
406105,-0.0379638671875,-0.4471435546875,0.921630859375,4.08935546875,-0.9155272841453552,2.685546636581421
406122,-0.035888671875,-0.45068359375,0.918701171875,3.662109136581421,-0.6713866591453552,2.746581792831421
406134,-0.0347900390625,-0.4512939453125,0.91845703125,2.685546636581421,-0.6103515625,2.746581792831421
406151,-0.032958984375,-0.451904296875,0.90673828125,2.25830078125,-0.4882812201976776,2.807616949081421
406167,-0.03076171875,-0.4552001953125,0.911376953125,1.4038084745407104,-0.1831054538488388,2.929687261581421
406184,-0.0306396484375,-0.4610595703125,0.9068603515625,0.54931640625,-0.2441406100988388,2.868652105331421
406220,-0.028564453125,-0.4647216796875,0.919189453125,-1.4038084745407104,-0.1220703050494194,2.685546636581421
406242,-0.0267333984375,-0.46142578125,0.918212890625,-1.8920897245407104,-0.1831054538488388,2.624511480331421
406258,-0.0223388671875,-0.460693359375,0.9210205078125,-3.112792730331421,-0.1220703050494194,2.563476324081421
406279,-0.016845703125,-0.4627685546875,0.9427490234375,-4.0283203125,-0.2441406100988388,2.38037109375
406296,-0.013427734375,-0.465576171875,0.96142578125,-4.8828125,-0.54931640625,2.197265625
406312,-0.0084228515625,-0.46142578125,0.97509765625,-5.249022960662842,-0.7324218153953552,2.13623046875
406329,-0.0062255859375,-0.4547119140625,0.9688720703125,-5.737304210662842,-1.220703125,1.8920897245407104
406346,-0.00634765625,-0.4493408203125,0.958740234375,-5.859374523162842,-1.5869139432907104,1.7089842557907104
406363,-0.00732421875,-0.4395751953125,0.9320068359375,-5.676269054412842,-1.5869139432907104,1.6479490995407104
406384,-0.0089111328125,-0.4427490234375,0.909423828125,-5.615233898162842,-1.4038084745407104,1.6479490995407104
406402,-0.0086669921875,-0.4542236328125,0.9100341796875,-5.615233898162842,-0.9765624403953552,1.6479490995407104
406413,-0.0118408203125,-0.460205078125,0.9091796875,-5.798339366912842,-0.8544921278953552,1.5258787870407104
406447,-0.02587890625,-0.4654541015625,0.890869140625,-6.164550304412842,-0.6713866591453552,1.15966796875
406466,-0.028564453125,-0.4609375,0.8922119140625,-6.591796398162842,-0.4882812201976776,1.0986328125
406482,-0.0321044921875,-0.4510498046875,0.8896484375,-6.713866710662842,-0.30517578125,1.0986328125
406515,-0.035400390625,-0.4368896484375,0.890869140625,-7.019042491912842,-0.0610351525247097,1.0986328125
406534,-0.03515625,-0.423095703125,0.8858642578125,-6.958007335662842,0.1831054538488388,1.220703125
406550,-0.0330810546875,-0.41259765625,0.8934326171875,-6.896972179412842,0.3662109076976776,1.2817381620407104
406567,-0.0318603515625,-0.40625,0.8983154296875,-6.469726085662842,0.9155272841453552,1.4038084745407104
406584,-0.0228271484375,-0.3973388671875,0.9295654296875,-6.103515148162842,1.15966796875,1.4648436307907104
406600,-0.013427734375,-0.3978271484375,0.9647216796875,-5.065917491912842,1.4648436307907104,1.5258787870407104
406634,-0.0081787109375,-0.3995361328125,0.9725341796875,-2.38037109375,1.220703125,1.5869139432907104
406650,-0.004638671875,-0.397216796875,0.964599609375,-1.8310545682907104,1.220703125,1.5258787870407104
406666,-0.0030517578125,-0.397705078125,0.96435546875,-1.03759765625,1.220703125,1.5258787870407104
406683,-0.000732421875,-0.3992919921875,0.952880859375,-0.30517578125,1.0986328125,1.5869139432907104
406706,0.0045166015625,-0.4095458984375,0.952880859375,0.0,0.9765624403953552,1.5869139432907104
406723,0.005615234375,-0.4188232421875,0.9432373046875,0.0610351525247097,0.7324218153953552,1.5869139432907104
406740,0.0054931640625,-0.4227294921875,0.935302734375,0.1220703050494194,0.4272460639476776,1.6479490995407104
406760,0.0062255859375,-0.4271240234375,0.92822265625,0.0610351525247097,0.2441406100988388,1.5258787870407104
406777,0.00732421875,-0.4268798828125,0.93359375,-0.0610351525247097,0.0,1.4648436307907104
406793,0.0089111328125,-0.4208984375,0.9364013671875,-0.1220703050494194,-0.2441406100988388,1.4648436307907104
406810,0.0093994140625,-0.419921875,0.93896484375,-0.0610351525247097,-0.3662109076976776,1.4648436307907104
406826,0.007568359375,-0.421142578125,0.946533203125,0.0610351525247097,-0.54931640625,1.5258787870407104
406842,0.0050048828125,-0.4166259765625,0.9512939453125,0.4272460639476776,-0.7934569716453552,1.4648436307907104
406879,0.002197265625,-0.4195556640625,0.9560546875,0.7934569716453552,-1.2817381620407104,1.4038084745407104
406895,-0.00048828125,-0.41357421875,0.9422607421875,0.9765624403953552,-1.4038084745407104,1.3427733182907104
406911,-0.0052490234375,-0.410400390625,0.9332275390625,1.220703125,-1.3427733182907104,1.3427733182907104
406928,-0.0084228515625,-0.4107666015625,0.9312744140625,1.4648436307907104,-1.2817381620407104,1.4038084745407104
406944,-0.013427734375,-0.416015625,0.92578125,1.5258787870407104,-1.2817381620407104,1.4648436307907104
406961,-0.0169677734375,-0.4185791015625,0.914794921875,1.6479490995407104,-1.3427733182907104,1.5258787870407104
406994,-0.021728515625,-0.4215087890625,0.90234375,1.5869139432907104,-0.7324218153953552,1.4038084745407104
407010,-0.0213623046875,-0.4244384765625,0.9073486328125,1.5869139432907104,-0.6713866591453552,1.4038084745407104
407027,-0.0224609375,-0.4259033203125,0.91015625,1.5258787870407104,-0.7324218153953552,1.3427733182907104
407046,-0.0255126953125,-0.42529296875,0.9051513671875,1.6479490995407104,-0.4882812201976776,1.4038084745407104
407063,-0.0257568359375,-0.4295654296875,0.917236328125,1.7700194120407104,-0.30517578125,1.4038084745407104
407079,-0.0267333984375,-0.4317626953125,0.9268798828125,1.9531248807907104,-0.1831054538488388,1.2817381620407104
407109,-0.0260009765625,-0.4273681640625,0.947998046875,2.624511480331421,-0.30517578125,1.0986328125
407126,-0.0264892578125,-0.423583984375,0.93798828125,3.234863042831421,-0.4882812201976776,1.0986328125
407143,-0.0263671875,-0.412109375,0.9150390625,3.479003667831421,-0.4272460639476776,1.03759765625
407164,-0.025634765625,-0.40673828125,0.909423828125,3.662109136581421,-0.2441406100988388,1.03759765625
407183,-0.022705078125,-0.41064453125,0.9171142578125,3.967284917831421,-0.1220703050494194,1.2817381620407104
407199,-0.0225830078125,-0.4244384765625,0.9139404296875,4.0283203125,-0.1220703050494194,1.220703125
407232,-0.025390625,-0.4376220703125,0.87255859375,3.540038824081421,-0.0610351525247097,0.9765624403953552
407249,-0.0242919921875,-0.435791015625,0.859375,2.746581792831421,0.2441406100988388,1.0986328125
407266,-0.013916015625,-0.4412841796875,0.8597412109375,1.4648436307907104,0.3662109076976776,1.0986328125
407282,-0.0020751953125,-0.4403076171875,0.841796875,0.6713866591453552,0.30517578125,1.0986328125
407305,0.0087890625,-0.4302978515625,0.809814453125,-1.3427733182907104,0.1220703050494194,1.220703125
407321,0.010986328125,-0.4224853515625,0.7999267578125,-3.784179449081421,0.2441406100988388,1.4648436307907104
