tMillis,ax,ay,az,gx,gy,gz
171606,0.019775390625,-0.014404296875,1.0244140625,0.7324218153953552,-0.1831054538488388,0.2441406100988388
171622,0.0196533203125,-0.0152587890625,1.02685546875,0.7324218153953552,-0.2441406100988388,0.2441406100988388
171639,0.0185546875,-0.0145263671875,1.026123046875,0.7324218153953552,-0.2441406100988388,0.2441406100988388
171656,0.0189208984375,-0.01416015625,1.0257568359375,0.7324218153953552,-0.2441406100988388,0.1831054538488388
171672,0.01904296875,-0.01318359375,1.0263671875,0.7324218153953552,-0.2441406100988388,0.2441406100988388
171691,0.019287109375,-0.0147705078125,1.0264892578125,0.6713866591453552,-0.2441406100988388,0.2441406100988388
171710,0.02001953125,-0.0145263671875,1.0235595703125,0.7324218153953552,-0.2441406100988388,0.30517578125
171727,0.0196533203125,-0.012939453125,1.025390625,0.7934569716453552,-0.2441406100988388,0.30517578125
171747,0.0191650390625,-0.013427734375,1.0228271484375,0.7934569716453552,-0.2441406100988388,0.30517578125
171764,0.0184326171875,-0.0135498046875,1.0252685546875,0.7934569716453552,-0.2441406100988388,0.2441406100988388
171780,0.0184326171875,-0.014404296875,1.03271484375,0.7934569716453552,-0.2441406100988388,0.2441406100988388
171801,0.0194091796875,-0.0152587890625,1.0277099609375,0.7324218153953552,-0.2441406100988388,0.1831054538488388
171818,0.01953125,-0.0142822265625,1.023193359375,0.7324218153953552,-0.2441406100988388,0.30517578125
171839,0.0191650390625,-0.0146484375,1.0244140625,0.7324218153953552,-0.2441406100988388,0.30517578125
171860,0.018798828125,-0.015380859375,1.02685546875,0.7324218153953552,-0.2441406100988388,0.30517578125
171872,0.01904296875,-0.0155029296875,1.0267333984375,0.6713866591453552,-0.1831054538488388,0.2441406100988388
171892,0.01953125,-0.0152587890625,1.024658203125,0.6713866591453552,-0.2441406100988388,0.30517578125
171909,0.0196533203125,-0.01416015625,1.025634765625,0.6713866591453552,-0.30517578125,0.1831054538488388
171922,0.0194091796875,-0.0140380859375,1.0263671875,0.7324218153953552,-0.30517578125,0.1831054538488388
171938,0.018310546875,-0.01416015625,1.026611328125,0.7324218153953552,-0.2441406100988388,0.2441406100988388
171954,0.017822265625,-0.013671875,1.0272216796875,0.7324218153953552,-0.1831054538488388,0.2441406100988388
171973,0.0198974609375,-0.0147705078125,1.0260009765625,0.7324218153953552,-0.30517578125,0.1831054538488388
171996,0.01953125,-0.014892578125,1.0255126953125,0.7324218153953552,-0.30517578125,0.2441406100988388
172013,0.018798828125,-0.01513671875,1.0255126953125,0.7324218153953552,-0.30517578125,0.30517578125
172030,0.01953125,-0.0150146484375,1.0260009765625,0.7934569716453552,-0.2441406100988388,0.2441406100988388
172046,0.01953125,-0.0147705078125,1.0263671875,0.7324218153953552,-0.2441406100988388,0.30517578125
172065,0.01904296875,-0.013916015625,1.026611328125,0.7324218153953552,-0.30517578125,0.30517578125
172084,0.01904296875,-0.0137939453125,1.02685546875,0.7324218153953552,-0.2441406100988388,0.2441406100988388
172102,0.0196533203125,-0.0142822265625,1.025146484375,0.7934569716453552,-0.2441406100988388,0.2441406100988388
172124,0.01904296875,-0.01513671875,1.0263671875,0.7324218153953552,-0.2441406100988388,0.2441406100988388
172140,0.018310546875,-0.0142822265625,1.0264892578125,0.7324218153953552,-0.2441406100988388,0.1831054538488388
172157,0.0185546875,-0.0137939453125,1.0257568359375,0.7324218153953552,-0.2441406100988388,0.2441406100988388
172176,0.0189208984375,-0.014404296875,1.0255126953125,0.6713866591453552,-0.2441406100988388,0.1831054538488388
172195,0.018798828125,-0.015869140625,1.02685546875,0.7324218153953552,-0.2441406100988388,0.2441406100988388
172214,0.0189208984375,-0.0142822265625,1.0264892578125,0.7324218153953552,-0.2441406100988388,0.30517578125
172232,0.0198974609375,-0.0145263671875,1.025390625,0.7324218153953552,-0.1831054538488388,0.2441406100988388
172257,0.0194091796875,-0.014892578125,1.0257568359375,0.6713866591453552,-0.1831054538488388,0.30517578125
172273,0.018798828125,-0.01416015625,1.02734375,0.6713866591453552,-0.1831054538488388,0.30517578125
172290,0.0185546875,-0.0140380859375,1.0262451171875,0.6713866591453552,-0.2441406100988388,0.30517578125
172309,0.0196533203125,-0.0146484375,1.0264892578125,0.7324218153953552,-0.1220703050494194,0.2441406100988388
172328,0.0194091796875,-0.0146484375,1.0264892578125,0.6713866591453552,-0.2441406100988388,0.2441406100988388
172347,0.018310546875,-0.0142822265625,1.0267333984375,0.6713866591453552,-0.2441406100988388,0.2441406100988388
172365,0.02001953125,-0.014404296875,1.0234375,0.6713866591453552,-0.2441406100988388,0.2441406100988388
172388,0.020263671875,-0.0152587890625,1.029052734375,0.6713866591453552,-0.2441406100988388,0.2441406100988388
172404,0.01806640625,-0.014892578125,1.024658203125,0.7324218153953552,-0.1831054538488388,0.30517578125
172421,0.01806640625,-0.013916015625,1.024658203125,0.6713866591453552,-0.2441406100988388,0.30517578125
172439,0.0189208984375,-0.0147705078125,1.026611328125,0.7324218153953552,-0.2441406100988388,0.2441406100988388
172457,0.0184326171875,-0.014892578125,1.026611328125,0.7324218153953552,-0.1831054538488388,0.2441406100988388
172482,0.01904296875,-0.014404296875,1.0252685546875,0.6713866591453552,-0.1831054538488388,0.2441406100988388
172498,0.019775390625,-0.0140380859375,1.0277099609375,0.7324218153953552,-0.30517578125,0.1831054538488388
172515,0.0198974609375,-0.014892578125,1.02685546875,0.7934569716453552,-0.2441406100988388,0.2441406100988388
172534,0.0185546875,-0.0142822265625,1.0264892578125,0.7324218153953552,-0.2441406100988388,0.30517578125
172553,0.019775390625,-0.0145263671875,1.027587890625,0.6713866591453552,-0.2441406100988388,0.2441406100988388
172572,0.0185546875,-0.0140380859375,1.0267333984375,0.7324218153953552,-0.30517578125,0.1831054538488388
172596,0.0191650390625,-0.0146484375,1.02587890625,0.7934569716453552,-0.30517578125,0.1831054538488388
172610,0.018798828125,-0.0147705078125,1.025146484375,0.7934569716453552,-0.30517578125,0.1831054538488388
172630,0.0189208984375,-0.0140380859375,1.02490234375,0.7324218153953552,-0.2441406100988388,0.30517578125
172642,0.0194091796875,-0.013916015625,1.0257568359375,0.7324218153953552,-0.2441406100988388,0.2441406100988388
172662,0.01904296875,-0.0142822265625,1.0267333984375,0.7324218153953552,-0.2441406100988388,0.2441406100988388
172683,0.0203857421875,-0.01416015625,1.0262451171875,0.7324218153953552,-0.2441406100988388,0.30517578125
172702,0.019775390625,-0.0145263671875,1.0267333984375,0.6713866591453552,-0.2441406100988388,0.2441406100988388
172726,0.0194091796875,-0.0142822265625,1.02734375,0.7324218153953552,-0.30517578125,0.2441406100988388
172742,0.0205078125,-0.0146484375,1.02587890625,0.6713866591453552,-0.30517578125,0.2441406100988388
172758,0.0196533203125,-0.0147705078125,1.0240478515625,0.6713866591453552,-0.30517578125,0.2441406100988388
172775,0.01953125,-0.0145263671875,1.0267333984375,0.7324218153953552,-0.30517578125,0.2441406100988388
172795,0.0194091796875,-0.013671875,1.025634765625,0.7324218153953552,-0.2441406100988388,0.2441406100988388
172811,0.01953125,-0.01513671875,1.025634765625,0.6713866591453552,-0.30517578125,0.2441406100988388
172844,0.019775390625,-0.0146484375,1.0252685546875,0.7324218153953552,-0.30517578125,0.2441406100988388
172866,0.0191650390625,-0.013427734375,1.0247802734375,0.7324218153953552,-0.30517578125,0.30517578125
172882,0.01806640625,-0.0135498046875,1.02734375,0.7324218153953552,-0.2441406100988388,0.30517578125
172899,0.0186767578125,-0.013671875,1.028564453125,0.7324218153953552,-0.1831054538488388,0.2441406100988388
172918,0.0198974609375,-0.0145263671875,1.0269775390625,0.6713866591453552,-0.2441406100988388,0.3662109076976776
172935,0.0185546875,-0.0140380859375,1.026611328125,0.6713866591453552,-0.30517578125,0.30517578125
172965,0.019287109375,-0.0145263671875,1.02490234375,0.7324218153953552,-0.2441406100988388,0.2441406100988388
172985,0.0194091796875,-0.0142822265625,1.025390625,0.7324218153953552,-0.2441406100988388,0.2441406100988388
173001,0.01904296875,-0.0146484375,1.02587890625,0.7934569716453552,-0.30517578125,0.2441406100988388
173018,0.019775390625,-0.01416015625,1.0257568359375,0.7934569716453552,-0.30517578125,0.30517578125
173037,0.02001953125,-0.014404296875,1.02490234375,0.6713866591453552,-0.30517578125,0.2441406100988388
173054,0.0185546875,-0.01416015625,1.0262451171875,0.6713866591453552,-0.30517578125,0.30517578125
173087,0.0189208984375,-0.0150146484375,1.02587890625,0.7324218153953552,-0.2441406100988388,0.2441406100988388
173104,0.0198974609375,-0.0137939453125,1.0262451171875,0.7324218153953552,-0.2441406100988388,0.2441406100988388
173125,0.01953125,-0.013671875,1.026123046875,0.7324218153953552,-0.30517578125,0.30517578125
173141,0.0185546875,-0.014404296875,1.0257568359375,0.6713866591453552,-0.1831054538488388,0.2441406100988388
173153,0.019287109375,-0.0150146484375,1.0252685546875,0.7324218153953552,-0.2441406100988388,0.2441406100988388
173170,0.0191650390625,-0.014404296875,1.025146484375,0.7324218153953552,-0.2441406100988388,0.2441406100988388
173203,0.0185546875,-0.0142822265625,1.025390625,0.7324218153953552,-0.2441406100988388,0.2441406100988388
173220,0.0189208984375,-0.0137939453125,1.027099609375,0.7324218153953552,-0.2441406100988388,0.2441406100988388
173236,0.0191650390625,-0.0145263671875,1.026611328125,0.7324218153953552,-0.2441406100988388,0.2441406100988388
173268,0.01953125,-0.0147705078125,1.0264892578125,0.6713866591453552,-0.2441406100988388,0.30517578125
173285,0.01953125,-0.0145263671875,1.0267333984375,0.7324218153953552,-0.2441406100988388,0.2441406100988388
173322,0.0186767578125,-0.0137939453125,1.0255126953125,0.7324218153953552,-0.2441406100988388,0.2441406100988388
173339,0.0191650390625,-0.014404296875,1.025634765625,0.7324218153953552,-0.2441406100988388,0.2441406100988388
173356,0.019287109375,-0.0142822265625,1.02734375,0.7324218153953552,-0.30517578125,0.2441406100988388
173393,0.0186767578125,-0.0146484375,1.02587890625,0.7324218153953552,-0.2441406100988388,0.2441406100988388
173410,0.0185546875,-0.0142822265625,1.0262451171875,0.7324218153953552,-0.2441406100988388,0.2441406100988388
173442,0.0186767578125,-0.013427734375,1.0264892578125,0.7324218153953552,-0.30517578125,0.30517578125
173460,0.0177001953125,-0.0135498046875,1.0269775390625,0.6713866591453552,-0.2441406100988388,0.1831054538488388
173481,0.0186767578125,-0.0137939453125,1.026123046875,0.6713866591453552,-0.2441406100988388,0.2441406100988388
173497,0.019287109375,-0.0142822265625,1.0255126953125,0.7324218153953552,-0.30517578125,0.30517578125
173515,0.0186767578125,-0.0150146484375,1.0262451171875,0.7934569716453552,-0.2441406100988388,0.30517578125
173532,0.0184326171875,-0.014892578125,1.0264892578125,0.7324218153953552,-0.2441406100988388,0.2441406100988388
173565,0.0196533203125,-0.0137939453125,1.0264892578125,0.6713866591453552,-0.2441406100988388,0.2441406100988388
173581,0.020263671875,-0.0142822265625,1.0263671875,0.6103515625,-0.30517578125,0.1831054538488388
173596,0.0196533203125,-0.01416015625,1.02490234375,0.7324218153953552,-0.2441406100988388,0.30517578125
173652,0.0205078125,-0.013427734375,1.0250244140625,0.6713866591453552,-0.2441406100988388,0.1831054538488388
173697,0.0185546875,-0.0146484375,1.02685546875,0.7324218153953552,-0.1831054538488388,0.2441406100988388
173714,0.01953125,-0.013671875,1.025390625,0.6713866591453552,-0.2441406100988388,0.2441406100988388
173747,0.0179443359375,-0.014404296875,1.025390625,0.7934569716453552,-0.30517578125,0.30517578125
173764,0.0179443359375,-0.0146484375,1.0244140625,0.7324218153953552,-0.1831054538488388,0.2441406100988388
173781,0.0184326171875,-0.0137939453125,1.026123046875,0.6713866591453552,-0.2441406100988388,0.1831054538488388
173797,0.0184326171875,-0.013671875,1.026123046875,0.6713866591453552,-0.30517578125,0.1831054538488388
173820,0.0191650390625,-0.0146484375,1.025390625,0.7324218153953552,-0.1831054538488388,0.30517578125
173837,0.01953125,-0.0147705078125,1.0260009765625,0.7934569716453552,-0.1831054538488388,0.30517578125
173849,0.019287109375,-0.0146484375,1.025390625,0.7324218153953552,-0.2441406100988388,0.2441406100988388
173865,0.0191650390625,-0.0145263671875,1.0240478515625,0.6713866591453552,-0.30517578125,0.2441406100988388
173881,0.01904296875,-0.0147705078125,1.0242919921875,0.6713866591453552,-0.2441406100988388,0.30517578125
173897,0.018310546875,-0.0150146484375,1.026611328125,0.7324218153953552,-0.2441406100988388,0.30517578125
173929,0.01953125,-0.0147705078125,1.0262451171875,0.6713866591453552,-0.2441406100988388,0.2441406100988388
173946,0.0186767578125,-0.014404296875,1.0272216796875,0.6713866591453552,-0.30517578125,0.1831054538488388
173981,0.0189208984375,-0.0147705078125,1.0255126953125,0.7934569716453552,-0.1831054538488388,0.2441406100988388
173997,0.0208740234375,-0.013916015625,1.02587890625,0.7934569716453552,-0.1831054538488388,0.30517578125
174014,0.020751953125,-0.01416015625,1.0260009765625,0.7324218153953552,-0.30517578125,0.2441406100988388
174044,0.01904296875,-0.0147705078125,1.0257568359375,0.7934569716453552,-0.2441406100988388,0.30517578125
174061,0.0189208984375,-0.0145263671875,1.026611328125,0.7324218153953552,-0.2441406100988388,0.30517578125
174076,0.01904296875,-0.014404296875,1.027587890625,0.6713866591453552,-0.2441406100988388,0.2441406100988388
174098,0.019287109375,-0.014404296875,1.027587890625,0.7324218153953552,-0.1831054538488388,0.2441406100988388
174164,0.0198974609375,-0.0152587890625,1.024658203125,0.7324218153953552,-0.1831054538488388,0.2441406100988388
174181,0.0185546875,-0.014404296875,1.02587890625,0.7324218153953552,-0.1831054538488388,0.2441406100988388
174198,0.0184326171875,-0.0145263671875,1.026611328125,0.6713866591453552,-0.1831054538488388,0.2441406100988388
174234,0.019287109375,-0.014404296875,1.025146484375,0.7324218153953552,-0.1831054538488388,0.2441406100988388
174256,0.0184326171875,-0.014404296875,1.0272216796875,0.7324218153953552,-0.2441406100988388,0.30517578125
174272,0.0184326171875,-0.0145263671875,1.028564453125,0.7324218153953552,-0.30517578125,0.2441406100988388
174293,0.0179443359375,-0.014404296875,1.025634765625,0.6713866591453552,-0.2441406100988388,0.2441406100988388
174305,0.01806640625,-0.013916015625,1.022216796875,0.7324218153953552,-0.2441406100988388,0.2441406100988388
174320,0.018798828125,-0.0140380859375,1.022705078125,0.7934569716453552,-0.30517578125,0.1831054538488388
174337,0.0191650390625,-0.0150146484375,1.028076171875,0.6713866591453552,-0.2441406100988388,0.2441406100988388
174358,0.0186767578125,-0.0155029296875,1.027587890625,0.7324218153953552,-0.2441406100988388,0.2441406100988388
174374,0.0181884765625,-0.014892578125,1.02392578125,0.7324218153953552,-0.2441406100988388,0.2441406100988388
174406,0.019775390625,-0.0145263671875,1.0240478515625,0.6713866591453552,-0.2441406100988388,0.30517578125
174428,0.01904296875,-0.0140380859375,1.0260009765625,0.6713866591453552,-0.2441406100988388,0.2441406100988388
174443,0.018310546875,-0.013427734375,1.0302734375,0.6713866591453552,-0.2441406100988388,0.2441406100988388
174460,0.01953125,-0.01416015625,1.0264892578125,0.7324218153953552,-0.2441406100988388,0.2441406100988388
174478,0.0203857421875,-0.0146484375,1.0255126953125,0.7934569716453552,-0.1831054538488388,0.30517578125
174494,0.01953125,-0.0152587890625,1.022705078125,0.7324218153953552,-0.2441406100988388,0.2441406100988388
174527,0.017822265625,-0.0130615234375,1.0234375,0.7934569716453552,-0.1831054538488388,0.1831054538488388
174579,0.018310546875,-0.0152587890625,1.033935546875,0.7324218153953552,-0.30517578125,0.30517578125
174597,0.016845703125,-0.013916015625,1.02880859375,0.7324218153953552,-0.1831054538488388,0.2441406100988388
174613,0.0179443359375,-0.01318359375,1.02490234375,0.7934569716453552,-0.1831054538488388,0.2441406100988388
174646,0.0191650390625,-0.0147705078125,1.0166015625,0.7934569716453552,-0.2441406100988388,0.30517578125
174663,0.01708984375,-0.0145263671875,1.02392578125,0.7324218153953552,-0.2441406100988388,0.2441406100988388
174679,0.0181884765625,-0.015380859375,1.0360107421875,0.6713866591453552,-0.2441406100988388,0.2441406100988388
174716,0.020263671875,-0.0145263671875,1.0263671875,0.7324218153953552,-0.30517578125,0.30517578125
174728,0.0179443359375,-0.015869140625,1.0224609375,0.7324218153953552,-0.2441406100988388,0.2441406100988388
174743,0.0177001953125,-0.0159912109375,1.0208740234375,0.7324218153953552,-0.1831054538488388,0.2441406100988388
174760,0.01953125,-0.014892578125,1.025146484375,0.7324218153953552,-0.1831054538488388,0.2441406100988388
174779,0.0191650390625,-0.01416015625,1.024658203125,0.7324218153953552,-0.30517578125,0.30517578125
174795,0.0177001953125,-0.0146484375,1.025390625,0.7324218153953552,-0.30517578125,0.30517578125
174833,0.01953125,-0.014404296875,1.0294189453125,0.6713866591453552,-0.2441406100988388,0.2441406100988388
174849,0.0198974609375,-0.01318359375,1.0250244140625,0.6713866591453552,-0.2441406100988388,0.2441406100988388
174866,0.0189208984375,-0.013671875,1.0223388671875,0.7324218153953552,-0.1831054538488388,0.2441406100988388
174882,0.01806640625,-0.0147705078125,1.025146484375,0.7934569716453552,-0.1831054538488388,0.2441406100988388
174899,0.019287109375,-0.014892578125,1.0264892578125,0.7324218153953552,-0.2441406100988388,0.2441406100988388
174916,0.0203857421875,-0.014892578125,1.02734375,0.6713866591453552,-0.2441406100988388,0.1831054538488388
174951,0.019287109375,-0.0146484375,1.025390625,0.6713866591453552,-0.2441406100988388,0.2441406100988388
174962,0.0189208984375,-0.0145263671875,1.0263671875,0.6713866591453552,-0.2441406100988388,0.2441406100988388
174979,0.0189208984375,-0.0150146484375,1.0264892578125,0.7324218153953552,-0.30517578125,0.2441406100988388
174996,0.0186767578125,-0.015380859375,1.0281982421875,0.7934569716453552,-0.30517578125,0.30517578125
175014,0.0186767578125,-0.0146484375,1.0279541015625,0.7324218153953552,-0.1831054538488388,0.30517578125
175031,0.0181884765625,-0.0142822265625,1.0252685546875,0.7324218153953552,-0.2441406100988388,0.2441406100988388
175048,0.0189208984375,-0.015380859375,1.0269775390625,0.7324218153953552,-0.2441406100988388,0.2441406100988388
175069,0.018798828125,-0.0155029296875,1.0264892578125,0.7324218153953552,-0.2441406100988388,0.2441406100988388
175086,0.018798828125,-0.0147705078125,1.0252685546875,0.6713866591453552,-0.2441406100988388,0.2441406100988388
175103,0.0196533203125,-0.0142822265625,1.0269775390625,0.6713866591453552,-0.2441406100988388,0.30517578125
175119,0.018310546875,-0.014892578125,1.02587890625,0.7324218153953552,-0.1831054538488388,0.2441406100988388
175139,0.019287109375,-0.0135498046875,1.0264892578125,0.7324218153953552,-0.30517578125,0.2441406100988388
175155,0.0194091796875,-0.0137939453125,1.0264892578125,0.7324218153953552,-0.2441406100988388,0.2441406100988388
175187,0.0201416015625,-0.01416015625,1.02490234375,0.6713866591453552,-0.2441406100988388,0.30517578125
175208,0.0184326171875,-0.013916015625,1.0279541015625,0.7324218153953552,-0.2441406100988388,0.2441406100988388
175224,0.018310546875,-0.01416015625,1.0267333984375,0.7324218153953552,-0.1831054538488388,0.30517578125
175241,0.0186767578125,-0.0150146484375,1.024658203125,0.7324218153953552,-0.2441406100988388,0.30517578125
175308,0.0189208984375,-0.01416015625,1.026123046875,0.7324218153953552,-0.30517578125,0.2441406100988388
175325,0.0194091796875,-0.01123046875,1.02734375,0.9155272841453552,-0.2441406100988388,0.2441406100988388
175346,0.0191650390625,-0.013671875,1.0264892578125,1.03759765625,-0.3662109076976776,0.2441406100988388
175362,0.01904296875,-0.0142822265625,1.0242919921875,1.0986328125,-0.3662109076976776,0.30517578125
175412,0.01904296875,-0.014404296875,1.026611328125,1.220703125,-0.30517578125,0.2441406100988388
175438,0.0186767578125,-0.0137939453125,1.0277099609375,1.3427733182907104,-0.30517578125,0.2441406100988388
175450,0.0186767578125,-0.014892578125,1.0267333984375,1.4038084745407104,-0.30517578125,0.2441406100988388
175483,0.0196533203125,-0.0157470703125,1.0238037109375,1.3427733182907104,-0.2441406100988388,0.2441406100988388
175500,0.01904296875,-0.011474609375,1.022705078125,1.4648436307907104,0.1220703050494194,0.2441406100988388
175516,0.0174560546875,-0.0126953125,1.0234375,1.5869139432907104,0.30517578125,0.2441406100988388
175546,0.020263671875,-0.0093994140625,1.0340576171875,2.50244140625,1.4038084745407104,-0.1831054538488388
175567,0.0264892578125,0.02392578125,1.0498046875,4.57763671875,2.50244140625,-0.4272460639476776
175584,0.04736328125,0.054443359375,1.0257568359375,6.469726085662842,2.624511480331421,-0.3662109076976776
175601,0.026123046875,0.0716552734375,1.1641845703125,12.390135765075684,4.21142578125,-0.2441406100988388
175620,0.0140380859375,0.0469970703125,1.425537109375,14.160155296325684,0.6103515625,0.0610351525247097
175636,0.0223388671875,0.0228271484375,1.460693359375,14.648436546325684,-2.01416015625,0.54931640625
175669,0.0284423828125,-0.0220947265625,1.5015869140625,18.4326171875,-4.8828125,-0.7934569716453552
175686,0.01904296875,-0.0364990234375,1.47802734375,18.85986328125,-6.225585460662842,-0.8544921278953552
175707,0.014892578125,-0.0400390625,1.4478759765625,17.88330078125,-6.835937023162842,-0.3662109076976776
175723,0.0081787109375,-0.044921875,1.461181640625,16.90673828125,-7.019042491912842,-0.7324218153953552
175735,0.007080078125,-0.0545654296875,1.4757080078125,15.686034202575684,-8.056640625,-0.4272460639476776
175752,0.0057373046875,-0.0892333984375,1.493896484375,14.648436546325684,-8.48388671875,-0.6713866591453552
175785,0.005126953125,-0.116455078125,1.4593505859375,9.8876953125,-9.94873046875,-1.15966796875
175802,0.0008544921875,-0.113037109375,1.399658203125,6.958007335662842,-10.009765625,-1.15966796875
175818,-0.005859375,-0.1116943359375,1.37841796875,5.310058116912842,-9.6435546875,-1.4648436307907104
175851,-0.023681640625,-0.0704345703125,1.3223876953125,0.2441406100988388,-8.4228515625,-1.3427733182907104
175871,-0.0245361328125,-0.0755615234375,1.3138427734375,-2.624511480331421,-7.568358898162842,-1.15966796875
175900,-0.0103759765625,-0.064453125,1.30029296875,-7.324218273162842,-6.591796398162842,-1.15966796875
175919,-0.0035400390625,-0.069580078125,1.2772216796875,-9.70458984375,-5.981444835662842,-1.2817381620407104
175935,-0.0032958984375,-0.074462890625,1.251220703125,-12.329100608825684,-5.737304210662842,-1.220703125
175966,-0.0064697265625,-0.0509033203125,1.1658935546875,-16.11328125,-5.0048828125,-1.3427733182907104
175986,-0.0113525390625,-0.0465087890625,1.112060546875,-17.63916015625,-4.0283203125,-1.3427733182907104
175998,-0.019287109375,-0.0562744140625,1.0682373046875,-18.49365234375,-3.540038824081421,-1.2817381620407104
176014,-0.0179443359375,-0.0491943359375,1.0572509765625,-19.22607421875,-2.807616949081421,-1.4038084745407104
176084,-0.017333984375,-0.016357421875,0.8348388671875,-22.583005905151367,2.624511480331421,-1.5258787870407104
176121,-0.0194091796875,-0.006591796875,0.75927734375,-23.193357467651367,5.065917491912842,-1.7089842557907104
176157,-0.01513671875,0.0040283203125,0.7149658203125,-22.216794967651367,7.507323741912842,-1.8920897245407104
176174,-0.0067138671875,0.0048828125,0.695556640625,-22.033689498901367,7.812499523162842,-1.9531248807907104
176207,0.00146484375,0.0169677734375,0.640380859375,-21.240232467651367,7.873534679412842,-2.0751953125
176224,0.007080078125,0.0198974609375,0.612548828125,-20.812986373901367,7.324218273162842,-2.13623046875
176240,0.006591796875,0.0213623046875,0.5882568359375,-20.568845748901367,7.080077648162842,-2.13623046875
176256,0.0050048828125,0.021728515625,0.5599365234375,-20.141599655151367,6.652831554412842,-2.13623046875
176276,0.004150390625,0.0281982421875,0.5528564453125,-19.1650390625,6.042479991912842,-2.197265625
176298,0.0059814453125,0.032470703125,0.552490234375,-18.310546875,5.126952648162842,-2.25830078125
176314,0.0072021484375,0.030517578125,0.54443359375,-17.822265625,4.7607421875,-2.25830078125
176328,0.0052490234375,0.024658203125,0.5423583984375,-16.9677734375,4.2724609375,-2.13623046875
176345,0.00537109375,0.021240234375,0.582275390625,-16.54052734375,4.21142578125,-2.197265625
176378,0.015380859375,0.054443359375,0.714111328125,-14.465331077575684,2.807616949081421,-2.3193359375
176397,0.02001953125,0.06640625,0.783203125,-13.061522483825684,1.9531248807907104,-2.0751953125
176413,0.0198974609375,0.066162109375,0.8541259765625,-11.840819358825684,1.2817381620407104,-2.01416015625
176445,0.015869140625,0.0655517578125,0.955078125,-10.681151390075684,0.30517578125,-2.0751953125
176465,0.0142822265625,0.0677490234375,0.98291015625,-10.314940452575684,0.0,-2.0751953125
176481,0.00927734375,0.066650390625,1.0023193359375,-9.70458984375,-0.6103515625,-2.01416015625
176498,0.0067138671875,0.06201171875,1.0008544921875,-9.46044921875,-0.8544921278953552,-2.13623046875
176517,0.0052490234375,0.060791015625,0.984619140625,-9.33837890625,-0.9765624403953552,-2.13623046875
176534,0.0052490234375,0.060791015625,0.9747314453125,-9.58251953125,-0.9155272841453552,-2.13623046875
176565,0.00439453125,0.0523681640625,0.9757080078125,-9.521484375,-0.4272460639476776,-2.38037109375
176580,0.0062255859375,0.0614013671875,0.9881591796875,-9.21630859375,-0.30517578125,-2.50244140625
176601,0.00927734375,0.0836181640625,1.0120849609375,-8.36181640625,-0.3662109076976776,-2.685546636581421
176616,0.0106201171875,0.0992431640625,1.022705078125,-7.812499523162842,-0.4272460639476776,-2.624511480331421
176634,0.012451171875,0.1031494140625,1.0267333984375,-6.530761241912842,-0.6103515625,-2.50244140625
176651,0.0125732421875,0.107666015625,1.0164794921875,-5.310058116912842,-0.6103515625,-2.563476324081421
176684,0.0120849609375,0.110107421875,1.0379638671875,-2.990722417831421,-0.8544921278953552,-2.44140625
176701,0.010498046875,0.11279296875,1.0389404296875,-2.38037109375,-0.9765624403953552,-2.44140625
176717,0.010498046875,0.1195068359375,1.0496826171875,-1.03759765625,-1.4038084745407104,-2.38037109375
176752,0.015380859375,0.132080078125,1.0718994140625,1.15966796875,-2.44140625,-2.13623046875
176763,0.010009765625,0.126708984375,1.0601806640625,1.8310545682907104,-2.868652105331421,-1.9531248807907104
176780,0.0076904296875,0.1251220703125,1.0518798828125,3.051757574081421,-3.417968511581421,-1.8310545682907104
176797,0.0047607421875,0.125732421875,1.0389404296875,4.150390625,-3.906249761581421,-1.7089842557907104
176816,0.0009765625,0.1259765625,1.0162353515625,5.0048828125,-4.2724609375,-1.5258787870407104
176833,-0.0009765625,0.1240234375,1.0037841796875,5.432128429412842,-4.33349609375,-1.4038084745407104
176854,-0.0020751953125,0.121826171875,0.9891357421875,6.347655773162842,-4.21142578125,-1.3427733182907104
176873,-0.0020751953125,0.127197265625,0.9923095703125,7.141112804412842,-4.0283203125,-1.3427733182907104
176888,-0.0030517578125,0.13330078125,0.98876953125,7.568358898162842,-3.967284917831421,-1.3427733182907104
176921,-0.0008544921875,0.1424560546875,0.9969482421875,9.1552734375,-3.356933355331421,-0.9765624403953552
176940,0.0008544921875,0.1400146484375,1.0020751953125,9.70458984375,-3.051757574081421,-0.7934569716453552
176957,-0.0009765625,0.1328125,0.9931640625,10.070799827575684,-2.990722417831421,-0.6713866591453552
176989,-0.0029296875,0.1220703125,0.983154296875,10.070799827575684,-2.25830078125,-0.4882812201976776
177006,-0.0029296875,0.12060546875,0.994873046875,9.94873046875,-1.7700194120407104,-0.3662109076976776
177027,-0.0030517578125,0.120849609375,1.00146484375,9.82666015625,-1.5869139432907104,-0.30517578125
177042,-0.0009765625,0.1224365234375,1.0135498046875,9.70458984375,-1.6479490995407104,0.0
177059,0.000244140625,0.1165771484375,1.0089111328125,9.70458984375,-1.5258787870407104,0.0610351525247097
177075,0.002685546875,0.11181640625,1.003662109375,9.46044921875,-1.2817381620407104,0.2441406100988388
177109,0.0047607421875,0.1072998046875,0.9974365234375,8.60595703125,-0.9155272841453552,0.6103515625
177126,0.00341796875,0.1051025390625,0.99462890625,8.11767578125,-0.54931640625,0.7324218153953552
177147,0.0028076171875,0.1055908203125,0.9986572265625,7.873534679412842,-0.3662109076976776,0.8544921278953552
177163,0.0020751953125,0.104736328125,1.0045166015625,7.263183116912842,-0.1831054538488388,1.0986328125
177175,0.0006103515625,0.1019287109375,0.99755859375,6.958007335662842,-0.0610351525247097,1.220703125
177191,-0.00048828125,0.1007080078125,0.99267578125,6.103515148162842,0.3662109076976776,1.3427733182907104
177225,0.0001220703125,0.091064453125,0.99365234375,4.94384765625,0.9155272841453552,1.8310545682907104
177241,-0.00048828125,0.08837890625,0.9923095703125,4.150390625,1.220703125,1.9531248807907104
177262,-0.0028076171875,0.07958984375,0.9830322265625,3.234863042831421,1.4648436307907104,2.0751953125
177278,-0.0018310546875,0.0782470703125,0.977783203125,2.807616949081421,1.5869139432907104,2.13623046875
177292,-0.000244140625,0.0762939453125,0.978271484375,2.197265625,1.8310545682907104,2.38037109375
177309,0.000244140625,0.0693359375,0.9725341796875,1.8310545682907104,1.7700194120407104,2.44140625
177342,0.0008544921875,0.058837890625,0.9647216796875,0.9765624403953552,1.8310545682907104,2.624511480331421
177361,-0.0015869140625,0.05029296875,0.9476318359375,0.54931640625,1.8920897245407104,2.685546636581421
177377,-0.003173828125,0.0450439453125,0.929931640625,0.1831054538488388,1.9531248807907104,2.685546636581421
177411,-0.003173828125,0.0343017578125,0.8953857421875,-0.1220703050494194,2.13623046875,2.685546636581421
177428,-0.00341796875,0.029541015625,0.8741455078125,-0.30517578125,2.25830078125,2.624511480331421
177445,-0.0042724609375,0.0250244140625,0.8592529296875,-0.6103515625,2.44140625,2.50244140625
177461,-0.002197265625,0.0244140625,0.845947265625,-0.9155272841453552,2.990722417831421,2.3193359375
177480,-0.00048828125,0.030029296875,0.86376953125,-0.9155272841453552,3.295898199081421,2.13623046875
177497,-0.0001220703125,0.035400390625,0.8785400390625,-0.7324218153953552,3.051757574081421,2.0751953125
177532,0.0037841796875,0.0286865234375,0.86083984375,-0.6103515625,2.929687261581421,1.9531248807907104
177548,0.0106201171875,0.0267333984375,0.859130859375,-0.7934569716453552,3.112792730331421,1.7700194120407104
177565,0.01318359375,0.0306396484375,0.861083984375,-1.0986328125,2.990722417831421,1.6479490995407104
177581,0.0096435546875,0.03369140625,0.8553466796875,-1.220703125,3.051757574081421,1.5869139432907104
177600,0.009521484375,0.044189453125,0.912109375,-1.4038084745407104,3.417968511581421,1.3427733182907104
177617,0.0172119140625,0.0611572265625,0.9605712890625,-1.4648436307907104,3.112792730331421,1.220703125
177650,0.026611328125,0.0611572265625,0.9249267578125,-1.9531248807907104,1.5258787870407104,1.3427733182907104
177671,0.01611328125,0.044189453125,0.8687744140625,-2.25830078125,1.5258787870407104,1.3427733182907104
177687,0.008544921875,0.039306640625,0.8760986328125,-3.173827886581421,2.25830078125,1.03759765625
177704,0.00830078125,0.0391845703125,0.892333984375,-4.150390625,2.563476324081421,0.7934569716453552
177721,0.0142822265625,0.0560302734375,0.909912109375,-4.5166015625,2.563476324081421,0.6103515625
177737,0.0240478515625,0.0745849609375,0.93896484375,-4.94384765625,2.563476324081421,0.3662109076976776
177773,0.02099609375,0.07958984375,0.9371337890625,-5.249022960662842,2.44140625,0.2441406100988388
177790,0.0223388671875,0.0894775390625,0.9666748046875,-5.249022960662842,2.746581792831421,0.1220703050494194
177856,0.0350341796875,0.126708984375,1.039794921875,-3.723144292831421,1.0986328125,0.4272460639476776
177898,0.0211181640625,0.0889892578125,0.848876953125,-4.150390625,2.624511480331421,0.30517578125
177910,0.024169921875,0.09326171875,0.88134765625,-4.82177734375,4.08935546875,0.1220703050494194
177943,0.036376953125,0.1363525390625,1.0035400390625,-4.82177734375,4.08935546875,0.2441406100988388
177960,0.0435791015625,0.151123046875,1.024658203125,-4.2724609375,3.051757574081421,0.54931640625
177977,0.041748046875,0.1513671875,0.99609375,-3.906249761581421,2.685546636581421,0.6713866591453552
178010,0.0465087890625,0.150390625,0.980224609375,-3.112792730331421,3.295898199081421,0.7324218153953552
178026,0.052978515625,0.1646728515625,1.0439453125,-2.685546636581421,2.990722417831421,0.7934569716453552
178043,0.0645751953125,0.193115234375,1.1475830078125,-2.13623046875,2.25830078125,0.9155272841453552
178060,0.0784912109375,0.19921875,1.1925048828125,-0.2441406100988388,0.1831054538488388,1.220703125
178078,0.0782470703125,0.1905517578125,1.165283203125,1.7089842557907104,-2.0751953125,1.4648436307907104
178093,0.0712890625,0.1751708984375,1.099853515625,3.540038824081421,-3.112792730331421,1.4038084745407104
178126,0.0518798828125,0.159912109375,1.06201171875,4.39453125,-3.784179449081421,1.4648436307907104
178147,0.0439453125,0.1571044921875,1.0946044921875,5.065917491912842,-3.723144292831421,1.220703125
178163,0.0478515625,0.1671142578125,1.1632080078125,5.737304210662842,-4.0283203125,1.15966796875
178180,0.048583984375,0.18505859375,1.1982421875,6.713866710662842,-5.126952648162842,1.0986328125
178197,0.04248046875,0.1796875,1.17626953125,8.23974609375,-6.408690929412842,1.2817381620407104
178246,0.0048828125,0.10595703125,1.046875,9.3994140625,-5.310058116912842,0.7324218153953552
178266,0.0048828125,0.1007080078125,1.0751953125,8.9111328125,-4.45556640625,0.1831054538488388
178282,0.004638671875,0.114013671875,1.1126708984375,8.9111328125,-4.33349609375,0.0
178299,0.000244140625,0.115478515625,1.122314453125,9.033203125,-4.39453125,-0.1831054538488388
178317,-0.009521484375,0.1175537109375,1.1025390625,9.46044921875,-4.5166015625,-0.30517578125
178365,-0.008056640625,0.068115234375,1.06103515625,7.629394054412842,-2.3193359375,-0.9765624403953552
178387,-0.004638671875,0.0703125,1.076904296875,6.713866710662842,-1.7700194120407104,-1.4038084745407104
178403,-0.0047607421875,0.0755615234375,1.07958984375,6.347655773162842,-1.5869139432907104,-1.5869139432907104
178420,-0.002685546875,0.08349609375,1.099609375,5.798339366912842,-1.03759765625,-1.7700194120407104
178439,-0.000732421875,0.0809326171875,1.1151123046875,5.310058116912842,-0.7324218153953552,-1.8310545682907104
178456,0.004150390625,0.0687255859375,1.114990234375,4.69970703125,-0.6713866591453552,-1.9531248807907104
178489,0.016357421875,0.0491943359375,1.098876953125,4.0283203125,-0.0610351525247097,-2.44140625
178506,0.030029296875,0.052734375,1.1351318359375,3.723144292831421,0.3662109076976776,-2.685546636581421
178522,0.041259765625,0.0611572265625,1.1602783203125,3.723144292831421,0.1220703050494194,-2.624511480331421
178539,0.04443359375,0.062744140625,1.1588134765625,3.723144292831421,-0.4882812201976776,-2.685546636581421
178557,0.04248046875,0.06396484375,1.1312255859375,3.784179449081421,-0.6713866591453552,-2.746581792831421
178573,0.0413818359375,0.072021484375,1.1280517578125,3.601073980331421,-0.8544921278953552,-2.746581792831421
178603,0.0299072265625,0.0870361328125,1.0921630859375,2.990722417831421,-0.7324218153953552,-2.38037109375
178625,0.021728515625,0.07421875,1.0977783203125,2.685546636581421,-0.6103515625,-2.25830078125
178658,0.021484375,0.0775146484375,1.1085205078125,1.7089842557907104,-0.6103515625,-2.0751953125
178677,0.0159912109375,0.0782470703125,1.075439453125,1.4648436307907104,-0.30517578125,-1.8920897245407104
178693,0.0115966796875,0.0684814453125,1.0675048828125,1.220703125,0.0,-1.8920897245407104
178727,0.00634765625,0.0609130859375,1.0975341796875,0.4272460639476776,0.2441406100988388,-1.8310545682907104
178743,0.000732421875,0.0533447265625,1.059326171875,-0.0610351525247097,0.1220703050494194,-1.8920897245407104
178760,-0.0015869140625,0.0455322265625,1.0321044921875,-0.30517578125,0.4272460639476776,-2.01416015625
178780,0.0003662109375,0.0555419921875,1.0167236328125,-0.9155272841453552,1.0986328125,-2.197265625
178797,0.0023193359375,0.058837890625,1.0238037109375,-1.15966796875,1.6479490995407104,-2.44140625
178814,0.0079345703125,0.076171875,1.038818359375,-1.2817381620407104,1.7700194120407104,-2.44140625
178847,0.0123291015625,0.100830078125,1.0567626953125,-0.8544921278953552,2.197265625,-2.3193359375
178864,0.01220703125,0.10205078125,1.0379638671875,-0.4882812201976776,2.01416015625,-2.0751953125
178881,0.0084228515625,0.0908203125,1.0035400390625,-0.3662109076976776,2.25830078125,-1.8920897245407104
178902,0.0098876953125,0.0926513671875,1.0059814453125,-0.3662109076976776,2.990722417831421,-1.8920897245407104
178918,0.016357421875,0.093017578125,1.0345458984375,-0.1220703050494194,3.234863042831421,-1.8920897245407104
178935,0.0218505859375,0.098876953125,1.0361328125,0.0610351525247097,3.173827886581421,-1.8310545682907104
178965,0.024658203125,0.102294921875,1.02099609375,1.03759765625,3.112792730331421,-1.5869139432907104
178981,0.0247802734375,0.0943603515625,1.0003662109375,1.2817381620407104,3.234863042831421,-1.4648436307907104
178998,0.027099609375,0.0936279296875,1.0028076171875,1.5258787870407104,3.417968511581421,-1.3427733182907104
179040,0.0335693359375,0.0885009765625,0.9970703125,1.6479490995407104,3.417968511581421,-1.15966796875
179056,0.0391845703125,0.091064453125,1.01220703125,1.6479490995407104,3.356933355331421,-0.9765624403953552
179068,0.0428466796875,0.09423828125,1.0379638671875,2.01416015625,3.295898199081421,-0.7934569716453552
179085,0.0447998046875,0.094970703125,1.053466796875,2.25830078125,3.173827886581421,-0.6713866591453552
179101,0.046630859375,0.101806640625,1.0670166015625,2.746581792831421,2.50244140625,-0.4272460639476776
179118,0.0462646484375,0.1014404296875,1.0625,3.356933355331421,1.8920897245407104,-0.1831054538488388
179155,0.0916748046875,0.1365966796875,1.794189453125,1.220703125,-2.746581792831421,0.9155272841453552
179177,0.0028076171875,0.05810546875,1.0517578125,-0.0610351525247097,-5.187987804412842,1.2817381620407104
179193,-0.0140380859375,0.039306640625,0.6556396484375,-2.929687261581421,-1.0986328125,0.9155272841453552
179214,0.0157470703125,0.0645751953125,0.7890625,-3.723144292831421,2.50244140625,0.4882812201976776
179231,0.03076171875,0.06640625,0.9736328125,-3.479003667831421,2.13623046875,0.6713866591453552
179264,0.024169921875,0.046630859375,0.977783203125,-1.4038084745407104,-1.8310545682907104,0.4272460639476776
179281,0.0155029296875,0.0487060546875,0.8111572265625,-2.01416015625,-0.7934569716453552,0.0610351525247097
179298,0.040283203125,0.086181640625,1.0631103515625,-1.6479490995407104,0.0,0.0610351525247097
179319,0.051513671875,0.0975341796875,1.100341796875,-0.9765624403953552,-1.03759765625,0.3662109076976776
179338,0.029052734375,0.07373046875,0.9345703125,-0.9155272841453552,-0.7934569716453552,0.4882812201976776
179353,0.0257568359375,0.0731201171875,1.077392578125,-1.3427733182907104,-0.1220703050494194,0.4272460639476776
179385,0.031982421875,0.06494140625,0.9908447265625,-2.44140625,-0.4882812201976776,0.30517578125
179402,0.041015625,0.1015625,1.0482177734375,-2.563476324081421,-0.0610351525247097,0.1831054538488388
179419,0.03955078125,0.1053466796875,1.02587890625,-1.6479490995407104,-0.4882812201976776,0.4272460639476776
179459,0.0311279296875,0.0914306640625,1.0323486328125,0.2441406100988388,-1.0986328125,0.6103515625
179475,0.0322265625,0.0810546875,1.0130615234375,0.4882812201976776,-1.03759765625,0.4882812201976776
179492,0.0321044921875,0.0823974609375,1.023681640625,0.6103515625,-0.7934569716453552,0.30517578125
179513,0.032470703125,0.088134765625,1.0247802734375,0.9765624403953552,-0.7934569716453552,0.2441406100988388
179529,0.0333251953125,0.0921630859375,1.0123291015625,1.5258787870407104,-0.54931640625,0.2441406100988388
179546,0.0323486328125,0.0919189453125,1.0284423828125,2.01416015625,-0.54931640625,0.1831054538488388
179563,0.031494140625,0.080078125,1.0162353515625,2.13623046875,-0.54931640625,0.2441406100988388
179628,0.0311279296875,0.0906982421875,1.018798828125,2.563476324081421,-0.54931640625,0.1831054538488388
179649,0.0303955078125,0.0904541015625,1.0205078125,3.234863042831421,-0.6103515625,0.2441406100988388
179665,0.0325927734375,0.082763671875,1.0218505859375,3.479003667831421,-0.54931640625,0.2441406100988388
179682,0.0330810546875,0.0811767578125,1.0196533203125,3.845214605331421,-0.54931640625,0.1831054538488388
179699,0.0308837890625,0.073486328125,1.0242919921875,3.784179449081421,-0.54931640625,0.1831054538488388
179755,0.0306396484375,0.068603515625,1.0234375,2.990722417831421,-0.6713866591453552,0.1831054538488388
179771,0.031005859375,0.064697265625,1.02197265625,2.685546636581421,-0.54931640625,0.1831054538488388
179787,0.0289306640625,0.060546875,1.02294921875,1.8920897245407104,-0.4882812201976776,0.2441406100988388
179803,0.0264892578125,0.05859375,1.0242919921875,1.4038084745407104,-0.4882812201976776,0.2441406100988388
179826,0.02685546875,0.0592041015625,1.0216064453125,0.4272460639476776,-0.2441406100988388,0.2441406100988388
179842,0.0296630859375,0.06298828125,1.02490234375,-0.4882812201976776,-0.1220703050494194,0.30517578125
179859,0.0294189453125,0.0650634765625,1.022216796875,-0.8544921278953552,-0.0610351525247097,0.30517578125
179878,0.02783203125,0.064697265625,1.024658203125,-1.5869139432907104,0.0610351525247097,0.3662109076976776
179895,0.02978515625,0.0670166015625,1.0213623046875,-2.44140625,0.1220703050494194,0.3662109076976776
179925,0.0302734375,0.0791015625,1.0235595703125,-2.624511480331421,0.0610351525247097,0.3662109076976776
179941,0.0294189453125,0.0811767578125,1.022216796875,-2.563476324081421,0.0610351525247097,0.4272460639476776
179958,0.03173828125,0.0809326171875,1.01904296875,-2.563476324081421,0.1220703050494194,0.4272460639476776
179979,0.032958984375,0.0810546875,1.021240234375,-2.50244140625,0.1220703050494194,0.3662109076976776
179998,0.0323486328125,0.08642578125,1.0250244140625,-2.13623046875,0.0610351525247097,0.3662109076976776
180013,0.0322265625,0.0885009765625,1.0228271484375,-1.7089842557907104,0.0,0.30517578125
180044,0.0313720703125,0.09326171875,1.0216064453125,-0.7934569716453552,-0.1831054538488388,0.30517578125
180060,0.0316162109375,0.091796875,1.0189208984375,-0.1220703050494194,-0.1831054538488388,0.30517578125
180077,0.0328369140625,0.08984375,1.0205078125,0.4272460639476776,-0.1831054538488388,0.2441406100988388
180110,0.0318603515625,0.089111328125,1.022705078125,1.03759765625,-0.30517578125,0.2441406100988388
180131,0.030029296875,0.089599609375,1.0223388671875,1.5869139432907104,-0.3662109076976776,0.1831054538488388
180147,0.03173828125,0.0888671875,1.020263671875,1.8310545682907104,-0.3662109076976776,0.2441406100988388
180164,0.031494140625,0.087646484375,1.0220947265625,2.25830078125,-0.4272460639476776,0.2441406100988388
180181,0.030517578125,0.0860595703125,1.024169921875,2.624511480331421,-0.4882812201976776,0.2441406100988388
180197,0.030029296875,0.0838623046875,1.0206298828125,2.746581792831421,-0.4882812201976776,0.2441406100988388
180235,0.0311279296875,0.080322265625,1.02490234375,3.173827886581421,-0.54931640625,0.1831054538488388
180252,0.0318603515625,0.078857421875,1.022216796875,3.234863042831421,-0.6103515625,0.1831054538488388
180272,0.0308837890625,0.0762939453125,1.0213623046875,3.051757574081421,-0.54931640625,0.1831054538488388
180293,0.0294189453125,0.07373046875,1.0208740234375,2.868652105331421,-0.4882812201976776,0.1831054538488388
180310,0.029052734375,0.07177734375,1.0242919921875,2.746581792831421,-0.4272460639476776,0.1831054538488388
180326,0.029541015625,0.0692138671875,1.022216796875,2.3193359375,-0.4882812201976776,0.1831054538488388
180343,0.0294189453125,0.0673828125,1.0218505859375,1.8310545682907104,-0.4272460639476776,0.2441406100988388
180360,0.02880859375,0.0675048828125,1.0223388671875,1.220703125,-0.30517578125,0.2441406100988388
180377,0.02880859375,0.069091796875,1.0245361328125,0.6713866591453552,-0.30517578125,0.1831054538488388
180397,0.0291748046875,0.06982421875,1.02392578125,0.4882812201976776,-0.2441406100988388,0.1831054538488388
180466,0.0303955078125,0.076171875,1.0238037109375,-0.4882812201976776,-0.0610351525247097,0.30517578125
180537,0.031982421875,0.079833984375,1.024169921875,-0.6713866591453552,-0.1220703050494194,0.30517578125
180554,0.03076171875,0.081787109375,1.0228271484375,-0.6103515625,-0.1220703050494194,0.2441406100988388
180587,0.031005859375,0.0836181640625,1.02294921875,-0.1220703050494194,-0.1220703050494194,0.30517578125
180604,0.0316162109375,0.0830078125,1.0230712890625,0.1831054538488388,-0.1831054538488388,0.30517578125
180620,0.032470703125,0.0826416015625,1.02197265625,0.3662109076976776,-0.2441406100988388,0.2441406100988388
180636,0.0308837890625,0.08349609375,1.0216064453125,0.54931640625,-0.2441406100988388,0.2441406100988388
180656,0.0308837890625,0.0843505859375,1.0198974609375,0.7934569716453552,-0.2441406100988388,0.2441406100988388
180678,0.03125,0.0841064453125,1.0205078125,1.0986328125,-0.30517578125,0.30517578125
180694,0.031005859375,0.0828857421875,1.02294921875,1.2817381620407104,-0.30517578125,0.30517578125
180713,0.031005859375,0.080810546875,1.0228271484375,1.4038084745407104,-0.3662109076976776,0.2441406100988388
180730,0.03125,0.0816650390625,1.0224609375,1.4648436307907104,-0.4272460639476776,0.1831054538488388
180763,0.030517578125,0.08056640625,1.0216064453125,1.7089842557907104,-0.3662109076976776,0.2441406100988388
180780,0.030029296875,0.076416015625,1.021240234375,1.7700194120407104,-0.3662109076976776,0.30517578125
180796,0.0296630859375,0.07568359375,1.0230712890625,1.7700194120407104,-0.3662109076976776,0.2441406100988388
180825,0.0289306640625,0.076171875,1.022216796875,1.4648436307907104,-0.3662109076976776,0.1220703050494194
180847,0.0296630859375,0.076904296875,1.0230712890625,1.2817381620407104,-0.30517578125,0.1220703050494194
180863,0.0316162109375,0.0760498046875,1.0223388671875,1.220703125,-0.2441406100988388,0.1831054538488388
180880,0.0302734375,0.073974609375,1.0235595703125,1.220703125,-0.30517578125,0.1831054538488388
180899,0.0299072265625,0.07373046875,1.022705078125,1.0986328125,-0.30517578125,0.1831054538488388
180916,0.030517578125,0.07568359375,1.021240234375,0.9155272841453552,-0.2441406100988388,0.1831054538488388
180949,0.03076171875,0.0753173828125,1.02294921875,0.8544921278953552,-0.30517578125,0.30517578125
180966,0.031005859375,0.0753173828125,1.0233154296875,0.8544921278953552,-0.30517578125,0.30517578125
180985,0.030517578125,0.0755615234375,1.0224609375,0.7324218153953552,-0.30517578125,0.2441406100988388
181001,0.0302734375,0.076904296875,1.02197265625,0.6713866591453552,-0.30517578125,0.2441406100988388
181018,0.0299072265625,0.076904296875,1.0198974609375,0.7324218153953552,-0.30517578125,0.2441406100988388
181035,0.030029296875,0.0755615234375,1.021240234375,0.7324218153953552,-0.2441406100988388,0.30517578125
181068,0.0308837890625,0.0762939453125,1.024658203125,0.6713866591453552,-0.1831054538488388,0.2441406100988388
181085,0.0306396484375,0.0767822265625,1.0230712890625,0.6713866591453552,-0.1831054538488388,0.30517578125
181102,0.0308837890625,0.0762939453125,1.0224609375,0.6103515625,-0.1220703050494194,0.30517578125
181118,0.030517578125,0.078369140625,1.021484375,0.6713866591453552,-0.0610351525247097,0.2441406100988388
181131,0.0306396484375,0.0771484375,1.0213623046875,0.7324218153953552,0.0,0.30517578125
181148,0.0302734375,0.07373046875,1.02099609375,0.6713866591453552,0.0,0.30517578125
181181,0.02734375,0.0714111328125,1.01611328125,0.1831054538488388,0.4882812201976776,0.1831054538488388
181200,0.0296630859375,0.074951171875,1.0211181640625,0.0,0.7934569716453552,0.1831054538488388
181217,0.03125,0.07177734375,1.015625,-0.0610351525247097,0.9765624403953552,0.1220703050494194
181236,0.0303955078125,0.0775146484375,1.0238037109375,-0.1220703050494194,2.13623046875,-0.0610351525247097
181256,0.03369140625,0.0938720703125,1.03759765625,0.54931640625,2.929687261581421,-0.3662109076976776
181305,0.05615234375,0.1871337890625,1.2489013671875,5.371093273162842,0.4272460639476776,-0.30517578125
181322,0.0557861328125,0.1771240234375,1.3837890625,6.652831554412842,-1.4038084745407104,0.1220703050494194
181339,0.054443359375,0.152587890625,1.4068603515625,6.896972179412842,-2.13623046875,0.0610351525247097
181374,0.04931640625,0.1309814453125,1.391845703125,7.507323741912842,-3.479003667831421,-0.2441406100988388
181396,0.0416259765625,0.1400146484375,1.3594970703125,7.263183116912842,-3.845214605331421,-0.1220703050494194
181412,0.0390625,0.141357421875,1.3524169921875,7.080077648162842,-3.662109136581421,-0.1220703050494194
181433,0.0396728515625,0.1395263671875,1.3580322265625,6.164550304412842,-3.723144292831421,0.1220703050494194
181450,0.0406494140625,0.1279296875,1.356201171875,5.615233898162842,-4.2724609375,0.30517578125
181466,0.0352783203125,0.1158447265625,1.328125,4.94384765625,-4.08935546875,0.3662109076976776
181483,0.032470703125,0.11474609375,1.33740234375,4.8828125,-3.845214605331421,0.30517578125
181500,0.03076171875,0.113525390625,1.3660888671875,4.7607421875,-3.723144292831421,0.30517578125
181516,0.0330810546875,0.115966796875,1.3868408203125,4.638671875,-3.845214605331421,0.30517578125
181545,0.0303955078125,0.1171875,1.38525390625,4.33349609375,-4.638671875,0.4882812201976776
181567,0.0302734375,0.1107177734375,1.365478515625,4.21142578125,-4.8828125,0.7324218153953552
181583,0.0347900390625,0.099365234375,1.33935546875,3.906249761581421,-4.94384765625,0.7934569716453552
181600,0.036376953125,0.0911865234375,1.3271484375,2.868652105331421,-5.065917491912842,0.9765624403953552
181617,0.037109375,0.080078125,1.3074951171875,1.7089842557907104,-5.187987804412842,0.9765624403953552
181674,0.0120849609375,0.0802001953125,1.2451171875,-1.5869139432907104,-5.249022960662842,1.220703125
181691,0.0078125,0.064697265625,1.205810546875,-2.807616949081421,-5.249022960662842,1.2817381620407104
181708,0.0089111328125,0.0615234375,1.1861572265625,-3.479003667831421,-5.187987804412842,1.2817381620407104
181729,0.00830078125,0.0577392578125,1.1263427734375,-4.82177734375,-5.065917491912842,1.4038084745407104
181745,0.006591796875,0.0491943359375,1.070068359375,-5.493163585662842,-4.82177734375,1.4038084745407104
181762,0.00048828125,0.042236328125,0.9990234375,-6.958007335662842,-4.45556640625,1.3427733182907104
181779,-0.0028076171875,0.03955078125,0.9610595703125,-8.1787109375,-3.906249761581421,1.4038084745407104
181798,-0.008056640625,0.0423583984375,0.9180908203125,-9.09423828125,-3.112792730331421,1.4038084745407104
181814,-0.0120849609375,0.045166015625,0.895751953125,-9.765625,-2.624511480331421,1.3427733182907104
181848,-0.01708984375,0.041748046875,0.8338623046875,-10.131834983825684,-2.50244140625,1.4038084745407104
181869,-0.0179443359375,0.0360107421875,0.7803955078125,-10.192870140075684,-2.13623046875,1.3427733182907104
181885,-0.0157470703125,0.03857421875,0.743408203125,-10.253905296325684,-2.01416015625,1.3427733182907104
181902,-0.0145263671875,0.0338134765625,0.689208984375,-10.009765625,-2.0751953125,1.3427733182907104
181919,-0.015380859375,0.0311279296875,0.6527099609375,-9.6435546875,-2.0751953125,1.4038084745407104
181935,-0.0198974609375,0.02490234375,0.5869140625,-9.3994140625,-1.8920897245407104,1.3427733182907104
181969,-0.0198974609375,0.025634765625,0.5863037109375,-7.873534679412842,-1.0986328125,1.220703125
181985,-0.021728515625,0.0098876953125,0.5631103515625,-7.019042491912842,-1.4038084745407104,1.15966796875
182002,-0.0234375,-0.001220703125,0.52490234375,-6.713866710662842,-1.3427733182907104,1.03759765625
182022,-0.022705078125,-0.0064697265625,0.5177001953125,-6.164550304412842,-0.9765624403953552,0.9155272841453552
182039,-0.01904296875,-0.0076904296875,0.522216796875,-5.859374523162842,-0.6713866591453552,0.7324218153953552
182055,-0.0155029296875,-0.003662109375,0.549072265625,-5.737304210662842,-0.4882812201976776,0.6103515625
182089,-0.010009765625,0.0142822265625,0.646728515625,-4.94384765625,-0.1831054538488388,0.4882812201976776
182105,-0.0074462890625,0.0294189453125,0.7130126953125,-4.0283203125,-0.54931640625,0.3662109076976776
182122,-0.0025634765625,0.049072265625,0.7730712890625,-3.662109136581421,-0.6713866591453552,0.2441406100988388
182138,0.0013427734375,0.064208984375,0.80859375,-2.746581792831421,-0.7324218153953552,0.1831054538488388
182157,0.0093994140625,0.0965576171875,0.8814697265625,-1.6479490995407104,-1.0986328125,0.30517578125
182174,0.0106201171875,0.1259765625,0.9417724609375,-0.8544921278953552,-1.220703125,0.4272460639476776
182207,0.0006103515625,0.1319580078125,0.9892578125,2.44140625,-2.0751953125,0.7324218153953552
182223,-0.0045166015625,0.1312255859375,0.98779296875,3.784179449081421,-2.197265625,0.6713866591453552
182239,-0.003662109375,0.135009765625,0.9891357421875,4.45556640625,-2.0751953125,0.6713866591453552
182281,0.0001220703125,0.136962890625,1.0029296875,6.530761241912842,-2.3193359375,1.0986328125
182297,-0.0015869140625,0.12451171875,0.9951171875,7.019042491912842,-2.25830078125,1.0986328125
182314,-0.00244140625,0.1168212890625,0.99755859375,7.690429210662842,-2.25830078125,1.03759765625
182335,-0.004150390625,0.1141357421875,0.9918212890625,8.1787109375,-2.44140625,1.220703125
182351,-0.0057373046875,0.10595703125,0.9749755859375,8.4228515625,-2.38037109375,1.3427733182907104
182385,-0.0072021484375,0.084716796875,0.990966796875,7.934569835662842,-2.25830078125,1.4038084745407104
182402,-0.0069580078125,0.082763671875,0.99755859375,7.751464366912842,-2.3193359375,1.4038084745407104
182423,-0.006103515625,0.08154296875,1.0040283203125,7.446288585662842,-2.38037109375,1.5258787870407104
182439,-0.0029296875,0.0806884765625,1.017333984375,6.896972179412842,-2.44140625,1.5869139432907104
182459,-0.0064697265625,0.073974609375,1.023681640625,6.103515148162842,-2.50244140625,1.7089842557907104
182476,-0.0146484375,0.0543212890625,1.0225830078125,5.676269054412842,-2.563476324081421,1.7089842557907104
182509,-0.018310546875,0.0538330078125,1.010009765625,3.662109136581421,-2.3193359375,1.5869139432907104
182526,-0.015869140625,0.061279296875,1.0198974609375,2.990722417831421,-1.6479490995407104,1.6479490995407104
182542,-0.0140380859375,0.0625,1.0330810546875,2.746581792831421,-1.5869139432907104,1.5869139432907104
182558,-0.0106201171875,0.0654296875,1.045654296875,2.25830078125,-1.7089842557907104,1.5869139432907104
182578,-0.0120849609375,0.05712890625,1.0306396484375,1.3427733182907104,-1.4648436307907104,1.6479490995407104
182594,-0.0125732421875,0.0537109375,1.02734375,0.4272460639476776,-1.0986328125,1.4648436307907104
182610,-0.01123046875,0.0582275390625,1.036376953125,0.0,-1.03759765625,1.4648436307907104
182627,-0.0101318359375,0.0625,1.0379638671875,-0.6713866591453552,-1.0986328125,1.5869139432907104
182647,-0.0135498046875,0.0594482421875,1.0216064453125,-1.03759765625,-1.15966796875,1.5258787870407104
182664,-0.017333984375,0.0535888671875,1.0101318359375,-1.6479490995407104,-1.03759765625,1.4648436307907104
182681,-0.0196533203125,0.0533447265625,1.0067138671875,-2.50244140625,-0.7934569716453552,1.3427733182907104
182696,-0.021484375,0.0487060546875,0.9996337890625,-2.868652105331421,-0.7324218153953552,1.3427733182907104
182746,-0.0184326171875,0.064208984375,1.0091552734375,-3.601073980331421,0.0610351525247097,0.7934569716453552
182766,-0.02001953125,0.064453125,1.0064697265625,-3.540038824081421,0.0610351525247097,0.7324218153953552
182782,-0.02294921875,0.0648193359375,0.9898681640625,-3.295898199081421,0.4272460639476776,0.54931640625
182799,-0.0206298828125,0.06640625,0.998291015625,-3.112792730331421,0.6713866591453552,0.4272460639476776
182817,-0.016845703125,0.0789794921875,1.0218505859375,-2.868652105331421,0.8544921278953552,0.1831054538488388
182833,-0.0169677734375,0.0816650390625,1.0274658203125,-2.25830078125,0.6713866591453552,0.1831054538488388
182867,-0.0166015625,0.0845947265625,1.013671875,-1.03759765625,0.7324218153953552,0.0
182883,-0.0179443359375,0.0821533203125,1.01123046875,-0.7324218153953552,0.7324218153953552,-0.1220703050494194
182899,-0.0203857421875,0.07763671875,1.0079345703125,-0.30517578125,0.6103515625,-0.0610351525247097
182935,-0.017578125,0.0740966796875,1.00146484375,0.54931640625,0.4272460639476776,-0.3662109076976776
182957,-0.0146484375,0.07275390625,1.0028076171875,0.7324218153953552,0.30517578125,-0.4272460639476776
182973,-0.0126953125,0.0692138671875,0.9954833984375,0.9765624403953552,0.0,-0.4272460639476776
182988,-0.015625,0.0634765625,0.979736328125,1.15966796875,-0.4272460639476776,-0.4272460639476776
183004,-0.0194091796875,0.0533447265625,0.9505615234375,1.15966796875,-0.6103515625,-0.4272460639476776
183021,-0.021728515625,0.0478515625,0.93603515625,0.9155272841453552,-0.6713866591453552,-0.4882812201976776
183038,-0.0264892578125,0.0433349609375,0.9180908203125,0.7324218153953552,-0.6713866591453552,-0.54931640625
183057,-0.027099609375,0.0467529296875,0.9149169921875,0.54931640625,-0.7324218153953552,-0.7324218153953552
183078,-0.031005859375,0.0406494140625,0.9012451171875,0.4272460639476776,-0.7324218153953552,-0.7324218153953552
183095,-0.031982421875,0.04052734375,0.8988037109375,0.30517578125,-0.6103515625,-0.7324218153953552
183113,-0.0360107421875,0.0418701171875,0.893798828125,0.2441406100988388,-0.30517578125,-0.7934569716453552
183130,-0.0350341796875,0.048583984375,0.9141845703125,0.2441406100988388,-0.0610351525247097,-0.9765624403953552
183162,-0.031494140625,0.0589599609375,0.929931640625,0.4882812201976776,-0.2441406100988388,-1.03759765625
183181,-0.0308837890625,0.057861328125,0.9130859375,0.54931640625,-0.1220703050494194,-1.03759765625
183201,-0.024658203125,0.05810546875,0.9215087890625,0.4272460639476776,0.0,-1.0986328125
183217,-0.0196533203125,0.0599365234375,0.9334716796875,0.30517578125,0.0610351525247097,-1.220703125
183237,-0.01953125,0.06103515625,0.9342041015625,0.1220703050494194,-0.1831054538488388,-1.220703125
183254,-0.025634765625,0.0556640625,0.89794921875,-0.1220703050494194,-0.6713866591453552,-1.220703125
183287,-0.02734375,0.05078125,0.864013671875,-1.2817381620407104,0.9765624403953552,-1.6479490995407104
183303,-0.021484375,0.0576171875,0.907958984375,-1.4648436307907104,1.0986328125,-1.7089842557907104
183320,-0.0118408203125,0.081787109375,0.9798583984375,-1.5258787870407104,0.30517578125,-1.8310545682907104
183341,-0.00927734375,0.089599609375,0.972412109375,-1.0986328125,-0.9155272841453552,-1.5869139432907104
183357,-0.0189208984375,0.07568359375,0.8675537109375,-1.03759765625,-1.220703125,-1.4648436307907104
183374,-0.0233154296875,0.065185546875,0.8233642578125,-1.5258787870407104,-0.6713866591453552,-1.5258787870407104
183407,-0.0107421875,0.08642578125,0.916748046875,-2.746581792831421,1.3427733182907104,-1.8310545682907104
183424,-0.005126953125,0.107666015625,0.986083984375,-2.746581792831421,1.3427733182907104,-1.7089842557907104
183441,-0.000732421875,0.13720703125,1.065673828125,-1.8920897245407104,-0.4272460639476776,-1.2817381620407104
183458,-0.011962890625,0.126708984375,0.968994140625,-0.9155272841453552,-1.5869139432907104,-0.7934569716453552
183481,-0.020751953125,0.095947265625,0.8455810546875,-0.6713866591453552,-1.2817381620407104,-0.7934569716453552
183498,-0.0196533203125,0.0928955078125,0.8409423828125,-0.7324218153953552,0.30517578125,-0.9155272841453552
183514,-0.0164794921875,0.09521484375,0.878173828125,-0.9765624403953552,1.4648436307907104,-0.9155272841453552
183534,-0.0111083984375,0.1182861328125,0.9635009765625,-0.6713866591453552,1.5258787870407104,-0.9155272841453552
183551,-0.01318359375,0.1312255859375,0.9927978515625,0.1831054538488388,0.6713866591453552,-0.7324218153953552
183584,-0.0216064453125,0.1142578125,0.9075927734375,1.220703125,0.6713866591453552,-0.6103515625
183601,-0.020751953125,0.11572265625,0.92333984375,1.6479490995407104,1.8310545682907104,-0.6713866591453552
183621,-0.0166015625,0.12451171875,1.0052490234375,1.8310545682907104,2.01416015625,-0.7324218153953552
183638,-0.013427734375,0.1341552734375,1.0765380859375,2.624511480331421,1.8310545682907104,-0.7324218153953552
183657,-0.0098876953125,0.138427734375,1.0966796875,3.906249761581421,0.9765624403953552,-0.4882812201976776
183674,-0.01318359375,0.131103515625,1.0345458984375,4.94384765625,0.0610351525247097,-0.3662109076976776
183707,-0.02294921875,0.1060791015625,0.922607421875,5.737304210662842,1.7700194120407104,-0.4272460639476776
183723,-0.018798828125,0.1085205078125,0.9610595703125,5.798339366912842,2.990722417831421,-0.4272460639476776
183739,-0.0107421875,0.116943359375,1.044677734375,5.981444835662842,2.929687261581421,-0.4882812201976776
183779,-0.0008544921875,0.1171875,1.0662841796875,6.713866710662842,1.8310545682907104,-0.0610351525247097
183796,-0.00244140625,0.111083984375,1.0064697265625,6.896972179412842,2.13623046875,0.0610351525247097
183813,-0.008544921875,0.109130859375,0.9622802734375,6.896972179412842,3.112792730331421,0.0610351525247097
183833,-0.0147705078125,0.10888671875,0.9765625,6.835937023162842,4.33349609375,0.0610351525247097
183850,-0.0123291015625,0.1195068359375,1.05029296875,7.080077648162842,4.82177734375,-0.0610351525247097
183867,-0.00927734375,0.1229248046875,1.08203125,7.263183116912842,4.69970703125,0.0
183883,-0.0042724609375,0.1229248046875,1.099609375,7.812499523162842,4.5166015625,0.1220703050494194
183952,-0.00146484375,0.1141357421875,1.022216796875,8.1787109375,4.0283203125,0.9765624403953552
183968,-0.0059814453125,0.1060791015625,1.03271484375,7.812499523162842,4.638671875,1.15966796875
183985,-0.0025634765625,0.11181640625,1.06640625,7.507323741912842,5.310058116912842,1.220703125
184002,0.004638671875,0.1171875,1.1275634765625,7.446288585662842,5.126952648162842,1.4038084745407104
184018,0.012451171875,0.123779296875,1.1630859375,7.690429210662842,4.45556640625,1.5869139432907104
184035,0.0155029296875,0.1197509765625,1.17333984375,8.1787109375,3.723144292831421,1.8920897245407104
184065,0.01513671875,0.094970703125,1.14697265625,8.6669921875,2.685546636581421,2.13623046875
184087,0.01318359375,0.090576171875,1.137451171875,8.60595703125,2.25830078125,2.3193359375
184103,0.01318359375,0.0838623046875,1.13720703125,8.4228515625,2.01416015625,2.38037109375
184115,0.0150146484375,0.0875244140625,1.11962890625,7.995604991912842,1.4648436307907104,2.38037109375
184134,0.017822265625,0.086669921875,1.125732421875,7.629394054412842,1.3427733182907104,2.50244140625
184151,0.020751953125,0.0850830078125,1.16015625,7.507323741912842,0.9155272841453552,2.746581792831421
184167,0.0194091796875,0.08154296875,1.1741943359375,7.446288585662842,0.4882812201976776,2.746581792831421
184184,0.0107421875,0.077392578125,1.146484375,7.202147960662842,-0.2441406100988388,2.807616949081421
184200,0.0025634765625,0.067138671875,1.103759765625,6.958007335662842,-0.1220703050494194,2.807616949081421
184236,0.0050048828125,0.0579833984375,1.115478515625,5.859374523162842,0.1220703050494194,2.807616949081421
184256,0.01123046875,0.0560302734375,1.1285400390625,5.065917491912842,0.0,2.746581792831421
184272,0.0174560546875,0.0543212890625,1.130859375,4.69970703125,-0.2441406100988388,2.746581792831421
184305,0.0308837890625,0.066650390625,1.1473388671875,3.662109136581421,-0.4882812201976776,2.685546636581421
184322,0.0286865234375,0.0609130859375,1.1337890625,3.112792730331421,-0.7324218153953552,2.685546636581421
184339,0.0263671875,0.05078125,1.142578125,2.685546636581421,-0.7324218153953552,2.746581792831421
184375,0.023681640625,0.0445556640625,1.1162109375,0.9765624403953552,-1.220703125,2.624511480331421
184397,0.0216064453125,0.046875,1.0904541015625,0.1220703050494194,-1.15966796875,2.624511480331421
184413,0.0213623046875,0.0399169921875,1.0855712890625,-0.2441406100988388,-1.03759765625,2.624511480331421
184432,0.0208740234375,0.0372314453125,1.0858154296875,-1.03759765625,-0.9765624403953552,2.50244140625
184449,0.018798828125,0.032470703125,1.087158203125,-1.5258787870407104,-0.7934569716453552,2.38037109375
184465,0.0213623046875,0.0362548828125,1.115966796875,-2.01416015625,-0.9765624403953552,2.197265625
184482,0.021240234375,0.031494140625,1.08837890625,-2.44140625,-1.4038084745407104,2.13623046875
184501,0.0189208984375,0.0311279296875,1.046142578125,-3.173827886581421,-0.8544921278953552,2.01416015625
184517,0.0206298828125,0.03466796875,1.045654296875,-3.479003667831421,-0.6713866591453552,1.9531248807907104
184538,0.02197265625,0.0408935546875,1.0413818359375,-3.967284917831421,-0.4272460639476776,2.01416015625
184557,0.0203857421875,0.0450439453125,1.04345703125,-4.2724609375,-0.3662109076976776,2.01416015625
184568,0.01953125,0.04443359375,1.0318603515625,-4.2724609375,-0.3662109076976776,2.01416015625
184602,0.024169921875,0.0445556640625,1.0150146484375,-4.5166015625,0.1831054538488388,1.9531248807907104
184620,-0.0203857421875,0.0478515625,0.9495849609375,-4.45556640625,0.54931640625,1.9531248807907104
184636,-0.0478515625,0.0538330078125,0.8856201171875,-1.4038084745407104,4.45556640625,1.9531248807907104
184672,0.033447265625,0.0166015625,0.919921875,-0.3662109076976776,8.7890625,1.5258787870407104
184688,0.04443359375,0.039794921875,1.002685546875,-1.03759765625,7.934569835662842,1.4038084745407104
184705,0.0458984375,0.039794921875,1.0267333984375,-0.4272460639476776,7.568358898162842,1.4038084745407104
184721,0.052001953125,0.0579833984375,1.0367431640625,-0.8544921278953552,7.141112804412842,1.4648436307907104
184739,0.053955078125,0.0570068359375,1.029541015625,0.7934569716453552,6.286620616912842,1.5258787870407104
184756,0.0421142578125,0.0123291015625,1.145751953125,-1.5258787870407104,5.371093273162842,1.2817381620407104
184792,-0.0147705078125,-0.096435546875,1.6884765625,-18.73779296875,-1.8310545682907104,1.03759765625
184842,0.0123291015625,0.0440673828125,0.8819580078125,-7.202147960662842,4.21142578125,-0.7934569716453552
184858,0.0128173828125,0.0931396484375,1.036865234375,-15.319823265075684,4.150390625,-0.6103515625
184875,0.0030517578125,0.1146240234375,1.1351318359375,-24.658201217651367,2.3193359375,0.4882812201976776
184907,0.0318603515625,0.052978515625,0.9879150390625,-23.681638717651367,3.540038824081421,1.8310545682907104
184924,0.0540771484375,0.024658203125,0.9912109375,-29.418943405151367,4.33349609375,2.13623046875
184943,0.05224609375,0.0032958984375,1.0181884765625,-32.470703125,4.82177734375,1.8920897245407104
184959,0.0775146484375,0.094482421875,1.324951171875,-32.65380859375,3.295898199081421,1.8310545682907104
184978,0.055419921875,0.1263427734375,0.924072265625,-33.26416015625,2.685546636581421,1.7700194120407104
184994,0.003662109375,0.177734375,1.010009765625,-33.203125,3.417968511581421,1.6479490995407104
185024,0.0439453125,0.1827392578125,0.971435546875,-29.235837936401367,2.807616949081421,1.15966796875
185041,0.068115234375,0.1845703125,0.9718017578125,-27.832029342651367,2.807616949081421,1.03759765625
185058,0.0743408203125,0.2384033203125,1.0291748046875,-24.597166061401367,2.13623046875,0.9155272841453552
185079,0.03515625,0.234619140625,0.97900390625,-20.874021530151367,1.7089842557907104,1.03759765625
185098,0.0291748046875,0.2415771484375,1.0040283203125,-17.27294921875,1.5258787870407104,1.0986328125
185114,0.056640625,0.22509765625,0.9932861328125,-15.747069358825684,1.4038084745407104,1.03759765625
185145,0.055908203125,0.24365234375,1.001220703125,-9.58251953125,0.6103515625,0.4882812201976776
185211,0.0565185546875,0.2457275390625,0.990234375,1.5258787870407104,-0.6103515625,0.4272460639476776
185227,0.0526123046875,0.2398681640625,0.995361328125,2.990722417831421,-0.7324218153953552,0.3662109076976776
185244,0.0435791015625,0.2332763671875,0.9949951171875,5.615233898162842,-1.03759765625,0.2441406100988388
185261,0.043212890625,0.23388671875,0.9931640625,7.934569835662842,-1.0986328125,0.0610351525247097
185280,0.046875,0.2255859375,0.998779296875,9.8876953125,-1.220703125,0.0610351525247097
185296,0.0474853515625,0.21435546875,0.9979248046875,11.596678733825684,-1.5258787870407104,0.0610351525247097
185329,0.0439453125,0.202392578125,1.0062255859375,13.183592796325684,-1.6479490995407104,0.0
185345,0.0428466796875,0.1943359375,1.0032958984375,13.793944358825684,-1.8310545682907104,-0.1220703050494194
185366,0.0439453125,0.195556640625,1.003662109375,14.099120140075684,-1.8920897245407104,-0.1220703050494194
185382,0.0430908203125,0.183837890625,1.0081787109375,14.465331077575684,-1.8920897245407104,-0.0610351525247097
185399,0.0401611328125,0.174560546875,1.009765625,14.587401390075684,-1.8310545682907104,-0.0610351525247097
185416,0.03857421875,0.16796875,1.0096435546875,14.587401390075684,-1.7700194120407104,-0.1220703050494194
185449,0.0406494140625,0.1669921875,1.0115966796875,14.831542015075684,-1.8310545682907104,-0.2441406100988388
185466,0.0372314453125,0.1607666015625,1.0130615234375,15.014647483825684,-1.8310545682907104,-0.1220703050494194
185497,0.0379638671875,0.142578125,1.013916015625,14.526366233825684,-1.8310545682907104,-0.1831054538488388
185521,0.0377197265625,0.133544921875,1.0184326171875,13.793944358825684,-1.7700194120407104,-0.1220703050494194
185538,0.032958984375,0.118896484375,1.0174560546875,13.183592796325684,-1.6479490995407104,-0.1220703050494194
185550,0.033447265625,0.1082763671875,1.0186767578125,11.413573265075684,-1.5258787870407104,-0.1220703050494194
185564,0.034423828125,0.103515625,1.01708984375,10.314940452575684,-1.4038084745407104,-0.1220703050494194
185580,0.03466796875,0.09814453125,1.0179443359375,7.812499523162842,-1.0986328125,-0.0610351525247097
185597,0.0340576171875,0.0928955078125,1.020751953125,5.0048828125,-0.7934569716453552,0.0610351525247097
185635,0.02978515625,0.0960693359375,1.0189208984375,0.7324218153953552,-0.2441406100988388,0.30517578125
185651,0.0325927734375,0.101806640625,1.0179443359375,-1.7700194120407104,0.0,0.4272460639476776
185668,0.0350341796875,0.103759765625,1.01904296875,-2.929687261581421,0.1831054538488388,0.54931640625
185683,0.0341796875,0.1080322265625,1.017333984375,-5.126952648162842,0.4272460639476776,0.54931640625
185700,0.0340576171875,0.115234375,1.0185546875,-6.835937023162842,0.6103515625,0.4882812201976776
185717,0.0350341796875,0.1336669921875,1.01513671875,-7.568358898162842,0.6713866591453552,0.4882812201976776
185752,0.0374755859375,0.1505126953125,1.0159912109375,-7.446288585662842,0.54931640625,0.4882812201976776
185768,0.0386962890625,0.154052734375,1.011962890625,-7.202147960662842,0.54931640625,0.4882812201976776
185785,0.0391845703125,0.1583251953125,1.0130615234375,-6.469726085662842,0.6103515625,0.4272460639476776
185801,0.0404052734375,0.1650390625,1.0140380859375,-5.493163585662842,0.4882812201976776,0.3662109076976776
185818,0.041259765625,0.1749267578125,1.0106201171875,-4.150390625,0.30517578125,0.3662109076976776
185835,0.0390625,0.177734375,1.0086669921875,-2.563476324081421,0.1220703050494194,0.4272460639476776
185866,0.0396728515625,0.167236328125,1.009033203125,-0.6713866591453552,0.0,0.3662109076976776
185887,0.0404052734375,0.1650390625,1.0111083984375,-0.1831054538488388,-0.0610351525247097,0.30517578125
185903,0.0391845703125,0.1671142578125,1.008544921875,0.7934569716453552,-0.1831054538488388,0.2441406100988388
185920,0.0401611328125,0.168701171875,1.01123046875,1.6479490995407104,-0.4882812201976776,0.2441406100988388
185939,0.0406494140625,0.1683349609375,1.014892578125,2.13623046875,-0.4272460639476776,0.30517578125
185956,0.0394287109375,0.1634521484375,1.009521484375,3.295898199081421,-0.4882812201976776,0.1831054538488388
185989,0.0380859375,0.1575927734375,1.0135498046875,4.0283203125,-0.6103515625,0.1831054538488388
186006,0.038330078125,0.1580810546875,1.0118408203125,4.5166015625,-0.6103515625,0.1220703050494194
186027,0.039306640625,0.1583251953125,1.0140380859375,4.69970703125,-0.6713866591453552,0.1220703050494194
186042,0.03857421875,0.1536865234375,1.011962890625,5.126952648162842,-0.7934569716453552,0.1831054538488388
186054,0.0377197265625,0.1478271484375,1.0125732421875,5.187987804412842,-0.7934569716453552,0.1220703050494194
186070,0.03662109375,0.146484375,1.014892578125,5.249022960662842,-0.7324218153953552,0.0610351525247097
186104,0.037841796875,0.1422119140625,1.012451171875,5.0048828125,-0.6103515625,0.0610351525247097
186121,0.036865234375,0.13720703125,1.0167236328125,4.57763671875,-0.6103515625,0.1831054538488388
186142,0.03369140625,0.1322021484375,1.015869140625,3.967284917831421,-0.4882812201976776,0.2441406100988388
186158,0.03515625,0.1268310546875,1.01513671875,3.479003667831421,-0.4882812201976776,0.1831054538488388
186176,0.0355224609375,0.1246337890625,1.015869140625,2.38037109375,-0.4882812201976776,0.1831054538488388
186192,0.03515625,0.1219482421875,1.0174560546875,1.15966796875,-0.3662109076976776,0.30517578125
186225,0.034423828125,0.125732421875,1.016845703125,-0.6713866591453552,-0.1220703050494194,0.30517578125
186241,0.0352783203125,0.1287841796875,1.0140380859375,-1.5869139432907104,0.0610351525247097,0.3662109076976776
186262,0.0369873046875,0.1339111328125,1.0150146484375,-2.25830078125,0.1831054538488388,0.3662109076976776
186278,0.0360107421875,0.1385498046875,1.0150146484375,-2.50244140625,0.1220703050494194,0.4272460639476776
186297,0.03564453125,0.1409912109375,1.0157470703125,-2.868652105331421,0.1831054538488388,0.3662109076976776
186314,0.037109375,0.143798828125,1.0142822265625,-2.990722417831421,0.1831054538488388,0.4882812201976776
186344,0.0380859375,0.151611328125,1.01416015625,-2.868652105331421,0.1220703050494194,0.3662109076976776
186361,0.0369873046875,0.1533203125,1.0123291015625,-2.624511480331421,0.1220703050494194,0.3662109076976776
186378,0.037109375,0.1541748046875,1.0140380859375,-2.25830078125,0.0610351525247097,0.3662109076976776
186394,0.0382080078125,0.155517578125,1.0118408203125,-2.0751953125,0.0,0.30517578125
186415,0.0400390625,0.1573486328125,1.012451171875,-1.5258787870407104,0.0,0.3662109076976776
186432,0.038818359375,0.157470703125,1.0120849609375,-0.9765624403953552,0.0,0.3662109076976776
186448,0.0389404296875,0.157958984375,1.013916015625,-0.7934569716453552,0.0,0.3662109076976776
186465,0.03857421875,0.156982421875,1.0101318359375,-0.4272460639476776,-0.1220703050494194,0.30517578125
186480,0.0382080078125,0.1583251953125,1.0115966796875,0.0,-0.1831054538488388,0.30517578125
186502,0.040283203125,0.160888671875,1.011474609375,0.6103515625,-0.30517578125,0.2441406100988388
186518,0.038818359375,0.158447265625,1.0128173828125,0.8544921278953552,-0.2441406100988388,0.2441406100988388
186537,0.038330078125,0.1572265625,1.0120849609375,1.2817381620407104,-0.30517578125,0.30517578125
186554,0.038818359375,0.1553955078125,1.0120849609375,1.5258787870407104,-0.3662109076976776,0.30517578125
186586,0.0394287109375,0.1578369140625,1.010986328125,1.7700194120407104,-0.4272460639476776,0.1831054538488388
186603,0.038818359375,0.159423828125,1.009765625,2.3193359375,-0.4272460639476776,0.2441406100988388
186619,0.036376953125,0.16064453125,1.013916015625,2.807616949081421,-0.4272460639476776,0.2441406100988388
186655,0.03955078125,0.1522216796875,1.013916015625,3.479003667831421,-0.54931640625,0.1831054538488388
186677,0.036865234375,0.1546630859375,1.0113525390625,3.906249761581421,-0.6103515625,0.1831054538488388
186693,0.0347900390625,0.154296875,1.012939453125,4.33349609375,-0.7324218153953552,0.2441406100988388
186714,0.03955078125,0.152587890625,1.0130615234375,4.7607421875,-0.7324218153953552,0.1831054538488388
186731,0.0413818359375,0.14599609375,1.0152587890625,4.8828125,-0.6713866591453552,0.1831054538488388
186747,0.036865234375,0.1461181640625,1.0133056640625,5.249022960662842,-0.6103515625,0.1220703050494194
186764,0.034912109375,0.1473388671875,1.0126953125,5.554198741912842,-0.7324218153953552,0.1220703050494194
186781,0.035888671875,0.150146484375,1.0137939453125,5.920409679412842,-0.7324218153953552,0.1220703050494194
186797,0.0394287109375,0.1468505859375,1.0140380859375,6.225585460662842,-0.7934569716453552,0.1220703050494194
186816,0.0400390625,0.1456298828125,1.01416015625,6.835937023162842,-0.9155272841453552,0.1220703050494194
186831,0.03662109375,0.14013671875,1.015869140625,7.080077648162842,-1.03759765625,0.0610351525247097
186848,0.03515625,0.1392822265625,1.015869140625,7.202147960662842,-1.03759765625,0.0610351525247097
186880,0.0372314453125,0.133056640625,1.0159912109375,7.568358898162842,-0.9765624403953552,0.0610351525247097
186899,0.03662109375,0.129150390625,1.016845703125,7.629394054412842,-0.9765624403953552,0.0610351525247097
186937,0.0328369140625,0.12548828125,1.0159912109375,7.690429210662842,-1.03759765625,0.0
186954,0.0341796875,0.1253662109375,1.0179443359375,7.812499523162842,-1.03759765625,0.0
186970,0.0352783203125,0.123291015625,1.01708984375,7.934569835662842,-1.03759765625,0.0610351525247097
186998,0.0341796875,0.118896484375,1.017822265625,8.1787109375,-1.0986328125,0.0610351525247097
187017,0.0340576171875,0.11767578125,1.0179443359375,8.4228515625,-1.15966796875,0.0610351525247097
187066,0.034423828125,0.109375,1.01904296875,8.9111328125,-1.0986328125,0.0610351525247097
187088,0.0325927734375,0.104736328125,1.0189208984375,8.97216796875,-1.15966796875,0.0
187104,0.0321044921875,0.104736328125,1.019287109375,9.033203125,-1.0986328125,0.0610351525247097
187121,0.0322265625,0.1015625,1.021240234375,9.1552734375,-1.0986328125,0.0
187138,0.0330810546875,0.1007080078125,1.0205078125,9.27734375,-1.15966796875,0.0
187185,0.0306396484375,0.087890625,1.022216796875,9.21630859375,-1.15966796875,0.0610351525247097
187206,0.0306396484375,0.0849609375,1.0196533203125,8.97216796875,-1.15966796875,0.0
187222,0.030029296875,0.0821533203125,1.0220947265625,8.9111328125,-1.15966796875,0.0
187239,0.0296630859375,0.08154296875,1.02197265625,8.544921875,-1.15966796875,0.0
187258,0.0252685546875,0.0733642578125,1.008544921875,8.48388671875,-1.2817381620407104,0.1220703050494194
187275,0.0291748046875,0.079345703125,1.0255126953125,8.4228515625,-1.0986328125,0.1220703050494194
187308,0.0322265625,0.06396484375,1.0267333984375,7.629394054412842,-0.9155272841453552,0.1220703050494194
187324,0.0281982421875,0.0611572265625,1.0277099609375,7.019042491912842,-0.8544921278953552,0.0610351525247097
187344,0.0267333984375,0.0706787109375,1.0238037109375,6.591796398162842,-0.7324218153953552,0.0
187360,0.0294189453125,0.065185546875,1.02197265625,6.408690929412842,-0.7934569716453552,0.1220703050494194
187372,0.029296875,0.0574951171875,1.0242919921875,5.920409679412842,-0.7934569716453552,0.2441406100988388
187420,0.02392578125,0.04248046875,1.024658203125,3.540038824081421,-0.54931640625,0.2441406100988388
187440,0.026611328125,0.047119140625,1.02490234375,2.13623046875,-0.3662109076976776,0.1831054538488388
187460,0.0274658203125,0.0518798828125,1.0244140625,0.9765624403953552,-0.2441406100988388,0.30517578125
187477,0.0260009765625,0.049560546875,1.026123046875,-0.1220703050494194,-0.2441406100988388,0.30517578125
187496,0.025390625,0.049560546875,1.024658203125,-1.15966796875,-0.0610351525247097,0.30517578125
187513,0.02783203125,0.0528564453125,1.025634765625,-2.01416015625,0.0610351525247097,0.1831054538488388
187546,0.029296875,0.0748291015625,1.0213623046875,-2.44140625,0.1220703050494194,0.3662109076976776
187562,0.0311279296875,0.059814453125,1.0264892578125,-2.38037109375,0.1220703050494194,0.4882812201976776
187579,0.030029296875,0.0660400390625,1.0233154296875,-2.563476324081421,0.1831054538488388,0.3662109076976776
187596,0.024169921875,0.066650390625,1.02197265625,-2.563476324081421,0.1831054538488388,0.2441406100988388
187616,0.0284423828125,0.08056640625,1.02392578125,-2.38037109375,0.0610351525247097,0.3662109076976776
187633,0.0338134765625,0.0728759765625,1.02392578125,-2.13623046875,0.0,0.30517578125
187650,0.0333251953125,0.0802001953125,1.02685546875,-2.01416015625,-0.0610351525247097,0.2441406100988388
187667,0.0264892578125,0.078125,1.0208740234375,-1.4648436307907104,-0.1831054538488388,0.3662109076976776
187688,0.027099609375,0.087158203125,1.0196533203125,-0.7934569716453552,-0.0610351525247097,0.30517578125
187704,0.02978515625,0.0823974609375,1.0220947265625,-0.3662109076976776,0.0,0.30517578125
187721,0.03076171875,0.0894775390625,1.0213623046875,0.4882812201976776,0.0,0.2441406100988388
187738,0.030029296875,0.08544921875,1.0206298828125,1.5258787870407104,-0.0610351525247097,0.30517578125
187754,0.03271484375,0.08642578125,1.020751953125,1.8920897245407104,-0.1831054538488388,0.2441406100988388
187785,0.028564453125,0.08154296875,1.021240234375,3.234863042831421,-0.30517578125,0.1831054538488388
187807,0.027587890625,0.0755615234375,1.02197265625,3.662109136581421,-0.2441406100988388,0.1831054538488388
187823,0.032470703125,0.074462890625,1.026123046875,3.723144292831421,-0.2441406100988388,0.1831054538488388
187840,0.0325927734375,0.0679931640625,1.0260009765625,3.845214605331421,-0.3662109076976776,0.1831054538488388
187859,0.0262451171875,0.0611572265625,1.019287109375,3.479003667831421,-0.2441406100988388,0.1831054538488388
187876,0.0245361328125,0.0587158203125,1.0255126953125,2.990722417831421,0.0610351525247097,0.0610351525247097
187909,0.033935546875,0.069580078125,1.02685546875,2.44140625,0.1220703050494194,0.1831054538488388
187925,0.0306396484375,0.06494140625,1.0169677734375,2.3193359375,0.0610351525247097,0.2441406100988388
187941,0.0274658203125,0.0616455078125,1.022705078125,2.25830078125,0.1831054538488388,0.1831054538488388
187958,0.028564453125,0.062744140625,1.0286865234375,1.8920897245407104,0.7324218153953552,0.2441406100988388
187983,0.026123046875,0.0582275390625,1.0203857421875,1.6479490995407104,0.8544921278953552,0.1220703050494194
187999,0.0205078125,0.0616455078125,1.0174560546875,1.4648436307907104,1.5258787870407104,-0.1220703050494194
188016,0.0137939453125,0.08544921875,1.044921875,1.5258787870407104,2.01416015625,-0.30517578125
188035,0.012451171875,0.1063232421875,1.0771484375,2.44140625,2.929687261581421,-0.3662109076976776
188052,0.035400390625,0.12255859375,1.15771484375,3.540038824081421,2.0751953125,-0.1220703050494194
188084,0.0291748046875,0.107177734375,1.1817626953125,6.835937023162842,1.15966796875,0.0
188101,0.032470703125,0.1038818359375,1.1990966796875,7.690429210662842,1.8920897245407104,-0.1831054538488388
188121,0.049560546875,0.1046142578125,1.2921142578125,9.46044921875,2.3193359375,-0.4272460639476776
188138,0.0631103515625,0.1121826171875,1.352783203125,11.169432640075684,1.8920897245407104,-0.4882812201976776
188156,0.0592041015625,0.116455078125,1.345703125,12.084959983825684,1.4648436307907104,-0.4272460639476776
188172,0.049560546875,0.0821533203125,1.3013916015625,13.610838890075684,1.0986328125,-0.1831054538488388
188205,0.0521240234375,0.048583984375,1.330810546875,13.732909202575684,1.4648436307907104,-0.6103515625
188221,0.05322265625,0.04248046875,1.33642578125,13.305663108825684,1.15966796875,-0.7934569716453552
188238,0.050537109375,0.0377197265625,1.295654296875,12.695311546325684,0.9765624403953552,-0.9765624403953552
188257,0.0594482421875,0.0484619140625,1.3162841796875,12.512206077575684,1.4038084745407104,-1.0986328125
188276,0.0726318359375,0.0450439453125,1.380859375,12.390135765075684,1.15966796875,-1.03759765625
188293,0.0750732421875,0.041259765625,1.3837890625,12.695311546325684,0.1220703050494194,-1.15966796875
188326,0.085693359375,0.03857421875,1.40576171875,13.549803733825684,-1.7700194120407104,-1.15966796875
188343,0.0723876953125,0.008544921875,1.405517578125,13.549803733825684,-2.197265625,-1.0986328125
188360,0.064208984375,-0.0062255859375,1.4027099609375,13.305663108825684,-3.356933355331421,-1.220703125
188381,0.0474853515625,-0.0313720703125,1.3658447265625,12.695311546325684,-4.21142578125,-1.7089842557907104
188397,0.0458984375,-0.013671875,1.3380126953125,12.268065452575684,-4.5166015625,-2.01416015625
188414,0.0450439453125,-0.00146484375,1.296630859375,11.718749046325684,-5.065917491912842,-2.197265625
188447,0.04248046875,-0.0037841796875,1.2705078125,10.864256858825684,-5.310058116912842,-2.0751953125
188464,0.0355224609375,-0.013671875,1.2247314453125,9.21630859375,-6.164550304412842,-1.9531248807907104
188496,0.0244140625,-0.01318359375,1.1171875,7.141112804412842,-5.798339366912842,-2.01416015625
188521,0.0234375,-0.0147705078125,1.0982666015625,5.676269054412842,-5.187987804412842,-1.8920897245407104
188538,0.0220947265625,-0.0211181640625,1.1082763671875,5.0048828125,-5.187987804412842,-1.8920897245407104
188550,0.0126953125,-0.0328369140625,1.0655517578125,3.601073980331421,-5.493163585662842,-1.8920897245407104
188566,0.0087890625,-0.0340576171875,1.039794921875,2.929687261581421,-5.493163585662842,-2.01416015625
188583,0.005615234375,-0.032470703125,1.001708984375,1.8310545682907104,-5.493163585662842,-2.0751953125
188600,0.00439453125,-0.030517578125,0.9744873046875,0.8544921278953552,-5.737304210662842,-2.13623046875
188641,0.009765625,-0.0264892578125,0.88671875,-0.9155272841453552,-5.432128429412842,-2.197265625
188657,0.006591796875,-0.022705078125,0.867431640625,-1.220703125,-5.493163585662842,-2.197265625
188674,0.0042724609375,-0.0196533203125,0.8536376953125,-1.5869139432907104,-5.859374523162842,-2.197265625
188695,0.0009765625,-0.0137939453125,0.806640625,-1.5258787870407104,-6.225585460662842,-2.197265625
188711,0.001708984375,-0.01171875,0.7525634765625,-1.4648436307907104,-6.958007335662842,-2.13623046875
188728,-0.002197265625,-0.0133056640625,0.64453125,-1.3427733182907104,-7.080077648162842,-2.01416015625
188745,-0.0030517578125,-0.0152587890625,0.569580078125,-1.4038084745407104,-6.652831554412842,-1.9531248807907104
188761,-0.0042724609375,-0.0142822265625,0.541259765625,-1.4648436307907104,-6.530761241912842,-1.8920897245407104
188778,-0.008544921875,-0.016357421875,0.50146484375,-1.4038084745407104,-5.981444835662842,-1.8920897245407104
188799,-0.010009765625,-0.021484375,0.50439453125,-1.3427733182907104,-5.737304210662842,-1.9531248807907104
188817,-0.01025390625,-0.02880859375,0.5164794921875,-1.0986328125,-5.554198741912842,-1.8920897245407104
188828,-0.0079345703125,-0.025390625,0.5208740234375,-0.8544921278953552,-5.676269054412842,-2.0751953125
188862,-0.011962890625,-0.02978515625,0.5045166015625,-0.6103515625,-5.0048828125,-2.0751953125
188880,-0.014892578125,-0.0269775390625,0.5570068359375,-0.4882812201976776,-4.39453125,-2.01416015625
188896,-0.0150146484375,-0.028076171875,0.632080078125,-0.4882812201976776,-4.150390625,-1.9531248807907104
188928,-0.013671875,-0.0299072265625,0.7325439453125,-0.4272460639476776,-3.723144292831421,-2.01416015625
188945,-0.01123046875,-0.0206298828125,0.823974609375,-0.4272460639476776,-3.540038824081421,-2.01416015625
188964,-0.0087890625,-0.010986328125,0.870361328125,-0.1831054538488388,-3.417968511581421,-2.0751953125
188980,-0.00390625,0.0042724609375,0.9547119140625,0.1831054538488388,-3.845214605331421,-1.8310545682907104
188997,-0.0076904296875,0.0113525390625,1.0020751953125,0.54931640625,-3.967284917831421,-1.7089842557907104
189014,-0.0072021484375,0.013427734375,1.0374755859375,1.6479490995407104,-4.0283203125,-1.5869139432907104
189047,-0.0120849609375,0.0201416015625,1.056396484375,3.601073980331421,-5.676269054412842,-1.15966796875
189064,-0.0126953125,0.0152587890625,1.037109375,3.845214605331421,-5.432128429412842,-1.03759765625
189080,-0.01123046875,0.0045166015625,1.0523681640625,4.08935546875,-5.371093273162842,-0.8544921278953552
189096,-0.01806640625,-0.00732421875,1.0552978515625,3.906249761581421,-5.798339366912842,-0.7934569716453552
189114,-0.0250244140625,-0.011962890625,1.04638671875,3.784179449081421,-5.920409679412842,-0.8544921278953552
189136,-0.025634765625,-0.0111083984375,1.048095703125,3.540038824081421,-5.981444835662842,-0.7324218153953552
189152,-0.0277099609375,-0.0106201171875,1.052001953125,2.929687261581421,-6.347655773162842,-0.6103515625
189171,-0.033935546875,-0.021728515625,1.0191650390625,2.25830078125,-6.652831554412842,-0.54931640625
189188,-0.0419921875,-0.0343017578125,0.973876953125,1.8310545682907104,-6.530761241912842,-0.54931640625
189204,-0.0455322265625,-0.0384521484375,0.9619140625,0.7324218153953552,-5.920409679412842,-0.6103515625
189219,-0.0482177734375,-0.0367431640625,0.96484375,-0.30517578125,-5.249022960662842,-0.6713866591453552
189239,-0.0517578125,-0.0325927734375,0.97802734375,-1.220703125,-4.638671875,-0.6713866591453552
189256,-0.05322265625,-0.0321044921875,0.9788818359375,-1.5869139432907104,-4.39453125,-0.6713866591453552
189276,-0.054931640625,-0.0335693359375,0.9700927734375,-2.25830078125,-3.723144292831421,-0.7324218153953552
189294,-0.0543212890625,-0.0291748046875,0.9765625,-2.990722417831421,-2.624511480331421,-0.6713866591453552
189343,-0.0537109375,-0.0185546875,0.99755859375,-3.967284917831421,-0.7324218153953552,-0.6103515625
189360,-0.0489501953125,-0.0181884765625,1.0013427734375,-4.2724609375,0.1831054538488388,-0.4882812201976776
189377,-0.0452880859375,-0.01416015625,1.0194091796875,-4.69970703125,0.4882812201976776,-0.4882812201976776
189413,-0.0416259765625,-0.0166015625,1.0018310546875,-5.493163585662842,0.7934569716453552,-0.1831054538488388
189429,-0.041748046875,-0.021728515625,0.98486328125,-5.737304210662842,1.03759765625,-0.1220703050494194
189445,-0.0408935546875,-0.02099609375,0.9903564453125,-6.164550304412842,1.5869139432907104,0.0
189462,-0.0391845703125,-0.0146484375,1.014404296875,-6.408690929412842,1.7089842557907104,0.0610351525247097
189478,-0.036376953125,-0.0084228515625,1.0225830078125,-6.347655773162842,1.6479490995407104,0.1831054538488388
189494,-0.034912109375,-0.0064697265625,1.0213623046875,-6.103515148162842,1.5869139432907104,0.30517578125
189526,-0.0330810546875,-0.001220703125,1.017333984375,-5.432128429412842,1.6479490995407104,0.3662109076976776
189545,-0.0316162109375,0.001220703125,1.0238037109375,-4.82177734375,1.5258787870407104,0.4882812201976776
189561,-0.0313720703125,0.0032958984375,1.030029296875,-4.45556640625,1.4038084745407104,0.54931640625
189578,-0.029541015625,0.006103515625,1.037109375,-3.601073980331421,1.15966796875,0.54931640625
189597,-0.0291748046875,0.00830078125,1.04345703125,-2.746581792831421,0.9765624403953552,0.54931640625
189614,-0.0274658203125,0.0155029296875,1.0638427734375,-1.8310545682907104,0.6713866591453552,0.6103515625
189646,-0.0299072265625,0.0286865234375,1.0640869140625,-0.3662109076976776,-0.1220703050494194,0.8544921278953552
189667,-0.033935546875,0.026123046875,1.0416259765625,0.3662109076976776,-0.4882812201976776,0.9155272841453552
189683,-0.0389404296875,0.012939453125,1.014892578125,0.9155272841453552,-0.54931640625,1.03759765625
189700,-0.0400390625,0.01025390625,1.003173828125,1.15966796875,-0.54931640625,0.9765624403953552
189717,-0.0411376953125,0.0091552734375,0.99072265625,1.5258787870407104,-0.6713866591453552,1.03759765625
189766,-0.0458984375,-0.0081787109375,0.948486328125,1.7089842557907104,0.0,0.9765624403953552
189782,-0.044677734375,-0.0091552734375,0.94873046875,1.7089842557907104,0.0,1.03759765625
189799,-0.0443115234375,-0.009033203125,0.9432373046875,1.8920897245407104,0.0610351525247097,1.0986328125
189820,-0.044677734375,-0.0098876953125,0.936767578125,2.0751953125,0.1220703050494194,1.0986328125
189836,-0.044677734375,-0.0157470703125,0.9322509765625,2.3193359375,0.30517578125,1.03759765625
189848,-0.047119140625,-0.0230712890625,0.93359375,2.50244140625,0.4272460639476776,0.9765624403953552
189881,-0.0477294921875,-0.0284423828125,0.8798828125,2.624511480331421,0.1220703050494194,0.8544921278953552
189900,-0.04638671875,-0.033935546875,0.8465576171875,2.3193359375,0.8544921278953552,0.7324218153953552
189917,-0.0462646484375,-0.037353515625,0.8338623046875,2.0751953125,1.220703125,0.6103515625
189950,-0.045654296875,-0.0404052734375,0.8111572265625,0.8544921278953552,2.197265625,0.4882812201976776
189969,-0.0460205078125,-0.041015625,0.805419921875,0.4882812201976776,2.44140625,0.4272460639476776
189985,-0.0443115234375,-0.0379638671875,0.8162841796875,-0.30517578125,3.295898199081421,0.1831054538488388
190002,-0.037353515625,-0.0277099609375,0.8726806640625,-0.6103515625,3.662109136581421,0.1220703050494194
190019,-0.03515625,-0.02001953125,0.8980712890625,-0.9765624403953552,3.601073980331421,0.0
190035,-0.02978515625,-0.006591796875,0.928466796875,-0.9765624403953552,2.990722417831421,0.0
190069,-0.022216796875,-0.0140380859375,0.8228759765625,-1.5258787870407104,2.807616949081421,0.1220703050494194
190085,-0.01904296875,-0.015869140625,0.8455810546875,-2.197265625,4.0283203125,0.0610351525247097
190117,-0.0115966796875,0.0084228515625,1.0194091796875,-2.44140625,3.479003667831421,-0.0610351525247097
190137,-0.0108642578125,0.0216064453125,1.0518798828125,-1.8310545682907104,1.2817381620407104,0.1220703050494194
190159,-0.0179443359375,0.010986328125,0.902587890625,-1.6479490995407104,0.0,0.30517578125
190174,-0.0225830078125,-0.0045166015625,0.7545166015625,-2.50244140625,1.03759765625,0.30517578125
190194,-0.02294921875,-0.01123046875,0.742919921875,-3.479003667831421,3.112792730331421,0.2441406100988388
190211,-0.0174560546875,-0.0052490234375,0.8956298828125,-3.967284917831421,3.784179449081421,0.1831054538488388
190261,-0.0096435546875,0.03662109375,1.002685546875,-2.38037109375,-0.3662109076976776,0.4882812201976776
190318,-0.022705078125,0.010498046875,0.8209228515625,-3.417968511581421,2.197265625,0.54931640625
190330,-0.0150146484375,0.0338134765625,0.9766845703125,-3.662109136581421,2.868652105331421,0.4882812201976776
190363,0.00390625,0.0885009765625,1.1705322265625,-1.5869139432907104,0.1831054538488388,0.9765624403953552
190380,-0.004150390625,0.0771484375,1.08740234375,-0.7324218153953552,-0.6713866591453552,1.15966796875
190396,-0.0079345703125,0.0753173828125,1.040771484375,0.54931640625,-0.8544921278953552,1.2817381620407104
190427,-0.0107421875,0.0679931640625,0.9827880859375,1.220703125,-0.3662109076976776,1.4038084745407104
190449,-0.0137939453125,0.0594482421875,0.946044921875,1.15966796875,-0.3662109076976776,1.5258787870407104
190465,-0.014404296875,0.0609130859375,0.92578125,0.9765624403953552,0.54931640625,1.4648436307907104
190482,-0.0089111328125,0.06982421875,0.98388671875,0.9765624403953552,1.0986328125,1.4648436307907104
190499,-0.0040283203125,0.08251953125,1.0244140625,0.9155272841453552,1.220703125,1.5258787870407104
190514,-0.0023193359375,0.088623046875,1.06396484375,1.15966796875,1.15966796875,1.6479490995407104
190548,-0.001220703125,0.0894775390625,1.1058349609375,2.50244140625,0.3662109076976776,2.3193359375
190564,-0.017333984375,0.05615234375,1.008056640625,2.3193359375,0.4882812201976776,2.3193359375
190580,-0.02587890625,0.0343017578125,0.94140625,1.8920897245407104,1.15966796875,2.197265625
190596,-0.0224609375,0.0291748046875,0.957275390625,1.220703125,2.990722417831421,1.9531248807907104
190614,-0.009521484375,0.031005859375,1.034423828125,0.6103515625,3.479003667831421,1.7089842557907104
190636,-0.0020751953125,0.0462646484375,1.0780029296875,0.6713866591453552,3.845214605331421,1.4038084745407104
190652,0.003173828125,0.061767578125,1.1265869140625,0.7934569716453552,3.906249761581421,1.2817381620407104
190673,0.0032958984375,0.0716552734375,1.1497802734375,1.7700194120407104,3.723144292831421,1.3427733182907104
190690,0.0042724609375,0.07373046875,1.1793212890625,2.746581792831421,2.990722417831421,1.5258787870407104
190706,0.0009765625,0.0675048828125,1.1673583984375,3.845214605331421,2.197265625,1.5869139432907104
190723,-0.007080078125,0.0538330078125,1.129638671875,4.7607421875,2.01416015625,1.6479490995407104
190740,-0.0087890625,0.0496826171875,1.1212158203125,5.126952648162842,2.0751953125,1.7089842557907104
190756,-0.008056640625,0.0355224609375,1.135498046875,5.920409679412842,2.38037109375,1.7089842557907104
190792,0.0047607421875,0.036865234375,1.2491455078125,7.446288585662842,1.03759765625,1.5258787870407104
190808,0.0029296875,0.02880859375,1.2352294921875,8.6669921875,-0.1220703050494194,1.7089842557907104
190825,-0.0086669921875,0.021484375,1.16748046875,9.1552734375,-0.54931640625,1.5869139432907104
190842,-0.01220703125,0.01513671875,1.1478271484375,9.70458984375,-0.6103515625,1.5258787870407104
190858,-0.0108642578125,0.003173828125,1.14453125,9.765625,-0.4272460639476776,1.3427733182907104
190875,-0.001953125,0.005615234375,1.1688232421875,9.94873046875,-0.3662109076976776,1.15966796875
190906,0.0037841796875,0.011474609375,1.23095703125,10.803221702575684,-1.4648436307907104,1.03759765625
190927,-0.0025634765625,0.0040283203125,1.2008056640625,11.230467796325684,-2.25830078125,0.8544921278953552
190944,-0.0101318359375,-0.01318359375,1.120361328125,11.352538108825684,-2.38037109375,0.7934569716453552
190961,-0.0107421875,-0.0177001953125,1.0894775390625,10.681151390075684,-1.7089842557907104,0.6713866591453552
190978,-0.009033203125,-0.0322265625,1.0714111328125,9.46044921875,-0.9155272841453552,0.54931640625
190994,-0.007568359375,-0.03369140625,1.087158203125,8.4228515625,-0.30517578125,0.4272460639476776
191026,-0.00732421875,-0.02783203125,1.130615234375,7.568358898162842,0.30517578125,0.3662109076976776
191045,-0.0067138671875,-0.02978515625,1.1417236328125,6.958007335662842,-0.1220703050494194,0.3662109076976776
191061,-0.00732421875,-0.0274658203125,1.12109375,6.652831554412842,-0.1220703050494194,0.3662109076976776
191078,-0.0093994140625,-0.0323486328125,1.087890625,5.615233898162842,0.30517578125,0.3662109076976776
191097,-0.0142822265625,-0.03857421875,1.087158203125,5.0048828125,0.54931640625,0.3662109076976776
191114,-0.0155029296875,-0.0435791015625,1.110107421875,3.479003667831421,0.6713866591453552,0.1831054538488388
191147,-0.0142822265625,-0.0357666015625,1.07421875,2.0751953125,0.3662109076976776,-0.0610351525247097
191163,-0.0155029296875,-0.0225830078125,1.03759765625,1.0986328125,0.9765624403953552,-0.1831054538488388
191179,-0.0130615234375,-0.01611328125,1.0460205078125,0.7934569716453552,1.2817381620407104,-0.1831054538488388
191214,-0.01416015625,-0.015625,1.0574951171875,-0.4272460639476776,1.220703125,0.0610351525247097
191230,-0.01611328125,-0.02294921875,1.0272216796875,-1.4038084745407104,1.2817381620407104,0.0610351525247097
191264,-0.0064697265625,-0.023681640625,1.020263671875,-2.807616949081421,1.8920897245407104,0.0610351525247097
191280,-0.0072021484375,-0.023681640625,1.02734375,-3.417968511581421,2.25830078125,0.1220703050494194
191296,-0.0665283203125,0.0,0.9888916015625,-2.3193359375,3.784179449081421,0.1220703050494194
191330,-0.0167236328125,-0.015625,0.9212646484375,5.432128429412842,8.30078125,0.6713866591453552
191350,0.0234375,-0.02392578125,1.0130615234375,1.0986328125,8.48388671875,0.7934569716453552
191367,0.012939453125,-0.0150146484375,1.00830078125,0.9765624403953552,7.812499523162842,0.7324218153953552
191383,0.0184326171875,-0.0264892578125,1.01220703125,1.4038084745407104,7.385253429412842,0.7934569716453552
191400,0.0263671875,-0.0157470703125,1.0352783203125,0.9765624403953552,7.202147960662842,0.6103515625
191417,0.03076171875,-0.0181884765625,1.0244140625,1.4038084745407104,6.042479991912842,0.8544921278953552
191450,0.0325927734375,-0.024169921875,0.9716796875,2.44140625,5.249022960662842,0.7324218153953552
191469,-0.0098876953125,-0.029052734375,0.9024658203125,1.8920897245407104,5.981444835662842,0.6713866591453552
191485,0.041015625,-0.0640869140625,2.137451171875,2.13623046875,6.652831554412842,0.6103515625
191502,0.1275634765625,-0.0865478515625,2.3836669921875,1.7700194120407104,-4.82177734375,0.3662109076976776
191519,-0.009765625,-0.0303955078125,0.417724609375,-0.4272460639476776,-5.187987804412842,0.1831054538488388
191535,0.0380859375,0.02099609375,0.39794921875,-0.2441406100988388,0.6103515625,0.1220703050494194
191566,0.0472412109375,-0.0667724609375,1.5869140625,1.220703125,-3.601073980331421,0.2441406100988388
191583,0.013427734375,-0.037841796875,0.855224609375,0.54931640625,-3.234863042831421,0.0
191604,-0.009765625,-0.0169677734375,0.841064453125,1.5258787870407104,1.220703125,0.1220703050494194
191620,0.0325927734375,-0.0211181640625,1.263427734375,1.220703125,-1.6479490995407104,0.3662109076976776
191637,0.03857421875,-0.0279541015625,0.87548828125,1.15966796875,-1.8310545682907104,0.3662109076976776
191654,0.0263671875,-0.0238037109375,1.013671875,1.2817381620407104,-0.4272460639476776,0.4882812201976776
191687,0.013427734375,-0.0296630859375,0.98388671875,0.3662109076976776,-0.4882812201976776,0.3662109076976776
191704,0.021484375,-0.0284423828125,1.0626220703125,0.1831054538488388,-0.30517578125,0.2441406100988388
191721,0.0228271484375,-0.02392578125,1.0081787109375,-0.2441406100988388,-0.30517578125,0.30517578125
191742,0.0186767578125,-0.031005859375,1.0404052734375,-0.3662109076976776,-0.2441406100988388,0.3662109076976776
191759,0.013916015625,-0.02783203125,1.021240234375,-0.6103515625,-0.30517578125,0.30517578125
191775,0.0201416015625,-0.0169677734375,1.01806640625,-0.6713866591453552,-0.2441406100988388,0.1831054538488388
191809,0.0206298828125,-0.01416015625,1.0228271484375,0.2441406100988388,-0.4882812201976776,0.30517578125
191825,0.0146484375,-0.0174560546875,1.0223388671875,0.7934569716453552,-0.4272460639476776,0.30517578125
191842,0.0146484375,-0.0218505859375,1.0350341796875,0.9155272841453552,-0.4272460639476776,0.2441406100988388
191861,0.0206298828125,-0.0194091796875,1.0224609375,1.15966796875,-0.4272460639476776,0.2441406100988388
191878,0.0208740234375,-0.02001953125,1.0220947265625,1.2817381620407104,-0.4272460639476776,0.2441406100988388
191894,0.0184326171875,-0.016845703125,1.0242919921875,1.5258787870407104,-0.3662109076976776,0.1831054538488388
191925,0.0174560546875,-0.021240234375,1.0225830078125,2.13623046875,-0.4272460639476776,0.30517578125
191942,0.017333984375,-0.0263671875,1.02685546875,2.197265625,-0.4272460639476776,0.30517578125
191959,0.0169677734375,-0.0281982421875,1.0269775390625,2.13623046875,-0.4272460639476776,0.30517578125
191980,0.0184326171875,-0.0263671875,1.0252685546875,2.0751953125,-0.4272460639476776,0.2441406100988388
191996,0.0191650390625,-0.025634765625,1.0216064453125,2.01416015625,-0.4272460639476776,0.1831054538488388
192013,0.0186767578125,-0.0250244140625,1.0234375,2.01416015625,-0.3662109076976776,0.1831054538488388
192046,0.0167236328125,-0.0263671875,1.025390625,1.8920897245407104,-0.54931640625,0.2441406100988388
192062,0.0159912109375,-0.0264892578125,1.0306396484375,1.8920897245407104,-0.3662109076976776,0.1831054538488388
192079,0.0167236328125,-0.0223388671875,1.020751953125,2.01416015625,-0.4272460639476776,0.1220703050494194
192121,0.0191650390625,-0.0263671875,1.02978515625,2.3193359375,-0.54931640625,0.2441406100988388
192137,0.0167236328125,-0.03173828125,1.021728515625,2.3193359375,-0.54931640625,0.2441406100988388
192154,0.0166015625,-0.0296630859375,1.024169921875,2.3193359375,-0.4882812201976776,0.1220703050494194
192175,0.0166015625,-0.0289306640625,1.0269775390625,2.3193359375,-0.4272460639476776,0.1831054538488388
192191,0.016357421875,-0.0267333984375,1.0262451171875,2.38037109375,-0.4272460639476776,0.2441406100988388
192208,0.0166015625,-0.0303955078125,1.026611328125,2.38037109375,-0.4272460639476776,0.2441406100988388
192225,0.016845703125,-0.0301513671875,1.0272216796875,2.38037109375,-0.4272460639476776,0.2441406100988388
192241,0.0162353515625,-0.0330810546875,1.0225830078125,2.25830078125,-0.3662109076976776,0.2441406100988388
192262,0.016357421875,-0.033203125,1.0283203125,2.13623046875,-0.4272460639476776,0.2441406100988388
192278,0.015380859375,-0.031982421875,1.0252685546875,2.197265625,-0.4272460639476776,0.2441406100988388
192297,0.01611328125,-0.032470703125,1.0263671875,2.197265625,-0.3662109076976776,0.2441406100988388
192314,0.0177001953125,-0.0357666015625,1.0230712890625,2.0751953125,-0.4272460639476776,0.1831054538488388
192347,0.015380859375,-0.0338134765625,1.02392578125,1.9531248807907104,-0.4272460639476776,0.2441406100988388
192364,0.016845703125,-0.0347900390625,1.024658203125,1.8920897245407104,-0.4272460639476776,0.2441406100988388
192381,0.01708984375,-0.037841796875,1.027099609375,1.7700194120407104,-0.3662109076976776,0.2441406100988388
192402,0.0155029296875,-0.0390625,1.0240478515625,1.5869139432907104,-0.30517578125,0.2441406100988388
192419,0.0157470703125,-0.0384521484375,1.0235595703125,1.4648436307907104,-0.30517578125,0.1831054538488388
192435,0.01611328125,-0.0372314453125,1.0255126953125,1.3427733182907104,-0.3662109076976776,0.2441406100988388
192469,0.0159912109375,-0.0325927734375,1.0247802734375,1.3427733182907104,-0.30517578125,0.2441406100988388
192485,0.015625,-0.0325927734375,1.0255126953125,1.4038084745407104,-0.30517578125,0.2441406100988388
192502,0.015625,-0.036376953125,1.0242919921875,1.4648436307907104,-0.3662109076976776,0.30517578125
192522,0.0150146484375,-0.0382080078125,1.0272216796875,1.3427733182907104,-0.3662109076976776,0.2441406100988388
192539,0.01611328125,-0.03857421875,1.02490234375,1.2817381620407104,-0.30517578125,0.1831054538488388
192556,0.0155029296875,-0.037841796875,1.0234375,1.15966796875,-0.2441406100988388,0.2441406100988388
192588,0.0162353515625,-0.0367431640625,1.0240478515625,1.03759765625,-0.3662109076976776,0.2441406100988388
192605,0.015869140625,-0.0372314453125,1.025146484375,1.0986328125,-0.30517578125,0.2441406100988388
192622,0.01611328125,-0.036865234375,1.0245361328125,1.03759765625,-0.2441406100988388,0.2441406100988388
192642,0.01611328125,-0.037841796875,1.0257568359375,0.9765624403953552,-0.1831054538488388,0.3662109076976776
192654,0.015625,-0.0369873046875,1.0252685546875,0.9155272841453552,-0.2441406100988388,0.3662109076976776
192670,0.0146484375,-0.0377197265625,1.0264892578125,0.9155272841453552,-0.2441406100988388,0.30517578125
192704,0.015380859375,-0.0380859375,1.025146484375,0.8544921278953552,-0.2441406100988388,0.2441406100988388
192720,0.015625,-0.0372314453125,1.0255126953125,0.9155272841453552,-0.30517578125,0.30517578125
192736,0.015869140625,-0.03759765625,1.0238037109375,0.8544921278953552,-0.2441406100988388,0.2441406100988388
192763,0.0152587890625,-0.0362548828125,1.0267333984375,1.03759765625,-0.2441406100988388,0.2441406100988388
192780,0.0146484375,-0.0360107421875,1.0260009765625,1.03759765625,-0.2441406100988388,0.2441406100988388
192796,0.0146484375,-0.0362548828125,1.0279541015625,1.03759765625,-0.2441406100988388,0.2441406100988388
192829,0.0164794921875,-0.0367431640625,1.0250244140625,1.220703125,-0.1831054538488388,0.2441406100988388
192845,0.0150146484375,-0.0362548828125,1.02392578125,1.3427733182907104,-0.2441406100988388,0.2441406100988388
192866,0.0157470703125,-0.036865234375,1.028564453125,1.4038084745407104,-0.30517578125,0.2441406100988388
192882,0.0169677734375,-0.03466796875,1.0255126953125,1.4038084745407104,-0.30517578125,0.2441406100988388
192899,0.0169677734375,-0.0357666015625,1.025634765625,1.7700194120407104,-0.3662109076976776,0.2441406100988388
192915,0.0166015625,-0.03759765625,1.0247802734375,1.8920897245407104,-0.3662109076976776,0.1831054538488388
192949,0.01416015625,-0.0389404296875,1.0240478515625,2.0751953125,-0.2441406100988388,0.1831054538488388
192966,0.013916015625,-0.0394287109375,1.0244140625,2.0751953125,-0.30517578125,0.2441406100988388
192985,0.0164794921875,-0.0406494140625,1.0263671875,2.13623046875,-0.3662109076976776,0.2441406100988388
193001,0.016845703125,-0.0438232421875,1.0263671875,2.13623046875,-0.3662109076976776,0.2441406100988388
193018,0.0159912109375,-0.0445556640625,1.0279541015625,2.01416015625,-0.4272460639476776,0.1831054538488388
193065,0.014892578125,-0.0447998046875,1.0260009765625,1.5869139432907104,-0.30517578125,0.30517578125
193082,0.016845703125,-0.0452880859375,1.0224609375,1.3427733182907104,-0.1220703050494194,0.2441406100988388
193098,0.0135498046875,-0.04541015625,1.025634765625,1.2817381620407104,-0.0610351525247097,0.30517578125
193131,0.0146484375,-0.0517578125,1.023681640625,0.6713866591453552,0.0,0.3662109076976776
193152,0.0164794921875,-0.0537109375,1.025146484375,0.3662109076976776,0.0,0.30517578125
193185,0.012451171875,-0.0489501953125,1.0234375,-0.7324218153953552,0.2441406100988388,0.3662109076976776
193202,0.01318359375,-0.0491943359375,1.02783203125,-0.9765624403953552,0.30517578125,0.3662109076976776
193222,0.014404296875,-0.0484619140625,1.0250244140625,-1.4038084745407104,0.30517578125,0.4272460639476776
193239,0.016845703125,-0.0467529296875,1.0269775390625,-1.8920897245407104,0.3662109076976776,0.4272460639476776
193257,0.0162353515625,-0.048828125,1.0274658203125,-2.44140625,0.3662109076976776,0.4272460639476776
193273,0.0145263671875,-0.0435791015625,1.025634765625,-2.929687261581421,0.4272460639476776,0.3662109076976776
193306,0.0177001953125,-0.0390625,1.0179443359375,-3.295898199081421,0.54931640625,0.30517578125
193318,0.0177001953125,-0.0404052734375,1.0277099609375,-3.417968511581421,0.7324218153953552,0.4272460639476776
193335,0.0145263671875,-0.040283203125,1.024658203125,-3.601073980331421,0.7934569716453552,0.4272460639476776
193368,0.015625,-0.034423828125,1.023681640625,-3.967284917831421,1.6479490995407104,0.30517578125
193385,0.0223388671875,-0.0255126953125,1.033447265625,-3.662109136581421,2.25830078125,0.1831054538488388
193402,0.029541015625,-0.011474609375,1.044677734375,-2.624511480331421,3.173827886581421,0.2441406100988388
193423,0.0401611328125,-0.0010986328125,1.057861328125,-1.8920897245407104,3.723144292831421,0.30517578125
193435,0.0611572265625,-0.003662109375,1.2034912109375,-0.4272460639476776,2.25830078125,0.4882812201976776
193452,0.048583984375,0.0018310546875,1.334228515625,0.4882812201976776,0.3662109076976776,0.3662109076976776
193485,0.0291748046875,-0.0093994140625,1.3331298828125,3.784179449081421,-3.601073980331421,0.30517578125
193502,0.022705078125,-0.02734375,1.259033203125,4.57763671875,-4.2724609375,0.1220703050494194
193522,0.02392578125,-0.0279541015625,1.21923828125,4.57763671875,-4.39453125,0.0
193539,0.026611328125,-0.0140380859375,1.16259765625,5.065917491912842,-3.417968511581421,-0.0610351525247097
193558,0.0357666015625,0.008056640625,1.2188720703125,5.371093273162842,-2.624511480331421,0.0610351525247097
193575,0.035400390625,0.00390625,1.297119140625,6.469726085662842,-3.234863042831421,0.4272460639476776
193608,0.0228271484375,-0.014404296875,1.3243408203125,7.934569835662842,-3.662109136581421,0.6103515625
193624,0.0208740234375,-0.0208740234375,1.333251953125,8.85009765625,-4.0283203125,0.54931640625
193640,0.0203857421875,-0.0242919921875,1.3079833984375,9.09423828125,-4.2724609375,0.6103515625
193657,0.02099609375,-0.025146484375,1.2938232421875,9.521484375,-4.45556640625,0.6713866591453552
193682,0.023193359375,-0.0396728515625,1.281005859375,9.33837890625,-4.33349609375,0.9155272841453552
193698,0.0262451171875,-0.042724609375,1.2891845703125,9.46044921875,-4.2724609375,0.9155272841453552
193715,0.021484375,-0.0467529296875,1.3028564453125,9.3994140625,-4.45556640625,0.9765624403953552
193734,0.0123291015625,-0.0489501953125,1.304443359375,9.58251953125,-4.69970703125,1.03759765625
193751,0.0069580078125,-0.0440673828125,1.2874755859375,9.58251953125,-4.82177734375,1.03759765625
193784,0.0028076171875,-0.0489501953125,1.2181396484375,8.85009765625,-4.69970703125,1.4038084745407104
193801,0.0020751953125,-0.0499267578125,1.203369140625,8.4228515625,-4.5166015625,1.4648436307907104
193817,-0.002685546875,-0.05859375,1.1756591796875,7.507323741912842,-4.0283203125,1.5869139432907104
193834,-0.0020751953125,-0.062255859375,1.1744384765625,6.835937023162842,-3.784179449081421,1.6479490995407104
193855,-0.000732421875,-0.0618896484375,1.1722412109375,5.798339366912842,-4.0283203125,1.6479490995407104
193871,-0.0030517578125,-0.0616455078125,1.080810546875,4.57763671875,-4.21142578125,1.7700194120407104
193888,-0.004150390625,-0.0625,1.0565185546875,3.112792730331421,-3.784179449081421,1.9531248807907104
193905,-0.011474609375,-0.069580078125,1.0362548828125,1.4038084745407104,-3.295898199081421,2.01416015625
193921,-0.023681640625,-0.071044921875,1.02734375,0.54931640625,-3.051757574081421,2.01416015625
193938,-0.0272216796875,-0.0728759765625,1.032470703125,-1.03759765625,-2.50244140625,2.01416015625
193959,-0.0247802734375,-0.064697265625,1.0645751953125,-2.13623046875,-2.3193359375,2.0751953125
193977,-0.0224609375,-0.0599365234375,1.0706787109375,-2.44140625,-2.44140625,2.13623046875
193993,-0.0244140625,-0.0618896484375,1.0672607421875,-3.051757574081421,-2.3193359375,2.25830078125
194026,-0.0247802734375,-0.06884765625,1.0958251953125,-3.540038824081421,-1.8920897245407104,2.25830078125
194043,-0.030517578125,-0.05908203125,1.0589599609375,-3.479003667831421,-2.25830078125,2.13623046875
194060,-0.033935546875,-0.058349609375,1.0318603515625,-3.479003667831421,-2.13623046875,2.13623046875
194076,-0.0379638671875,-0.062255859375,0.9798583984375,-3.601073980331421,-1.7700194120407104,2.197265625
194101,-0.03955078125,-0.0697021484375,0.924072265625,-3.662109136581421,-1.6479490995407104,2.25830078125
194117,-0.0343017578125,-0.06689453125,0.8516845703125,-3.845214605331421,-1.4648436307907104,2.13623046875
194134,-0.0264892578125,-0.0615234375,0.7835693359375,-3.906249761581421,-0.9765624403953552,2.0751953125
194155,-0.02197265625,-0.05615234375,0.7574462890625,-3.723144292831421,-0.30517578125,2.01416015625
194170,-0.019775390625,-0.0465087890625,0.706787109375,-3.417968511581421,0.1831054538488388,2.01416015625
194187,-0.0223388671875,-0.047607421875,0.6544189453125,-2.868652105331421,0.7324218153953552,1.9531248807907104
194204,-0.0220947265625,-0.0496826171875,0.6319580078125,-2.25830078125,1.0986328125,1.7700194120407104
194221,-0.0208740234375,-0.0501708984375,0.6187744140625,-1.9531248807907104,1.15966796875,1.6479490995407104
194240,-0.0145263671875,-0.046630859375,0.590576171875,-1.3427733182907104,1.220703125,1.4648436307907104
194256,-0.0072021484375,-0.0357666015625,0.56982421875,-0.8544921278953552,1.2817381620407104,1.4038084745407104
194275,-0.00244140625,-0.030029296875,0.5673828125,0.1220703050494194,1.3427733182907104,1.4648436307907104
194292,0.000732421875,-0.0277099609375,0.5675048828125,1.0986328125,1.220703125,1.5869139432907104
194325,-0.0064697265625,-0.04833984375,0.5789794921875,2.563476324081421,0.9155272841453552,1.5258787870407104
194342,-0.0059814453125,-0.04931640625,0.587646484375,2.746581792831421,1.0986328125,1.4038084745407104
194359,0.0047607421875,-0.0408935546875,0.66259765625,3.112792730331421,1.4648436307907104,1.4038084745407104
194380,0.0128173828125,-0.0382080078125,0.7752685546875,3.479003667831421,1.0986328125,1.4648436307907104
194396,0.011474609375,-0.0445556640625,0.880126953125,3.662109136581421,0.7324218153953552,1.5869139432907104
194413,0.0086669921875,-0.0482177734375,0.9267578125,4.08935546875,-0.1220703050494194,1.4648436307907104
194444,0.0040283203125,-0.04345703125,1.0391845703125,4.8828125,-1.2817381620407104,1.5869139432907104
194460,0.00390625,-0.050537109375,1.060791015625,5.493163585662842,-2.3193359375,1.7700194120407104
194477,-0.001708984375,-0.066162109375,1.0404052734375,5.981444835662842,-3.173827886581421,1.6479490995407104
194510,-0.0098876953125,-0.0821533203125,0.991943359375,6.286620616912842,-2.990722417831421,1.5258787870407104
194531,-0.013916015625,-0.078857421875,0.9881591796875,6.591796398162842,-2.807616949081421,1.4648436307907104
194547,-0.014892578125,-0.074462890625,0.9989013671875,6.774901866912842,-2.624511480331421,1.2817381620407104
194562,-0.014404296875,-0.076171875,1.0133056640625,7.141112804412842,-2.38037109375,1.2817381620407104
194579,-0.01416015625,-0.079833984375,1.026123046875,7.324218273162842,-2.44140625,1.2817381620407104
194596,-0.013916015625,-0.08935546875,1.0218505859375,7.507323741912842,-2.3193359375,1.0986328125
194629,-0.008544921875,-0.0919189453125,1.0328369140625,7.263183116912842,-1.8920897245407104,0.9155272841453552
194645,-0.0078125,-0.0927734375,1.0423583984375,6.835937023162842,-1.9531248807907104,0.8544921278953552
194661,-0.008056640625,-0.1005859375,1.039794921875,6.591796398162842,-1.9531248807907104,0.8544921278953552
194678,-0.0079345703125,-0.1119384765625,1.0330810546875,5.737304210662842,-1.9531248807907104,0.7934569716453552
194698,-0.0072021484375,-0.1220703125,1.0347900390625,5.187987804412842,-1.9531248807907104,0.7934569716453552
194715,-0.0069580078125,-0.122314453125,1.037109375,3.967284917831421,-2.01416015625,0.6103515625
194731,-0.0091552734375,-0.129150390625,1.0347900390625,2.807616949081421,-2.197265625,0.6103515625
194748,-0.01123046875,-0.1270751953125,1.029296875,1.4648436307907104,-2.3193359375,0.4272460639476776
194765,-0.015380859375,-0.1300048828125,1.0123291015625,0.7934569716453552,-2.3193359375,0.3662109076976776
194782,-0.0162353515625,-0.1285400390625,1.009033203125,-0.30517578125,-2.197265625,0.2441406100988388
194802,-0.017578125,-0.128662109375,1.006103515625,-1.220703125,-2.3193359375,0.30517578125
194819,-0.02001953125,-0.1270751953125,0.992919921875,-1.7089842557907104,-2.3193359375,0.2441406100988388
194835,-0.02294921875,-0.1236572265625,0.9864501953125,-2.563476324081421,-2.01416015625,0.1220703050494194
194869,-0.025634765625,-0.1146240234375,1.004150390625,-3.906249761581421,-1.2817381620407104,-0.1220703050494194
194885,-0.0264892578125,-0.1123046875,1.00439453125,-4.150390625,-1.220703125,-0.1220703050494194
194902,-0.0263671875,-0.111083984375,1.0133056640625,-4.57763671875,-0.8544921278953552,-0.30517578125
194956,-0.0294189453125,-0.102783203125,1.005615234375,-5.249022960662842,-0.2441406100988388,-0.4882812201976776
195018,-0.02880859375,-0.093505859375,0.989013671875,-5.065917491912842,0.4882812201976776,-0.9765624403953552
195080,-0.0213623046875,-0.082763671875,1.0174560546875,-4.57763671875,1.220703125,-1.3427733182907104
195117,-0.018798828125,-0.07177734375,1.029052734375,-3.173827886581421,1.0986328125,-1.4648436307907104
195133,-0.01708984375,-0.07275390625,1.0301513671875,-2.44140625,0.8544921278953552,-1.5258787870407104
195164,-0.0194091796875,-0.0697021484375,1.0096435546875,-1.6479490995407104,0.54931640625,-1.6479490995407104
195180,-0.02001953125,-0.06787109375,1.01220703125,-1.03759765625,0.54931640625,-1.7089842557907104
195197,-0.018310546875,-0.06298828125,1.0238037109375,-0.2441406100988388,0.1831054538488388,-1.7700194120407104
