tMillis,ax,ay,az,gx,gy,gz
431908,-0.0675048828125,-0.763671875,-0.614013671875,0.8544921278953552,-0.1831054538488388,0.4882812201976776
431924,-0.0672607421875,-0.7645263671875,-0.61572265625,0.8544921278953552,-0.2441406100988388,0.4272460639476776
431941,-0.066650390625,-0.7630615234375,-0.615234375,0.8544921278953552,-0.1831054538488388,0.4272460639476776
431960,-0.0665283203125,-0.7637939453125,-0.6151123046875,0.8544921278953552,-0.1831054538488388,0.3662109076976776
431980,-0.06689453125,-0.7652587890625,-0.6160888671875,0.8544921278953552,-0.1831054538488388,0.4272460639476776
432001,-0.0673828125,-0.76513671875,-0.615478515625,0.7934569716453552,-0.1831054538488388,0.4272460639476776
432020,-0.06689453125,-0.7640380859375,-0.6160888671875,0.8544921278953552,-0.2441406100988388,0.4272460639476776
432042,-0.06640625,-0.76416015625,-0.6151123046875,0.7934569716453552,-0.2441406100988388,0.4272460639476776
432058,-0.066162109375,-0.763427734375,-0.615234375,0.8544921278953552,-0.2441406100988388,0.4272460639476776
432077,-0.06640625,-0.763671875,-0.61474609375,0.8544921278953552,-0.2441406100988388,0.3662109076976776
432095,-0.0672607421875,-0.76416015625,-0.615478515625,0.8544921278953552,-0.2441406100988388,0.30517578125
432113,-0.0657958984375,-0.76416015625,-0.6158447265625,0.7934569716453552,-0.1831054538488388,0.3662109076976776
432131,-0.0662841796875,-0.763427734375,-0.61474609375,0.8544921278953552,-0.1831054538488388,0.3662109076976776
432151,-0.0667724609375,-0.7650146484375,-0.6148681640625,0.8544921278953552,-0.2441406100988388,0.3662109076976776
432170,-0.0660400390625,-0.763427734375,-0.6160888671875,0.7934569716453552,-0.2441406100988388,0.3662109076976776
432193,-0.06640625,-0.763671875,-0.615234375,0.8544921278953552,-0.1831054538488388,0.3662109076976776
432209,-0.0665283203125,-0.76513671875,-0.6156005859375,0.8544921278953552,-0.1831054538488388,0.3662109076976776
432221,-0.0662841796875,-0.764892578125,-0.6158447265625,0.7324218153953552,-0.1831054538488388,0.30517578125
432240,-0.06640625,-0.7635498046875,-0.6151123046875,0.7324218153953552,-0.1831054538488388,0.30517578125
432260,-0.0670166015625,-0.7642822265625,-0.6163330078125,0.7934569716453552,-0.2441406100988388,0.3662109076976776
432278,-0.0667724609375,-0.76416015625,-0.6151123046875,0.7934569716453552,-0.2441406100988388,0.3662109076976776
432295,-0.0665283203125,-0.763916015625,-0.6153564453125,0.7934569716453552,-0.1831054538488388,0.3662109076976776
432315,-0.0655517578125,-0.7640380859375,-0.615234375,0.7934569716453552,-0.1831054538488388,0.3662109076976776
432335,-0.0665283203125,-0.763427734375,-0.615234375,0.7934569716453552,-0.1831054538488388,0.30517578125
432351,-0.0672607421875,-0.763427734375,-0.6163330078125,0.7934569716453552,-0.1831054538488388,0.3662109076976776
432366,-0.066650390625,-0.763671875,-0.6148681640625,0.7934569716453552,-0.1220703050494194,0.4272460639476776
432382,-0.0667724609375,-0.7647705078125,-0.6151123046875,0.7934569716453552,-0.1831054538488388,0.4272460639476776
432399,-0.0657958984375,-0.7657470703125,-0.61474609375,0.7324218153953552,-0.1831054538488388,0.3662109076976776
432416,-0.065673828125,-0.7647705078125,-0.6148681640625,0.7934569716453552,-0.1831054538488388,0.30517578125
432435,-0.06591796875,-0.76318359375,-0.615234375,0.7934569716453552,-0.1831054538488388,0.30517578125
432457,-0.0673828125,-0.7640380859375,-0.6151123046875,0.7934569716453552,-0.1831054538488388,0.4272460639476776
432473,-0.0667724609375,-0.764404296875,-0.616455078125,0.7934569716453552,-0.2441406100988388,0.4272460639476776
432490,-0.06640625,-0.764404296875,-0.61572265625,0.7934569716453552,-0.2441406100988388,0.4272460639476776
432508,-0.0667724609375,-0.763916015625,-0.616455078125,0.7324218153953552,-0.2441406100988388,0.3662109076976776
432526,-0.0670166015625,-0.764404296875,-0.616943359375,0.7934569716453552,-0.1831054538488388,0.3662109076976776
432543,-0.0655517578125,-0.763916015625,-0.61474609375,0.7934569716453552,-0.2441406100988388,0.3662109076976776
432568,-0.0660400390625,-0.7640380859375,-0.6162109375,0.7324218153953552,-0.2441406100988388,0.4272460639476776
432583,-0.06689453125,-0.7633056640625,-0.6163330078125,0.8544921278953552,-0.2441406100988388,0.4272460639476776
432600,-0.06591796875,-0.762939453125,-0.6146240234375,0.8544921278953552,-0.1831054538488388,0.4272460639476776
432618,-0.0660400390625,-0.7635498046875,-0.6146240234375,0.7934569716453552,-0.2441406100988388,0.4272460639476776
432638,-0.066650390625,-0.7637939453125,-0.6153564453125,0.7934569716453552,-0.1831054538488388,0.3662109076976776
432657,-0.0667724609375,-0.765380859375,-0.6158447265625,0.7934569716453552,-0.1831054538488388,0.30517578125
432680,-0.066162109375,-0.7642822265625,-0.6146240234375,0.8544921278953552,-0.1831054538488388,0.3662109076976776
432697,-0.065673828125,-0.764892578125,-0.6153564453125,0.8544921278953552,-0.1831054538488388,0.4272460639476776
432709,-0.0672607421875,-0.7659912109375,-0.6173095703125,0.8544921278953552,-0.1831054538488388,0.4272460639476776
432729,-0.067138671875,-0.7618408203125,-0.6141357421875,0.8544921278953552,-0.2441406100988388,0.3662109076976776
432746,-0.066650390625,-0.7625732421875,-0.61328125,0.8544921278953552,-0.2441406100988388,0.3662109076976776
432762,-0.0667724609375,-0.7666015625,-0.616943359375,0.8544921278953552,-0.1831054538488388,0.3662109076976776
432779,-0.06689453125,-0.76513671875,-0.616455078125,0.8544921278953552,-0.1831054538488388,0.3662109076976776
432798,-0.067138671875,-0.7633056640625,-0.614990234375,0.8544921278953552,-0.1831054538488388,0.3662109076976776
432814,-0.0670166015625,-0.76318359375,-0.61572265625,0.8544921278953552,-0.2441406100988388,0.4272460639476776
432831,-0.066650390625,-0.7647705078125,-0.6168212890625,0.8544921278953552,-0.2441406100988388,0.4882812201976776
432848,-0.06689453125,-0.76416015625,-0.61474609375,0.8544921278953552,-0.2441406100988388,0.4272460639476776
432864,-0.064697265625,-0.7620849609375,-0.6142578125,0.7934569716453552,-0.1831054538488388,0.30517578125
432884,-0.0660400390625,-0.7635498046875,-0.615966796875,0.8544921278953552,-0.1220703050494194,0.30517578125
432911,-0.0672607421875,-0.764404296875,-0.6160888671875,0.8544921278953552,-0.1220703050494194,0.30517578125
432923,-0.0672607421875,-0.7684326171875,-0.6182861328125,0.7934569716453552,-0.1831054538488388,0.3662109076976776
432940,-0.0687255859375,-0.7664794921875,-0.61767578125,0.7934569716453552,-0.1220703050494194,0.3662109076976776
432960,-0.0677490234375,-0.761474609375,-0.61328125,0.8544921278953552,-0.1831054538488388,0.4272460639476776
432979,-0.065673828125,-0.7615966796875,-0.6138916015625,0.6713866591453552,-0.2441406100988388,0.3662109076976776
432996,-0.0655517578125,-0.7618408203125,-0.6143798828125,0.7324218153953552,-0.1831054538488388,0.3662109076976776
433014,-0.0684814453125,-0.766357421875,-0.6156005859375,0.7934569716453552,-0.1831054538488388,0.3662109076976776
433035,-0.0662841796875,-0.7637939453125,-0.614990234375,0.7324218153953552,-0.1831054538488388,0.3662109076976776
433051,-0.0655517578125,-0.764892578125,-0.6165771484375,0.7324218153953552,-0.1831054538488388,0.3662109076976776
433064,-0.0654296875,-0.76513671875,-0.6151123046875,0.7324218153953552,-0.1831054538488388,0.3662109076976776
433081,-0.06689453125,-0.7646484375,-0.6143798828125,0.7324218153953552,-0.1831054538488388,0.3662109076976776
433097,-0.06689453125,-0.7652587890625,-0.6153564453125,0.7324218153953552,-0.1831054538488388,0.3662109076976776
433130,-0.066162109375,-0.7642822265625,-0.6146240234375,0.7324218153953552,-0.1831054538488388,0.30517578125
433178,-0.06591796875,-0.763427734375,-0.6142578125,0.7324218153953552,-0.1831054538488388,0.30517578125
433200,-0.0673828125,-0.7640380859375,-0.6170654296875,0.7324218153953552,-0.1831054538488388,0.30517578125
433217,-0.067626953125,-0.764404296875,-0.6177978515625,0.7324218153953552,-0.2441406100988388,0.3662109076976776
433254,-0.0665283203125,-0.76416015625,-0.6148681640625,0.7934569716453552,-0.2441406100988388,0.3662109076976776
433270,-0.0662841796875,-0.765869140625,-0.6165771484375,0.8544921278953552,-0.2441406100988388,0.4272460639476776
433287,-0.0660400390625,-0.7647705078125,-0.6158447265625,0.7934569716453552,-0.2441406100988388,0.3662109076976776
433303,-0.06689453125,-0.7623291015625,-0.6134033203125,0.7324218153953552,-0.2441406100988388,0.3662109076976776
433322,-0.0672607421875,-0.7637939453125,-0.6153564453125,0.7324218153953552,-0.1831054538488388,0.3662109076976776
433341,-0.0672607421875,-0.763671875,-0.6146240234375,0.7934569716453552,-0.1831054538488388,0.4272460639476776
433357,-0.0660400390625,-0.762939453125,-0.6126708984375,0.7934569716453552,-0.1831054538488388,0.4272460639476776
433376,-0.06689453125,-0.7647705078125,-0.615966796875,0.8544921278953552,-0.1831054538488388,0.3662109076976776
433393,-0.066650390625,-0.7667236328125,-0.6173095703125,0.8544921278953552,-0.1831054538488388,0.3662109076976776
433426,-0.065673828125,-0.7657470703125,-0.6153564453125,0.7934569716453552,-0.2441406100988388,0.4272460639476776
433442,-0.06640625,-0.765380859375,-0.615234375,0.8544921278953552,-0.2441406100988388,0.3662109076976776
433459,-0.066650390625,-0.7647705078125,-0.614990234375,0.8544921278953552,-0.2441406100988388,0.3662109076976776
433475,-0.06689453125,-0.76318359375,-0.6136474609375,0.8544921278953552,-0.2441406100988388,0.3662109076976776
433496,-0.0667724609375,-0.7652587890625,-0.61572265625,0.8544921278953552,-0.2441406100988388,0.3662109076976776
433513,-0.06689453125,-0.7635498046875,-0.6156005859375,0.9155272841453552,-0.1831054538488388,0.4272460639476776
433529,-0.067626953125,-0.7645263671875,-0.6168212890625,0.8544921278953552,-0.2441406100988388,0.3662109076976776
433546,-0.0667724609375,-0.7640380859375,-0.6142578125,0.8544921278953552,-0.2441406100988388,0.4272460639476776
433563,-0.0662841796875,-0.7640380859375,-0.614013671875,0.8544921278953552,-0.1831054538488388,0.4272460639476776
433580,-0.066162109375,-0.764404296875,-0.615478515625,0.8544921278953552,-0.1831054538488388,0.4272460639476776
433601,-0.0662841796875,-0.7640380859375,-0.61572265625,0.8544921278953552,-0.2441406100988388,0.4272460639476776
433617,-0.067138671875,-0.7645263671875,-0.6151123046875,0.7934569716453552,-0.1831054538488388,0.4882812201976776
433629,-0.0670166015625,-0.763427734375,-0.6142578125,0.7934569716453552,-0.1831054538488388,0.4882812201976776
433662,-0.0660400390625,-0.7645263671875,-0.615478515625,0.9155272841453552,-0.2441406100988388,0.3662109076976776
433681,-0.0667724609375,-0.764892578125,-0.6153564453125,0.9155272841453552,-0.1831054538488388,0.4272460639476776
433698,-0.0667724609375,-0.765869140625,-0.6158447265625,0.9155272841453552,-0.2441406100988388,0.4272460639476776
433730,-0.065185546875,-0.7647705078125,-0.6153564453125,0.8544921278953552,-0.2441406100988388,0.4272460639476776
433747,-0.0667724609375,-0.7667236328125,-0.6162109375,0.9155272841453552,-0.1831054538488388,0.3662109076976776
433766,-0.067626953125,-0.76513671875,-0.6163330078125,0.8544921278953552,-0.1831054538488388,0.4272460639476776
433782,-0.0665283203125,-0.76171875,-0.61328125,0.8544921278953552,-0.2441406100988388,0.4882812201976776
433799,-0.066650390625,-0.763427734375,-0.615234375,0.7934569716453552,-0.2441406100988388,0.3662109076976776
433815,-0.06591796875,-0.7645263671875,-0.615966796875,0.7934569716453552,-0.2441406100988388,0.3662109076976776
433846,-0.0672607421875,-0.76416015625,-0.615234375,0.8544921278953552,-0.1220703050494194,0.3662109076976776
433868,-0.0662841796875,-0.7645263671875,-0.617431640625,0.8544921278953552,-0.1831054538488388,0.3662109076976776
433884,-0.0672607421875,-0.767333984375,-0.6182861328125,0.8544921278953552,-0.1831054538488388,0.4272460639476776
433896,-0.0682373046875,-0.766845703125,-0.617919921875,0.7934569716453552,-0.1220703050494194,0.4272460639476776
433915,-0.0672607421875,-0.7608642578125,-0.6119384765625,0.7934569716453552,-0.1831054538488388,0.4272460639476776
433965,-0.0682373046875,-0.76416015625,-0.6142578125,0.7324218153953552,-0.1831054538488388,0.3662109076976776
433982,-0.0667724609375,-0.7647705078125,-0.6158447265625,0.7324218153953552,-0.1831054538488388,0.3662109076976776
434003,-0.064697265625,-0.7635498046875,-0.6146240234375,0.7934569716453552,-0.1831054538488388,0.3662109076976776
434019,-0.067138671875,-0.7635498046875,-0.614013671875,0.7324218153953552,-0.1220703050494194,0.4272460639476776
434038,-0.0677490234375,-0.7655029296875,-0.6151123046875,0.7934569716453552,-0.1220703050494194,0.3662109076976776
434055,-0.068359375,-0.763916015625,-0.614501953125,0.7934569716453552,-0.1831054538488388,0.4272460639476776
434086,-0.066650390625,-0.76318359375,-0.614990234375,0.7324218153953552,-0.1831054538488388,0.3662109076976776
434102,-0.0662841796875,-0.7662353515625,-0.6170654296875,0.7934569716453552,-0.1831054538488388,0.3662109076976776
434118,-0.0667724609375,-0.76611328125,-0.6168212890625,0.7934569716453552,-0.1831054538488388,0.3662109076976776
434156,-0.067138671875,-0.7637939453125,-0.614501953125,0.7934569716453552,-0.1831054538488388,0.3662109076976776
434172,-0.067626953125,-0.765625,-0.61572265625,0.8544921278953552,-0.1831054538488388,0.3662109076976776
434189,-0.0670166015625,-0.7655029296875,-0.6165771484375,0.8544921278953552,-0.1220703050494194,0.3662109076976776
434206,-0.0665283203125,-0.7640380859375,-0.614990234375,0.8544921278953552,-0.1831054538488388,0.3662109076976776
434222,-0.06689453125,-0.7633056640625,-0.614501953125,0.8544921278953552,-0.1831054538488388,0.3662109076976776
434239,-0.0662841796875,-0.7640380859375,-0.614013671875,0.7934569716453552,-0.1831054538488388,0.30517578125
434276,-0.0672607421875,-0.7637939453125,-0.615478515625,0.7934569716453552,-0.2441406100988388,0.30517578125
434297,-0.0662841796875,-0.7659912109375,-0.6170654296875,0.7934569716453552,-0.1831054538488388,0.30517578125
434313,-0.0662841796875,-0.7659912109375,-0.6163330078125,0.7934569716453552,-0.1220703050494194,0.4272460639476776
434329,-0.066650390625,-0.7637939453125,-0.6153564453125,0.7934569716453552,-0.1831054538488388,0.3662109076976776
434345,-0.065673828125,-0.7646484375,-0.6168212890625,0.8544921278953552,-0.1831054538488388,0.3662109076976776
434362,-0.0654296875,-0.764892578125,-0.616943359375,0.8544921278953552,-0.1831054538488388,0.3662109076976776
434379,-0.066650390625,-0.7645263671875,-0.6168212890625,0.7934569716453552,-0.1831054538488388,0.3662109076976776
434397,-0.06689453125,-0.7625732421875,-0.61376953125,0.8544921278953552,-0.2441406100988388,0.3662109076976776
434417,-0.066650390625,-0.7628173828125,-0.61474609375,0.7934569716453552,-0.1831054538488388,0.3662109076976776
434433,-0.0657958984375,-0.760986328125,-0.613525390625,0.7934569716453552,-0.1220703050494194,0.30517578125
434449,-0.0660400390625,-0.7642822265625,-0.615234375,0.8544921278953552,-0.1831054538488388,0.4272460639476776
434465,-0.0684814453125,-0.7669677734375,-0.6165771484375,0.7934569716453552,-0.2441406100988388,0.3662109076976776
434482,-0.06787109375,-0.762939453125,-0.61328125,0.7934569716453552,-0.2441406100988388,0.3662109076976776
434499,-0.06591796875,-0.7652587890625,-0.6158447265625,0.7934569716453552,-0.2441406100988388,0.30517578125
434519,-0.0662841796875,-0.7647705078125,-0.615966796875,0.8544921278953552,-0.1831054538488388,0.4272460639476776
434536,-0.06640625,-0.7633056640625,-0.6141357421875,0.8544921278953552,-0.1831054538488388,0.3662109076976776
434556,-0.0660400390625,-0.763671875,-0.6143798828125,0.8544921278953552,-0.2441406100988388,0.3662109076976776
434607,-0.06689453125,-0.76416015625,-0.6151123046875,0.7934569716453552,-0.2441406100988388,0.3662109076976776
434641,-0.065185546875,-0.7623291015625,-0.6143798828125,0.8544921278953552,-0.1831054538488388,0.3662109076976776
434670,-0.0677490234375,-0.7696533203125,-0.6202392578125,0.8544921278953552,-0.2441406100988388,0.3662109076976776
434704,-0.0653076171875,-0.7606201171875,-0.61279296875,0.7934569716453552,-0.1831054538488388,0.3662109076976776
434716,-0.0654296875,-0.7677001953125,-0.6173095703125,0.7934569716453552,-0.1831054538488388,0.3662109076976776
434749,-0.0665283203125,-0.75341796875,-0.6075439453125,0.8544921278953552,-0.2441406100988388,0.3662109076976776
434765,-0.0673828125,-0.770263671875,-0.6217041015625,0.9155272841453552,-0.30517578125,0.3662109076976776
434782,-0.0665283203125,-0.772216796875,-0.6226806640625,0.8544921278953552,-0.1831054538488388,0.3662109076976776
434799,-0.0673828125,-0.76416015625,-0.6168212890625,0.7934569716453552,-0.1220703050494194,0.4272460639476776
434824,-0.066162109375,-0.756103515625,-0.6082763671875,0.7324218153953552,-0.2441406100988388,0.3662109076976776
434840,-0.0657958984375,-0.761474609375,-0.6102294921875,0.7324218153953552,-0.2441406100988388,0.3662109076976776
434852,-0.067138671875,-0.7733154296875,-0.6220703125,0.7934569716453552,-0.2441406100988388,0.4882812201976776
434869,-0.066650390625,-0.768798828125,-0.620361328125,0.8544921278953552,-0.2441406100988388,0.4882812201976776
434885,-0.0670166015625,-0.7630615234375,-0.61572265625,0.7324218153953552,-0.1831054538488388,0.3662109076976776
434902,-0.06689453125,-0.76806640625,-0.61962890625,0.7324218153953552,-0.2441406100988388,0.4272460639476776
434919,-0.06640625,-0.764404296875,-0.61572265625,0.7934569716453552,-0.1831054538488388,0.3662109076976776
434938,-0.0660400390625,-0.760009765625,-0.6104736328125,0.7934569716453552,-0.1220703050494194,0.30517578125
434959,-0.06591796875,-0.765869140625,-0.616943359375,0.7934569716453552,-0.1220703050494194,0.3662109076976776
434976,-0.06689453125,-0.763916015625,-0.6165771484375,0.8544921278953552,-0.1831054538488388,0.3662109076976776
434995,-0.06689453125,-0.76416015625,-0.615966796875,0.7934569716453552,-0.1220703050494194,0.4272460639476776
435012,-0.0653076171875,-0.765380859375,-0.6158447265625,0.7934569716453552,-0.1220703050494194,0.30517578125
435045,-0.068359375,-0.7637939453125,-0.615234375,0.7934569716453552,-0.1831054538488388,0.3662109076976776
435099,-0.067138671875,-0.764892578125,-0.6151123046875,0.7934569716453552,-0.1831054538488388,0.3662109076976776
435117,-0.066650390625,-0.765869140625,-0.614990234375,0.7934569716453552,-0.2441406100988388,0.3662109076976776
435134,-0.0662841796875,-0.765380859375,-0.616943359375,0.8544921278953552,-0.2441406100988388,0.3662109076976776
435166,-0.0670166015625,-0.763427734375,-0.6146240234375,0.7934569716453552,-0.1831054538488388,0.3662109076976776
435182,-0.06689453125,-0.7647705078125,-0.6153564453125,0.7324218153953552,-0.1831054538488388,0.3662109076976776
435199,-0.065673828125,-0.76611328125,-0.616943359375,0.7934569716453552,-0.1831054538488388,0.3662109076976776
435220,-0.0657958984375,-0.764404296875,-0.6163330078125,0.7934569716453552,-0.1831054538488388,0.4272460639476776
435239,-0.0670166015625,-0.7642822265625,-0.6162109375,0.7934569716453552,-0.1831054538488388,0.4272460639476776
435255,-0.06640625,-0.7613525390625,-0.6142578125,0.7934569716453552,-0.1831054538488388,0.4272460639476776
435288,-0.06787109375,-0.763916015625,-0.6138916015625,0.8544921278953552,-0.1831054538488388,0.3662109076976776
435305,-0.068115234375,-0.763916015625,-0.61474609375,0.9155272841453552,-0.2441406100988388,0.3662109076976776
435322,-0.066162109375,-0.7630615234375,-0.6163330078125,0.9155272841453552,-0.1831054538488388,0.4272460639476776
435338,-0.0670166015625,-0.7630615234375,-0.61572265625,0.8544921278953552,-0.1831054538488388,0.3662109076976776
435359,-0.068359375,-0.765625,-0.616943359375,0.8544921278953552,-0.1831054538488388,0.3662109076976776
435380,-0.06640625,-0.762939453125,-0.61376953125,0.9155272841453552,-0.1831054538488388,0.3662109076976776
435397,-0.0665283203125,-0.761474609375,-0.6129150390625,0.8544921278953552,-0.2441406100988388,0.3662109076976776
435415,-0.0673828125,-0.76611328125,-0.6163330078125,0.7934569716453552,-0.2441406100988388,0.30517578125
435432,-0.06787109375,-0.7640380859375,-0.615478515625,0.8544921278953552,-0.2441406100988388,0.3662109076976776
435464,-0.06591796875,-0.7637939453125,-0.6143798828125,0.9155272841453552,-0.1220703050494194,0.4272460639476776
435482,-0.0673828125,-0.7635498046875,-0.6163330078125,0.8544921278953552,-0.1831054538488388,0.3662109076976776
435498,-0.06689453125,-0.7645263671875,-0.6171875,0.8544921278953552,-0.1831054538488388,0.3662109076976776
435515,-0.06591796875,-0.76318359375,-0.616943359375,0.9155272841453552,-0.1220703050494194,0.3662109076976776
435583,-0.06591796875,-0.7637939453125,-0.614013671875,1.15966796875,-0.2441406100988388,0.30517578125
435602,-0.0667724609375,-0.7650146484375,-0.6160888671875,1.220703125,-0.2441406100988388,0.3662109076976776
435651,-0.0657958984375,-0.7650146484375,-0.614990234375,1.5869139432907104,-0.2441406100988388,0.3662109076976776
435720,-0.066162109375,-0.7626953125,-0.61669921875,1.9531248807907104,-0.30517578125,0.3662109076976776
435737,-0.06640625,-0.7598876953125,-0.6163330078125,2.0751953125,-0.3662109076976776,0.4272460639476776
435770,-0.06201171875,-0.752685546875,-0.6033935546875,2.868652105331421,-1.0986328125,1.8920897245407104
435787,-0.05859375,-0.7630615234375,-0.5992431640625,3.601073980331421,-1.8920897245407104,2.868652105331421
435803,-0.0584716796875,-0.8067626953125,-0.609130859375,6.286620616912842,-4.21142578125,5.310058116912842
435819,-0.0111083984375,-0.917724609375,-0.6571044921875,8.23974609375,-5.371093273162842,6.591796398162842
435840,-0.067626953125,-1.142578125,-0.78369140625,15.136717796325684,-5.737304210662842,8.72802734375
435894,-0.0986328125,-1.34423828125,-1.0572509765625,25.756834030151367,0.1220703050494194,-2.868652105331421
435910,-0.0889892578125,-1.2763671875,-1.048583984375,27.221677780151367,1.15966796875,-3.417968511581421
435927,-0.0863037109375,-1.2286376953125,-1.00537109375,25.817869186401367,2.3193359375,-3.784179449081421
435944,-0.09814453125,-1.165771484375,-0.9521484375,23.376462936401367,2.624511480331421,-4.0283203125
435963,-0.112060546875,-1.12109375,-0.9150390625,19.47021484375,2.563476324081421,-3.906249761581421
435984,-0.1251220703125,-1.0863037109375,-0.922607421875,17.333984375,2.50244140625,-3.845214605331421
436000,-0.120361328125,-1.0577392578125,-0.941650390625,12.451170921325684,2.50244140625,-3.417968511581421
436018,-0.12060546875,-1.0579833984375,-0.9659423828125,8.11767578125,2.50244140625,-2.807616949081421
436035,-0.11767578125,-1.0518798828125,-0.9915771484375,3.417968511581421,3.051757574081421,-2.868652105331421
436055,-0.118896484375,-1.0023193359375,-0.95654296875,-0.9765624403953552,3.784179449081421,-2.685546636581421
436076,-0.1180419921875,-0.936279296875,-0.8857421875,-5.615233898162842,3.356933355331421,-1.8310545682907104
436092,-0.119140625,-0.9132080078125,-0.8614501953125,-10.498045921325684,2.868652105331421,-0.9765624403953552
436125,-0.115478515625,-0.8687744140625,-0.841064453125,-16.9677734375,2.746581792831421,-0.1831054538488388
436147,-0.113037109375,-0.8302001953125,-0.8114013671875,-20.751951217651367,2.50244140625,0.6713866591453552
436163,-0.1087646484375,-0.801513671875,-0.7757568359375,-22.460935592651367,2.50244140625,0.9155272841453552
436180,-0.1005859375,-0.765625,-0.7291259765625,-26.062009811401367,2.807616949081421,1.15966796875
436199,-0.087646484375,-0.6981201171875,-0.65380859375,-29.479978561401367,2.3193359375,1.8920897245407104
436216,-0.08154296875,-0.652587890625,-0.59765625,-32.5927734375,2.0751953125,2.50244140625
436249,-0.0731201171875,-0.60107421875,-0.5394287109375,-35.33935546875,2.197265625,2.807616949081421
436265,-0.0645751953125,-0.5733642578125,-0.494873046875,-36.0107421875,2.38037109375,2.746581792831421
436282,-0.0582275390625,-0.5408935546875,-0.446533203125,-36.19384765625,2.868652105331421,2.13623046875
436299,-0.052734375,-0.507568359375,-0.409912109375,-36.19384765625,3.051757574081421,1.8920897245407104
436359,-0.03515625,-0.37060546875,-0.2586669921875,-35.70556640625,2.990722417831421,1.4038084745407104
436382,-0.03076171875,-0.3341064453125,-0.2193603515625,-35.15625,3.173827886581421,0.9765624403953552
436394,-0.027587890625,-0.31982421875,-0.20361328125,-34.423828125,3.173827886581421,0.54931640625
436427,-0.021484375,-0.283935546875,-0.170654296875,-33.3251953125,2.807616949081421,0.6103515625
436443,-0.01953125,-0.2945556640625,-0.173828125,-32.3486328125,2.44140625,0.9765624403953552
436459,-0.0206298828125,-0.3121337890625,-0.1793212890625,-31.738279342651367,2.25830078125,1.15966796875
436501,-0.0323486328125,-0.450439453125,-0.2498779296875,-27.770994186401367,1.5258787870407104,1.8920897245407104
436517,-0.040283203125,-0.5389404296875,-0.2921142578125,-25.024412155151367,1.4648436307907104,1.8310545682907104
436529,-0.048828125,-0.6318359375,-0.33544921875,-23.559568405151367,1.2817381620407104,1.8920897245407104
436544,-0.05322265625,-0.67138671875,-0.35205078125,-21.972654342651367,1.0986328125,1.8310545682907104
436561,-0.06396484375,-0.768798828125,-0.40185546875,-18.5546875,0.6103515625,1.8920897245407104
436578,-0.0667724609375,-0.8094482421875,-0.42529296875,-15.319823265075684,0.4882812201976776,1.3427733182907104
436611,-0.067138671875,-0.8701171875,-0.4722900390625,-10.498045921325684,0.0,0.6713866591453552
436632,-0.0679931640625,-0.8765869140625,-0.499755859375,-7.873534679412842,-0.1831054538488388,0.1220703050494194
436648,-0.0755615234375,-0.8458251953125,-0.5150146484375,-5.981444835662842,-0.30517578125,-0.1831054538488388
436664,-0.0760498046875,-0.8076171875,-0.521240234375,-5.371093273162842,-0.54931640625,-0.30517578125
436680,-0.074951171875,-0.7935791015625,-0.5277099609375,-4.45556640625,-0.8544921278953552,-0.2441406100988388
436696,-0.0712890625,-0.755615234375,-0.5169677734375,-3.967284917831421,-0.9155272841453552,-0.2441406100988388
436729,-0.068115234375,-0.7630615234375,-0.488525390625,-2.624511480331421,-1.3427733182907104,0.1831054538488388
436745,-0.0692138671875,-0.779296875,-0.46044921875,-1.15966796875,-1.6479490995407104,0.1831054538488388
436761,-0.069580078125,-0.7947998046875,-0.43603515625,-0.3662109076976776,-1.8310545682907104,0.1831054538488388
436778,-0.0709228515625,-0.80810546875,-0.43359375,1.3427733182907104,-2.25830078125,0.1831054538488388
436802,-0.070068359375,-0.8238525390625,-0.42626953125,2.929687261581421,-2.44140625,0.2441406100988388
436819,-0.0692138671875,-0.8460693359375,-0.4295654296875,4.69970703125,-2.44140625,0.30517578125
436836,-0.0701904296875,-0.8720703125,-0.4346923828125,5.615233898162842,-2.50244140625,0.30517578125
436856,-0.074462890625,-0.8880615234375,-0.432861328125,7.812499523162842,-2.624511480331421,0.1831054538488388
436873,-0.0771484375,-0.898681640625,-0.442626953125,11.047362327575684,-2.685546636581421,0.0
436890,-0.0767822265625,-0.9046630859375,-0.448486328125,12.084959983825684,-2.624511480331421,-0.0610351525247097
436907,-0.0777587890625,-0.8984375,-0.4559326171875,13.854979515075684,-2.38037109375,-0.1831054538488388
436923,-0.078369140625,-0.8948974609375,-0.46337890625,14.587401390075684,-2.38037109375,-0.2441406100988388
436940,-0.079345703125,-0.8902587890625,-0.4676513671875,16.17431640625,-2.25830078125,-0.4882812201976776
436957,-0.081298828125,-0.8741455078125,-0.4674072265625,16.78466796875,-2.13623046875,-0.54931640625
436976,-0.0860595703125,-0.8638916015625,-0.4757080078125,17.822265625,-2.0751953125,-0.4272460639476776
436992,-0.0850830078125,-0.8564453125,-0.4925537109375,17.9443359375,-2.01416015625,-0.54931640625
437009,-0.0836181640625,-0.84033203125,-0.4979248046875,18.06640625,-1.7089842557907104,-0.7934569716453552
437025,-0.0858154296875,-0.8206787109375,-0.501708984375,17.88330078125,-1.5869139432907104,-0.4882812201976776
437047,-0.087890625,-0.825927734375,-0.509521484375,17.76123046875,-1.5258787870407104,-0.4882812201976776
437063,-0.0841064453125,-0.819580078125,-0.5157470703125,17.27294921875,-1.4038084745407104,-0.6713866591453552
437078,-0.0826416015625,-0.8114013671875,-0.5186767578125,16.41845703125,-1.2817381620407104,-0.7934569716453552
437098,-0.078857421875,-0.7969970703125,-0.52734375,15.930174827575684,-1.2817381620407104,-0.6713866591453552
437114,-0.077880859375,-0.8043212890625,-0.5426025390625,14.343260765075684,-1.0986328125,-0.2441406100988388
437147,-0.0765380859375,-0.817626953125,-0.543212890625,12.756346702575684,-0.7934569716453552,-0.3662109076976776
437167,-0.076171875,-0.8070068359375,-0.5386962890625,12.207030296325684,-0.7324218153953552,-0.3662109076976776
437184,-0.0745849609375,-0.8026123046875,-0.5423583984375,11.047362327575684,-0.6103515625,-0.2441406100988388
437201,-0.072998046875,-0.8017578125,-0.545166015625,9.94873046875,-0.3662109076976776,-0.1220703050494194
437220,-0.07177734375,-0.797119140625,-0.547607421875,8.85009765625,-0.1220703050494194,0.0
437236,-0.072021484375,-0.7904052734375,-0.542236328125,7.995604991912842,0.0,0.1831054538488388
437269,-0.0748291015625,-0.78564453125,-0.537841796875,6.958007335662842,0.1220703050494194,0.54931640625
437286,-0.07421875,-0.7779541015625,-0.536865234375,6.469726085662842,0.2441406100988388,0.6103515625
437307,-0.0738525390625,-0.7698974609375,-0.5352783203125,6.225585460662842,0.30517578125,0.6713866591453552
437323,-0.073974609375,-0.7548828125,-0.5330810546875,5.859374523162842,0.3662109076976776,0.9155272841453552
437340,-0.071044921875,-0.744140625,-0.531494140625,5.493163585662842,0.4272460639476776,0.8544921278953552
437357,-0.0640869140625,-0.728271484375,-0.5169677734375,5.310058116912842,0.4272460639476776,0.7934569716453552
437394,-0.0635986328125,-0.689208984375,-0.496826171875,4.150390625,0.4272460639476776,0.6103515625
437443,-0.066650390625,-0.676025390625,-0.485595703125,2.685546636581421,0.1831054538488388,0.7324218153953552
437462,-0.066650390625,-0.6837158203125,-0.487060546875,2.197265625,0.1831054538488388,0.4272460639476776
437474,-0.0672607421875,-0.671630859375,-0.4827880859375,1.8920897245407104,0.1831054538488388,0.3662109076976776
437506,-0.0693359375,-0.676513671875,-0.483154296875,1.03759765625,0.1831054538488388,0.4272460639476776
437521,-0.070068359375,-0.685302734375,-0.4876708984375,0.7934569716453552,0.2441406100988388,0.3662109076976776
437542,-0.07177734375,-0.693359375,-0.496826171875,0.6103515625,0.4882812201976776,0.0
437557,-0.0684814453125,-0.671142578125,-0.474853515625,0.54931640625,0.7324218153953552,-0.1831054538488388
437572,-0.06640625,-0.6558837890625,-0.4625244140625,0.30517578125,0.8544921278953552,0.0
437620,-0.071533203125,-0.71630859375,-0.4957275390625,-0.0610351525247097,0.7324218153953552,0.2441406100988388
437640,-0.079345703125,-0.7398681640625,-0.5205078125,0.1831054538488388,0.9155272841453552,0.0610351525247097
437652,-0.083251953125,-0.7314453125,-0.5086669921875,0.9155272841453552,1.4648436307907104,-0.54931640625
437685,-0.0733642578125,-0.651123046875,-0.4471435546875,0.9765624403953552,1.7089842557907104,-0.7324218153953552
437702,-0.0728759765625,-0.653564453125,-0.454833984375,0.2441406100988388,1.15966796875,0.2441406100988388
437718,-0.0787353515625,-0.7109375,-0.4967041015625,-0.2441406100988388,1.0986328125,0.4882812201976776
437748,-0.0755615234375,-0.72412109375,-0.4927978515625,-0.1831054538488388,1.8310545682907104,-0.3662109076976776
437769,-0.067138671875,-0.6783447265625,-0.4437255859375,-0.1831054538488388,1.8920897245407104,-0.4272460639476776
437803,-0.0689697265625,-0.6895751953125,-0.451416015625,-1.0986328125,0.7324218153953552,1.3427733182907104
437819,-0.076416015625,-0.7529296875,-0.503173828125,-1.220703125,0.6713866591453552,1.5258787870407104
437836,-0.0828857421875,-0.8092041015625,-0.533935546875,-0.1220703050494194,0.8544921278953552,1.4038084745407104
437868,-0.084228515625,-0.7586669921875,-0.478759765625,1.4648436307907104,0.9155272841453552,0.6713866591453552
437889,-0.0828857421875,-0.735107421875,-0.46240234375,1.6479490995407104,0.4272460639476776,1.220703125
437905,-0.086181640625,-0.764892578125,-0.4833984375,1.8920897245407104,-0.30517578125,2.38037109375
437922,-0.0875244140625,-0.8543701171875,-0.536865234375,2.624511480331421,-0.2441406100988388,2.25830078125
437939,-0.0826416015625,-0.9068603515625,-0.5628662109375,3.295898199081421,-0.2441406100988388,1.8310545682907104
437955,-0.0738525390625,-0.8359375,-0.5118408203125,4.82177734375,0.2441406100988388,0.54931640625
437989,-0.0758056640625,-0.771484375,-0.4735107421875,6.225585460662842,-1.03759765625,2.0751953125
438042,-0.0863037109375,-0.9425048828125,-0.5682373046875,7.812499523162842,-1.4648436307907104,1.8310545682907104
438118,-0.0740966796875,-0.8929443359375,-0.568115234375,10.131834983825684,-1.5869139432907104,1.03759765625
438135,-0.077880859375,-0.9073486328125,-0.578857421875,10.375975608825684,-1.7700194120407104,0.8544921278953552
438168,-0.0897216796875,-0.924560546875,-0.6256103515625,11.108397483825684,-1.5869139432907104,0.3662109076976776
438185,-0.09033203125,-0.9337158203125,-0.6365966796875,11.291502952575684,-1.2817381620407104,0.1220703050494194
438202,-0.0830078125,-0.91357421875,-0.6162109375,11.169432640075684,-1.0986328125,-0.3662109076976776
438218,-0.0784912109375,-0.8792724609375,-0.59716796875,10.620116233825684,-1.15966796875,-0.4882812201976776
438243,-0.0819091796875,-0.845458984375,-0.5909423828125,9.521484375,-1.5258787870407104,0.0
438259,-0.087158203125,-0.8604736328125,-0.60986328125,8.7890625,-1.5869139432907104,0.1220703050494194
438276,-0.08984375,-0.8687744140625,-0.6280517578125,7.507323741912842,-1.6479490995407104,0.1831054538488388
438294,-0.0914306640625,-0.8988037109375,-0.6419677734375,6.652831554412842,-1.15966796875,-0.30517578125
438311,-0.091796875,-0.871337890625,-0.627685546875,5.798339366912842,-1.0986328125,-0.6103515625
438344,-0.0908203125,-0.8592529296875,-0.6273193359375,4.150390625,-1.6479490995407104,-0.2441406100988388
438362,-0.09375,-0.9033203125,-0.6539306640625,2.990722417831421,-1.5869139432907104,-0.3662109076976776
438378,-0.093505859375,-0.9227294921875,-0.6717529296875,2.50244140625,-1.4648436307907104,-0.54931640625
438395,-0.0933837890625,-0.927734375,-0.66845703125,1.8310545682907104,-1.15966796875,-1.15966796875
438415,-0.09326171875,-0.8828125,-0.638671875,1.4038084745407104,-1.15966796875,-1.220703125
438432,-0.0966796875,-0.8802490234375,-0.625,0.6713866591453552,-1.5258787870407104,-0.9155272841453552
438448,-0.0960693359375,-0.8702392578125,-0.6221923828125,-0.2441406100988388,-1.5869139432907104,-0.9155272841453552
438464,-0.09423828125,-0.8662109375,-0.6181640625,-0.7934569716453552,-1.5869139432907104,-0.9765624403953552
438486,-0.089111328125,-0.840576171875,-0.5975341796875,-1.4038084745407104,-1.7700194120407104,-0.7324218153953552
438502,-0.0875244140625,-0.8291015625,-0.58544921875,-1.6479490995407104,-2.0751953125,-0.54931640625
438518,-0.09375,-0.8282470703125,-0.5880126953125,-2.13623046875,-2.50244140625,-0.1220703050494194
438538,-0.0941162109375,-0.82568359375,-0.5887451171875,-2.44140625,-2.929687261581421,0.3662109076976776
438555,-0.09033203125,-0.853759765625,-0.6170654296875,-2.624511480331421,-3.051757574081421,0.6713866591453552
438587,-0.076171875,-0.8095703125,-0.576904296875,-2.624511480331421,-3.051757574081421,0.6103515625
438609,-0.075439453125,-0.8087158203125,-0.5799560546875,-2.685546636581421,-3.540038824081421,1.4038084745407104
438625,-0.077880859375,-0.84375,-0.6068115234375,-2.685546636581421,-3.479003667831421,1.4038084745407104
438642,-0.0771484375,-0.85205078125,-0.6181640625,-2.624511480331421,-3.479003667831421,1.15966796875
438659,-0.0732421875,-0.841552734375,-0.6094970703125,-2.50244140625,-3.173827886581421,0.9155272841453552
438675,-0.072265625,-0.82763671875,-0.60546875,-2.3193359375,-3.295898199081421,0.9765624403953552
438709,-0.0716552734375,-0.8333740234375,-0.6165771484375,-1.7089842557907104,-3.112792730331421,0.7324218153953552
438725,-0.0701904296875,-0.838134765625,-0.6153564453125,-1.6479490995407104,-3.051757574081421,0.7934569716453552
438746,-0.0704345703125,-0.851318359375,-0.633056640625,-1.4648436307907104,-2.807616949081421,0.4882812201976776
438762,-0.067138671875,-0.8433837890625,-0.616455078125,-1.3427733182907104,-2.563476324081421,0.1831054538488388
438779,-0.06640625,-0.830810546875,-0.6126708984375,-1.2817381620407104,-2.50244140625,0.1220703050494194
438795,-0.066650390625,-0.84619140625,-0.6171875,-1.220703125,-2.624511480331421,0.3662109076976776
438827,-0.0634765625,-0.8675537109375,-0.637939453125,-1.220703125,-1.8310545682907104,-0.54931640625
438844,-0.058837890625,-0.8546142578125,-0.6309814453125,-1.2817381620407104,-1.5258787870407104,-0.7324218153953552
438860,-0.0589599609375,-0.853515625,-0.6239013671875,-1.2817381620407104,-1.5258787870407104,-0.8544921278953552
438902,-0.0609130859375,-0.866455078125,-0.6461181640625,-1.5869139432907104,-0.7934569716453552,-1.6479490995407104
438917,-0.055908203125,-0.8431396484375,-0.634521484375,-1.7700194120407104,-0.3662109076976776,-1.7089842557907104
438934,-0.0562744140625,-0.829833984375,-0.6221923828125,-1.8920897245407104,-0.2441406100988388,-1.7700194120407104
438952,-0.06005859375,-0.8304443359375,-0.6134033203125,-1.8920897245407104,-0.0610351525247097,-1.7700194120407104
438968,-0.0782470703125,-0.7998046875,-0.5985107421875,-2.01416015625,0.0610351525247097,-1.9531248807907104
438985,-0.1015625,-0.7618408203125,-0.5689697265625,-2.3193359375,-0.54931640625,-0.6713866591453552
439002,-0.1134033203125,-0.722412109375,-0.5244140625,-3.662109136581421,-2.44140625,2.3193359375
439023,-0.063232421875,-0.729736328125,-0.522216796875,-4.7607421875,-3.540038824081421,3.967284917831421
439039,-0.06201171875,-0.7674560546875,-0.546142578125,-4.8828125,-3.479003667831421,3.784179449081421
439056,-0.067626953125,-0.7669677734375,-0.5565185546875,-5.249022960662842,-3.234863042831421,3.295898199081421
439075,-0.0633544921875,-0.765380859375,-0.5499267578125,-5.0048828125,-3.173827886581421,3.479003667831421
439092,-0.061767578125,-0.7626953125,-0.5562744140625,-4.7607421875,-3.173827886581421,3.784179449081421
439108,-0.058837890625,-0.768310546875,-0.544921875,-4.45556640625,-3.234863042831421,3.723144292831421
439125,-0.0614013671875,-0.763671875,-0.550048828125,-4.0283203125,-3.417968511581421,3.906249761581421
439142,-0.064697265625,-0.81396484375,-0.5819091796875,-2.929687261581421,-3.234863042831421,3.417968511581421
439163,-0.09423828125,-1.1776123046875,-0.8604736328125,-1.8920897245407104,-1.7700194120407104,1.5258787870407104
439179,-0.066650390625,-1.23095703125,-0.857421875,-3.845214605331421,2.807616949081421,-4.638671875
439198,-0.0389404296875,-0.51806640625,-0.3450927734375,-3.540038824081421,1.9531248807907104,-3.540038824081421
439215,-0.0662841796875,-0.57177734375,-0.404541015625,-4.39453125,0.9155272841453552,-2.13623046875
439244,-0.0946044921875,-1.142333984375,-0.830078125,-6.469726085662842,0.0610351525247097,1.4038084745407104
439314,-0.0887451171875,-0.99267578125,-0.652099609375,-3.845214605331421,0.2441406100988388,-0.1831054538488388
439330,-0.058837890625,-0.7320556640625,-0.5062255859375,-3.662109136581421,0.6713866591453552,-0.8544921278953552
439347,-0.0723876953125,-0.815185546875,-0.5570068359375,-3.601073980331421,0.30517578125,0.4272460639476776
439364,-0.0606689453125,-0.8548583984375,-0.555908203125,-3.845214605331421,0.54931640625,0.2441406100988388
439380,-0.0518798828125,-0.7852783203125,-0.493896484375,-3.295898199081421,0.6103515625,-0.1220703050494194
439397,-0.0693359375,-0.837646484375,-0.5338134765625,-2.13623046875,0.0610351525247097,-0.0610351525247097
439427,-0.06201171875,-0.802001953125,-0.5267333984375,-1.4038084745407104,0.1831054538488388,0.0
439448,-0.06201171875,-0.823486328125,-0.5299072265625,-0.4272460639476776,0.1831054538488388,0.2441406100988388
439460,-0.062744140625,-0.840576171875,-0.524658203125,0.1220703050494194,0.1220703050494194,0.2441406100988388
439477,-0.06298828125,-0.8265380859375,-0.51611328125,1.5869139432907104,-0.0610351525247097,0.1220703050494194
439497,-0.068359375,-0.83056640625,-0.5277099609375,2.990722417831421,-0.30517578125,0.0610351525247097
439514,-0.0672607421875,-0.8182373046875,-0.5364990234375,3.784179449081421,-0.2441406100988388,0.0610351525247097
439530,-0.064697265625,-0.819580078125,-0.5386962890625,4.0283203125,-0.1831054538488388,0.0
439547,-0.0625,-0.8218994140625,-0.5389404296875,4.45556640625,-0.2441406100988388,0.0610351525247097
439563,-0.064453125,-0.8209228515625,-0.5364990234375,4.69970703125,-0.2441406100988388,0.1220703050494194
439579,-0.0653076171875,-0.8173828125,-0.53759765625,4.82177734375,-0.30517578125,0.1220703050494194
439616,-0.0634765625,-0.81787109375,-0.5496826171875,4.69970703125,-0.30517578125,0.1220703050494194
439632,-0.0638427734375,-0.814697265625,-0.5435791015625,4.638671875,-0.30517578125,0.2441406100988388
439649,-0.0655517578125,-0.8172607421875,-0.544921875,4.57763671875,-0.3662109076976776,0.1831054538488388
439663,-0.06640625,-0.815185546875,-0.5460205078125,4.57763671875,-0.3662109076976776,0.1220703050494194
439680,-0.0655517578125,-0.813232421875,-0.5484619140625,4.57763671875,-0.3662109076976776,0.1831054538488388
439730,-0.064697265625,-0.8160400390625,-0.5506591796875,4.33349609375,-0.30517578125,0.1831054538488388
439746,-0.0645751953125,-0.8125,-0.5496826171875,4.33349609375,-0.30517578125,0.1831054538488388
439758,-0.065673828125,-0.8096923828125,-0.552734375,4.2724609375,-0.3662109076976776,0.1831054538488388
439775,-0.065185546875,-0.8104248046875,-0.5550537109375,4.21142578125,-0.4272460639476776,0.1831054538488388
439794,-0.06494140625,-0.813232421875,-0.55712890625,4.150390625,-0.3662109076976776,0.30517578125
439811,-0.06494140625,-0.8106689453125,-0.55517578125,3.967284917831421,-0.3662109076976776,0.30517578125
439828,-0.06494140625,-0.8082275390625,-0.552734375,3.906249761581421,-0.30517578125,0.30517578125
439844,-0.0648193359375,-0.812744140625,-0.55908203125,3.784179449081421,-0.3662109076976776,0.2441406100988388
439861,-0.064453125,-0.80810546875,-0.55810546875,3.723144292831421,-0.3662109076976776,0.2441406100988388
439882,-0.0657958984375,-0.8095703125,-0.560302734375,3.540038824081421,-0.3662109076976776,0.30517578125
439898,-0.0643310546875,-0.8056640625,-0.55810546875,3.356933355331421,-0.30517578125,0.30517578125
439917,-0.064697265625,-0.80810546875,-0.5621337890625,3.234863042831421,-0.3662109076976776,0.30517578125
439934,-0.06494140625,-0.8057861328125,-0.5623779296875,2.929687261581421,-0.3662109076976776,0.30517578125
439967,-0.0653076171875,-0.8055419921875,-0.563720703125,2.3193359375,-0.30517578125,0.3662109076976776
439984,-0.0654296875,-0.8055419921875,-0.563720703125,2.01416015625,-0.30517578125,0.30517578125
440001,-0.0655517578125,-0.80712890625,-0.564697265625,1.8310545682907104,-0.30517578125,0.30517578125
440022,-0.0654296875,-0.803955078125,-0.5648193359375,1.5869139432907104,-0.2441406100988388,0.3662109076976776
440038,-0.064697265625,-0.8046875,-0.564697265625,1.3427733182907104,-0.2441406100988388,0.4272460639476776
440055,-0.064453125,-0.8045654296875,-0.563232421875,1.15966796875,-0.1831054538488388,0.3662109076976776
440087,-0.0665283203125,-0.80712890625,-0.564208984375,0.8544921278953552,-0.1220703050494194,0.3662109076976776
440136,-0.0648193359375,-0.8037109375,-0.5611572265625,0.30517578125,-0.2441406100988388,0.4272460639476776
440158,-0.0640869140625,-0.8065185546875,-0.564208984375,0.30517578125,-0.1831054538488388,0.3662109076976776
440175,-0.06396484375,-0.8055419921875,-0.56103515625,0.1831054538488388,-0.1220703050494194,0.30517578125
440208,-0.0665283203125,-0.80615234375,-0.560302734375,0.1220703050494194,-0.1831054538488388,0.3662109076976776
440225,-0.0657958984375,-0.8089599609375,-0.5621337890625,0.0610351525247097,-0.1831054538488388,0.4272460639476776
440242,-0.0655517578125,-0.807861328125,-0.5614013671875,0.0610351525247097,-0.1831054538488388,0.4272460639476776
440258,-0.065673828125,-0.805419921875,-0.5595703125,0.0,-0.1831054538488388,0.3662109076976776
440276,-0.065185546875,-0.8095703125,-0.56103515625,0.0,-0.1220703050494194,0.4272460639476776
440297,-0.064453125,-0.806396484375,-0.5579833984375,0.0,-0.1831054538488388,0.4882812201976776
440313,-0.0650634765625,-0.8095703125,-0.5596923828125,0.0,-0.1220703050494194,0.4272460639476776
440334,-0.0648193359375,-0.80859375,-0.558837890625,0.0,-0.1220703050494194,0.4272460639476776
440351,-0.06591796875,-0.8076171875,-0.557861328125,0.0,-0.1220703050494194,0.3662109076976776
440367,-0.065185546875,-0.8067626953125,-0.5584716796875,0.1220703050494194,-0.1831054538488388,0.3662109076976776
440384,-0.0654296875,-0.80859375,-0.558837890625,0.2441406100988388,-0.2441406100988388,0.3662109076976776
440401,-0.06591796875,-0.8089599609375,-0.558837890625,0.3662109076976776,-0.1831054538488388,0.3662109076976776
440417,-0.0654296875,-0.8095703125,-0.55810546875,0.4272460639476776,-0.1831054538488388,0.3662109076976776
440450,-0.066162109375,-0.8070068359375,-0.5557861328125,0.6713866591453552,-0.1831054538488388,0.4272460639476776
440471,-0.0654296875,-0.81005859375,-0.557861328125,0.7324218153953552,-0.1831054538488388,0.3662109076976776
440486,-0.06396484375,-0.8089599609375,-0.5570068359375,0.7934569716453552,-0.1831054538488388,0.3662109076976776
440503,-0.065673828125,-0.81005859375,-0.55908203125,0.7934569716453552,-0.1831054538488388,0.3662109076976776
440519,-0.0655517578125,-0.806396484375,-0.556884765625,0.9155272841453552,-0.1831054538488388,0.3662109076976776
440536,-0.0655517578125,-0.81005859375,-0.558837890625,0.9765624403953552,-0.1831054538488388,0.3662109076976776
440568,-0.0657958984375,-0.8060302734375,-0.55810546875,1.03759765625,-0.2441406100988388,0.3662109076976776
440584,-0.0655517578125,-0.808349609375,-0.559326171875,1.0986328125,-0.30517578125,0.3662109076976776
440601,-0.065185546875,-0.8079833984375,-0.5587158203125,1.15966796875,-0.2441406100988388,0.4272460639476776
440621,-0.064453125,-0.8104248046875,-0.5582275390625,1.220703125,-0.2441406100988388,0.3662109076976776
440638,-0.065673828125,-0.80859375,-0.55712890625,1.2817381620407104,-0.2441406100988388,0.30517578125
440655,-0.066162109375,-0.8072509765625,-0.5570068359375,1.2817381620407104,-0.2441406100988388,0.30517578125
440688,-0.065673828125,-0.809326171875,-0.560546875,1.3427733182907104,-0.1831054538488388,0.3662109076976776
440705,-0.06591796875,-0.8062744140625,-0.557861328125,1.4038084745407104,-0.1831054538488388,0.3662109076976776
440721,-0.06591796875,-0.80810546875,-0.5595703125,1.4038084745407104,-0.2441406100988388,0.3662109076976776
440738,-0.0655517578125,-0.807373046875,-0.5606689453125,1.4038084745407104,-0.2441406100988388,0.30517578125
440762,-0.0660400390625,-0.807373046875,-0.5609130859375,1.4038084745407104,-0.2441406100988388,0.3662109076976776
440779,-0.0657958984375,-0.806640625,-0.56005859375,1.4038084745407104,-0.2441406100988388,0.3662109076976776
440796,-0.06591796875,-0.8057861328125,-0.5596923828125,1.3427733182907104,-0.1831054538488388,0.3662109076976776
440816,-0.0645751953125,-0.80615234375,-0.5611572265625,1.2817381620407104,-0.1831054538488388,0.3662109076976776
440833,-0.0650634765625,-0.80517578125,-0.56103515625,1.15966796875,-0.1220703050494194,0.3662109076976776
440848,-0.066162109375,-0.806640625,-0.562744140625,1.0986328125,-0.1831054538488388,0.3662109076976776
440865,-0.06591796875,-0.80615234375,-0.56103515625,1.03759765625,-0.2441406100988388,0.3662109076976776
440885,-0.066162109375,-0.8060302734375,-0.562255859375,0.9155272841453552,-0.2441406100988388,0.3662109076976776
440902,-0.06591796875,-0.8065185546875,-0.5626220703125,0.9155272841453552,-0.1831054538488388,0.4272460639476776
440923,-0.066162109375,-0.8079833984375,-0.560791015625,0.7324218153953552,-0.1220703050494194,0.3662109076976776
440939,-0.06494140625,-0.80517578125,-0.560546875,0.6713866591453552,-0.1220703050494194,0.3662109076976776
440956,-0.0653076171875,-0.8062744140625,-0.5621337890625,0.6103515625,-0.2441406100988388,0.4272460639476776
440989,-0.0654296875,-0.8072509765625,-0.56298828125,0.4272460639476776,-0.1220703050494194,0.3662109076976776
441006,-0.066162109375,-0.804931640625,-0.5601806640625,0.1831054538488388,-0.1220703050494194,0.3662109076976776
441023,-0.0667724609375,-0.8057861328125,-0.5601806640625,0.1831054538488388,-0.1831054538488388,0.4272460639476776
441040,-0.0653076171875,-0.8074951171875,-0.5614013671875,0.0610351525247097,-0.1831054538488388,0.4272460639476776
441063,-0.064697265625,-0.80810546875,-0.5604248046875,0.0,-0.1831054538488388,0.4272460639476776
441079,-0.0655517578125,-0.806884765625,-0.5594482421875,0.0,-0.1220703050494194,0.4882812201976776
441096,-0.0657958984375,-0.8070068359375,-0.5592041015625,0.0,-0.1220703050494194,0.4882812201976776
441113,-0.0650634765625,-0.8082275390625,-0.559814453125,0.0610351525247097,-0.1831054538488388,0.4272460639476776
441130,-0.0648193359375,-0.808349609375,-0.55810546875,0.0,-0.1831054538488388,0.30517578125
441162,-0.06640625,-0.8077392578125,-0.5577392578125,0.0610351525247097,-0.1220703050494194,0.3662109076976776
441181,-0.0655517578125,-0.8094482421875,-0.5574951171875,0.1220703050494194,-0.1831054538488388,0.4272460639476776
441202,-0.06494140625,-0.8082275390625,-0.5572509765625,0.1831054538488388,-0.1220703050494194,0.3662109076976776
441218,-0.065673828125,-0.8070068359375,-0.5576171875,0.1831054538488388,-0.1220703050494194,0.4272460639476776
441237,-0.0654296875,-0.80712890625,-0.5574951171875,0.1831054538488388,-0.1831054538488388,0.4272460639476776
441254,-0.0653076171875,-0.809814453125,-0.557373046875,0.2441406100988388,-0.1831054538488388,0.4272460639476776
441287,-0.0650634765625,-0.8084716796875,-0.558349609375,0.2441406100988388,-0.1220703050494194,0.3662109076976776
441302,-0.0643310546875,-0.8089599609375,-0.55810546875,0.2441406100988388,-0.1831054538488388,0.3662109076976776
441324,-0.0655517578125,-0.808349609375,-0.556884765625,0.2441406100988388,-0.1220703050494194,0.4272460639476776
441340,-0.0657958984375,-0.8099365234375,-0.55615234375,0.2441406100988388,-0.1220703050494194,0.4272460639476776
441359,-0.0657958984375,-0.8101806640625,-0.5562744140625,0.3662109076976776,-0.1220703050494194,0.4272460639476776
441376,-0.066162109375,-0.8104248046875,-0.5572509765625,0.3662109076976776,-0.1831054538488388,0.3662109076976776
441409,-0.064697265625,-0.8106689453125,-0.5565185546875,0.4272460639476776,-0.1220703050494194,0.4272460639476776
441426,-0.0654296875,-0.8101806640625,-0.5560302734375,0.4272460639476776,-0.1831054538488388,0.3662109076976776
441442,-0.06591796875,-0.810302734375,-0.5565185546875,0.4272460639476776,-0.1831054538488388,0.3662109076976776
441459,-0.0645751953125,-0.80859375,-0.554931640625,0.4272460639476776,-0.1831054538488388,0.4272460639476776
441484,-0.0662841796875,-0.8131103515625,-0.556640625,0.4882812201976776,-0.1220703050494194,0.4272460639476776
441500,-0.06396484375,-0.8095703125,-0.554931640625,0.54931640625,-0.1831054538488388,0.3662109076976776
441517,-0.064697265625,-0.8095703125,-0.55615234375,0.6713866591453552,-0.1831054538488388,0.3662109076976776
441536,-0.0655517578125,-0.8104248046875,-0.554931640625,0.7324218153953552,-0.1831054538488388,0.3662109076976776
441553,-0.065185546875,-0.809814453125,-0.5556640625,0.7934569716453552,-0.1831054538488388,0.4272460639476776
441586,-0.0653076171875,-0.808837890625,-0.5557861328125,0.8544921278953552,-0.1831054538488388,0.4272460639476776
441650,-0.0657958984375,-0.809814453125,-0.55712890625,0.9155272841453552,-0.2441406100988388,0.4272460639476776
441666,-0.0654296875,-0.8096923828125,-0.556396484375,0.9155272841453552,-0.2441406100988388,0.4272460639476776
441683,-0.0653076171875,-0.80810546875,-0.5560302734375,0.8544921278953552,-0.2441406100988388,0.4272460639476776
441703,-0.065185546875,-0.8099365234375,-0.556396484375,0.7934569716453552,-0.2441406100988388,0.4272460639476776
441715,-0.0665283203125,-0.8109130859375,-0.556884765625,0.7324218153953552,-0.2441406100988388,0.3662109076976776
441731,-0.0662841796875,-0.8101806640625,-0.5574951171875,0.7324218153953552,-0.1831054538488388,0.3662109076976776
441765,-0.0653076171875,-0.808837890625,-0.5556640625,0.6713866591453552,-0.2441406100988388,0.4272460639476776
441782,-0.066162109375,-0.8104248046875,-0.5557861328125,0.6713866591453552,-0.1831054538488388,0.4272460639476776
441803,-0.0640869140625,-0.8104248046875,-0.555908203125,0.6713866591453552,-0.1220703050494194,0.3662109076976776
441819,-0.0654296875,-0.809326171875,-0.5557861328125,0.6713866591453552,-0.1831054538488388,0.30517578125
441833,-0.0654296875,-0.80908203125,-0.555419921875,0.6103515625,-0.1220703050494194,0.30517578125
441850,-0.0654296875,-0.8094482421875,-0.5556640625,0.6103515625,-0.1220703050494194,0.30517578125
441883,-0.0660400390625,-0.8095703125,-0.5540771484375,0.6103515625,-0.1831054538488388,0.3662109076976776
441902,-0.0655517578125,-0.8104248046875,-0.5548095703125,0.6713866591453552,-0.2441406100988388,0.3662109076976776
441919,-0.0655517578125,-0.8095703125,-0.5557861328125,0.6713866591453552,-0.2441406100988388,0.4272460639476776
441935,-0.0654296875,-0.8101806640625,-0.5562744140625,0.6103515625,-0.1831054538488388,0.3662109076976776
441954,-0.06640625,-0.8095703125,-0.5555419921875,0.6103515625,-0.1831054538488388,0.3662109076976776
441971,-0.0657958984375,-0.8089599609375,-0.555908203125,0.54931640625,-0.2441406100988388,0.3662109076976776
441987,-0.064697265625,-0.808837890625,-0.5556640625,0.6103515625,-0.1831054538488388,0.3662109076976776
442004,-0.064697265625,-0.810791015625,-0.55517578125,0.6713866591453552,-0.1831054538488388,0.3662109076976776
442021,-0.0660400390625,-0.810791015625,-0.5546875,0.6103515625,-0.1831054538488388,0.4882812201976776
442037,-0.0657958984375,-0.810546875,-0.554931640625,0.6103515625,-0.1831054538488388,0.4882812201976776
442074,-0.0650634765625,-0.809326171875,-0.5540771484375,0.6713866591453552,-0.1831054538488388,0.3662109076976776
442085,-0.065185546875,-0.8094482421875,-0.5538330078125,0.6713866591453552,-0.1831054538488388,0.3662109076976776
442102,-0.0660400390625,-0.8104248046875,-0.5557861328125,0.7324218153953552,-0.1831054538488388,0.3662109076976776
442119,-0.0660400390625,-0.809814453125,-0.5556640625,0.7324218153953552,-0.1831054538488388,0.4272460639476776
442138,-0.0648193359375,-0.8109130859375,-0.5545654296875,0.6713866591453552,-0.1831054538488388,0.4882812201976776
442154,-0.065673828125,-0.810791015625,-0.5537109375,0.7324218153953552,-0.1831054538488388,0.4272460639476776
442186,-0.065185546875,-0.8114013671875,-0.5560302734375,0.7934569716453552,-0.1831054538488388,0.3662109076976776
442208,-0.0650634765625,-0.8116455078125,-0.55615234375,0.8544921278953552,-0.1220703050494194,0.3662109076976776
442224,-0.0653076171875,-0.81005859375,-0.553955078125,0.9155272841453552,-0.1831054538488388,0.3662109076976776
442236,-0.065673828125,-0.8125,-0.5560302734375,0.9765624403953552,-0.2441406100988388,0.30517578125
442257,-0.0650634765625,-0.8116455078125,-0.5560302734375,0.9155272841453552,-0.2441406100988388,0.3662109076976776
442273,-0.065185546875,-0.8094482421875,-0.55517578125,0.9155272841453552,-0.2441406100988388,0.4272460639476776
442290,-0.0653076171875,-0.8095703125,-0.55615234375,0.9765624403953552,-0.1831054538488388,0.3662109076976776
442307,-0.0648193359375,-0.8095703125,-0.5552978515625,0.9765624403953552,-0.1831054538488388,0.4272460639476776
442324,-0.064453125,-0.8106689453125,-0.5552978515625,0.9155272841453552,-0.1220703050494194,0.30517578125
442340,-0.0654296875,-0.8099365234375,-0.554931640625,0.9155272841453552,-0.1220703050494194,0.30517578125
442369,-0.0655517578125,-0.8101806640625,-0.556640625,0.9765624403953552,-0.2441406100988388,0.3662109076976776
442385,-0.06494140625,-0.8099365234375,-0.55615234375,0.9155272841453552,-0.2441406100988388,0.3662109076976776
442402,-0.065673828125,-0.8089599609375,-0.5556640625,0.7934569716453552,-0.2441406100988388,0.3662109076976776
442419,-0.0657958984375,-0.8096923828125,-0.556640625,0.7934569716453552,-0.1831054538488388,0.3662109076976776
442438,-0.065673828125,-0.811279296875,-0.557373046875,0.7934569716453552,-0.1220703050494194,0.30517578125
442459,-0.0650634765625,-0.8095703125,-0.5562744140625,0.7324218153953552,-0.1831054538488388,0.30517578125
442476,-0.0660400390625,-0.8092041015625,-0.5555419921875,0.6103515625,-0.1220703050494194,0.30517578125
442493,-0.065673828125,-0.810302734375,-0.5567626953125,0.6103515625,-0.1831054538488388,0.3662109076976776
442510,-0.06494140625,-0.8096923828125,-0.5556640625,0.54931640625,-0.1220703050494194,0.3662109076976776
442543,-0.0657958984375,-0.8109130859375,-0.5548095703125,0.6103515625,-0.1831054538488388,0.30517578125
442562,-0.0645751953125,-0.8094482421875,-0.553466796875,0.6713866591453552,-0.1831054538488388,0.3662109076976776
442583,-0.0635986328125,-0.8065185546875,-0.5513916015625,0.7324218153953552,-0.2441406100988388,0.54931640625
442599,-0.0587158203125,-0.7978515625,-0.546875,0.8544921278953552,-0.7324218153953552,1.3427733182907104
442617,-0.053955078125,-0.80322265625,-0.5430908203125,1.5258787870407104,-2.197265625,4.08935546875
442634,-0.0780029296875,-0.905517578125,-0.5621337890625,2.38037109375,-3.112792730331421,5.615233898162842
442665,-0.0931396484375,-1.1077880859375,-0.5721435546875,9.94873046875,-1.4648436307907104,3.662109136581421
442682,-0.1053466796875,-1.2843017578125,-0.588134765625,11.352538108825684,-0.9155272841453552,2.13623046875
442699,-0.102783203125,-1.288818359375,-0.6102294921875,13.732909202575684,-1.6479490995407104,-0.1831054538488388
442720,-0.0811767578125,-1.197509765625,-0.6553955078125,13.916014671325684,-2.685546636581421,-0.54931640625
442785,-0.0648193359375,-1.236328125,-0.8316650390625,3.356933355331421,-0.7934569716453552,2.746581792831421
442802,-0.0811767578125,-1.29541015625,-0.8529052734375,1.7089842557907104,-0.7934569716453552,1.6479490995407104
442819,-0.0875244140625,-1.2845458984375,-0.8712158203125,0.6103515625,-0.7934569716453552,0.0610351525247097
442852,-0.0670166015625,-1.1630859375,-0.9210205078125,-3.479003667831421,0.0,0.7324218153953552
442873,-0.0614013671875,-1.2166748046875,-0.9710693359375,-6.286620616912842,0.9765624403953552,0.7324218153953552
442889,-0.0679931640625,-1.2154541015625,-0.9310302734375,-7.934569835662842,2.13623046875,-0.3662109076976776
442903,-0.0850830078125,-1.181884765625,-0.8739013671875,-8.48388671875,2.3193359375,-0.7324218153953552
442920,-0.0830078125,-1.1527099609375,-0.8472900390625,-9.8876953125,2.3193359375,-1.0986328125
442937,-0.0738525390625,-1.1339111328125,-0.857177734375,-11.840819358825684,2.13623046875,-1.03759765625
442970,-0.07763671875,-1.052490234375,-0.8302001953125,-15.686034202575684,3.540038824081421,-2.25830078125
442986,-0.079833984375,-0.93798828125,-0.7119140625,-18.49365234375,3.723144292831421,-1.8920897245407104
443003,-0.0775146484375,-0.8966064453125,-0.653076171875,-19.71435546875,3.295898199081421,-1.220703125
443024,-0.0755615234375,-0.914794921875,-0.65185546875,-21.728513717651367,2.685546636581421,-0.7324218153953552
443041,-0.0689697265625,-0.874755859375,-0.6177978515625,-23.620603561401367,3.234863042831421,-1.6479490995407104
443058,-0.0692138671875,-0.7701416015625,-0.5550537109375,-24.597166061401367,3.051757574081421,-1.4648436307907104
443091,-0.0723876953125,-0.6904296875,-0.4913330078125,-27.709959030151367,2.25830078125,0.0610351525247097
443108,-0.066650390625,-0.6656494140625,-0.460205078125,-28.747556686401367,2.01416015625,0.4882812201976776
443125,-0.060791015625,-0.623779296875,-0.4249267578125,-29.357908248901367,1.7700194120407104,0.8544921278953552
443145,-0.0576171875,-0.6077880859375,-0.4049072265625,-29.418943405151367,1.6479490995407104,1.03759765625
443162,-0.0540771484375,-0.5711669921875,-0.37109375,-28.930662155151367,1.4038084745407104,1.220703125
443174,-0.0489501953125,-0.5335693359375,-0.330322265625,-28.503416061401367,1.2817381620407104,1.4038084745407104
443205,-0.043212890625,-0.498291015625,-0.2930908203125,-26.367185592651367,0.6713866591453552,1.9531248807907104
443222,-0.04345703125,-0.4935302734375,-0.2850341796875,-25.695798873901367,0.6713866591453552,1.9531248807907104
443239,-0.0401611328125,-0.472412109375,-0.258544921875,-24.475095748901367,0.7934569716453552,1.7089842557907104
443260,-0.0352783203125,-0.4376220703125,-0.2269287109375,-23.193357467651367,0.7324218153953552,1.7700194120407104
443280,-0.0328369140625,-0.43017578125,-0.2088623046875,-21.850584030151367,0.6103515625,1.5869139432907104
443296,-0.0272216796875,-0.4183349609375,-0.1925048828125,-21.118162155151367,0.6103515625,1.4648436307907104
443329,-0.021240234375,-0.412353515625,-0.189453125,-18.24951171875,0.1220703050494194,1.4648436307907104
443346,-0.025634765625,-0.4493408203125,-0.20556640625,-16.54052734375,-0.0610351525247097,1.5869139432907104
443363,-0.029296875,-0.475341796875,-0.21923828125,-15.441893577575684,-0.1220703050494194,1.5869139432907104
443380,-0.03759765625,-0.541748046875,-0.2406005859375,-13.000487327575684,-0.1220703050494194,1.4648436307907104
443400,-0.046630859375,-0.617919921875,-0.2548828125,-9.94873046875,-0.1220703050494194,1.03759765625
443416,-0.0523681640625,-0.687255859375,-0.2701416015625,-8.23974609375,-0.1831054538488388,0.7934569716453552
443433,-0.054931640625,-0.7276611328125,-0.27978515625,-4.638671875,-0.30517578125,0.30517578125
443450,-0.06201171875,-0.7762451171875,-0.306396484375,-2.746581792831421,-0.4272460639476776,-0.1831054538488388
443466,-0.0692138671875,-0.8193359375,-0.3331298828125,3.295898199081421,-0.3662109076976776,-1.0986328125
443483,-0.0699462890625,-0.8323974609375,-0.33642578125,5.187987804412842,-0.3662109076976776,-1.4648436307907104
443499,-0.070556640625,-0.84912109375,-0.3511962890625,8.9111328125,-0.54931640625,-1.6479490995407104
443522,-0.078369140625,-0.881591796875,-0.37841796875,13.183592796325684,-0.7324218153953552,-2.01416015625
443555,-0.088623046875,-0.9158935546875,-0.4158935546875,19.47021484375,-0.7324218153953552,-2.807616949081421
443576,-0.09033203125,-0.9073486328125,-0.4241943359375,23.010251998901367,-0.7934569716453552,-3.540038824081421
443592,-0.0924072265625,-0.8800048828125,-0.44189453125,25.939939498901367,-0.7934569716453552,-3.967284917831421
443609,-0.08984375,-0.837158203125,-0.4495849609375,27.709959030151367,-0.7934569716453552,-4.0283203125
443626,-0.089599609375,-0.8162841796875,-0.4608154296875,28.686521530151367,-0.6713866591453552,-4.150390625
443642,-0.086669921875,-0.7999267578125,-0.458984375,28.808591842651367,-0.6103515625,-4.21142578125
443659,-0.0830078125,-0.7762451171875,-0.457763671875,28.869626998901367,-0.6713866591453552,-4.21142578125
443676,-0.0863037109375,-0.7938232421875,-0.467041015625,28.869626998901367,-0.7324218153953552,-3.845214605331421
443695,-0.0877685546875,-0.8135986328125,-0.471435546875,28.503416061401367,-0.4882812201976776,-3.906249761581421
443712,-0.0853271484375,-0.8177490234375,-0.4703369140625,28.015134811401367,-0.2441406100988388,-3.906249761581421
443729,-0.0792236328125,-0.8304443359375,-0.4759521484375,27.404783248901367,-0.1831054538488388,-3.845214605331421
443745,-0.0771484375,-0.8331298828125,-0.4844970703125,27.038572311401367,-0.1220703050494194,-3.784179449081421
443766,-0.079345703125,-0.8492431640625,-0.4981689453125,26.000974655151367,0.2441406100988388,-3.417968511581421
443787,-0.079833984375,-0.8370361328125,-0.50146484375,25.573728561401367,0.4272460639476776,-3.356933355331421
443804,-0.080322265625,-0.832275390625,-0.5037841796875,24.475095748901367,0.6103515625,-2.990722417831421
443820,-0.078857421875,-0.823974609375,-0.51123046875,23.742673873901367,0.6713866591453552,-2.746581792831421
443837,-0.07861328125,-0.8262939453125,-0.5201416015625,21.301267623901367,0.8544921278953552,-2.197265625
443871,-0.0765380859375,-0.810302734375,-0.5321044921875,18.12744140625,1.0986328125,-1.5869139432907104
443887,-0.0755615234375,-0.810791015625,-0.539794921875,16.78466796875,1.15966796875,-1.4648436307907104
443899,-0.0750732421875,-0.81396484375,-0.5413818359375,14.404295921325684,1.3427733182907104,-1.2817381620407104
443915,-0.07470703125,-0.8128662109375,-0.5433349609375,13.122557640075684,1.5258787870407104,-1.220703125
443936,-0.0736083984375,-0.7947998046875,-0.532958984375,10.559081077575684,1.7089842557907104,-0.9765624403953552
443952,-0.07470703125,-0.796630859375,-0.531005859375,8.056640625,1.7089842557907104,-0.6103515625
443969,-0.075927734375,-0.798828125,-0.5302734375,5.676269054412842,1.6479490995407104,-0.4272460639476776
443984,-0.07470703125,-0.794677734375,-0.5343017578125,4.5166015625,1.5869139432907104,-0.2441406100988388
444039,-0.0833740234375,-0.8111572265625,-0.5474853515625,-1.8310545682907104,1.4648436307907104,0.6103515625
444058,-0.0848388671875,-0.8187255859375,-0.5487060546875,-3.662109136581421,1.4648436307907104,0.6713866591453552
444075,-0.0885009765625,-0.819580078125,-0.546875,-5.371093273162842,1.4648436307907104,0.6103515625
444108,-0.0926513671875,-0.8154296875,-0.5421142578125,-7.751464366912842,1.220703125,0.9155272841453552
444124,-0.093017578125,-0.8101806640625,-0.5400390625,-8.23974609375,1.220703125,0.9155272841453552
444140,-0.092041015625,-0.7939453125,-0.5250244140625,-9.033203125,1.220703125,0.9765624403953552
444182,-0.0909423828125,-0.754638671875,-0.49267578125,-9.58251953125,0.8544921278953552,1.7089842557907104
444198,-0.09228515625,-0.7789306640625,-0.492431640625,-9.46044921875,0.7934569716453552,1.7700194120407104
444210,-0.09130859375,-0.773681640625,-0.4884033203125,-8.97216796875,0.7934569716453552,1.5258787870407104
444227,-0.09033203125,-0.76513671875,-0.482421875,-8.544921875,0.7934569716453552,1.5258787870407104
444243,-0.088134765625,-0.7481689453125,-0.468994140625,-7.507323741912842,0.6713866591453552,1.5869139432907104
444260,-0.087890625,-0.742431640625,-0.462158203125,-6.408690929412842,0.6103515625,1.5869139432907104
444277,-0.0888671875,-0.7205810546875,-0.447021484375,-5.798339366912842,0.6103515625,1.4648436307907104
444296,-0.086669921875,-0.695556640625,-0.4342041015625,-4.39453125,0.3662109076976776,1.5869139432907104
444318,-0.0860595703125,-0.6912841796875,-0.4317626953125,-2.746581792831421,0.1220703050494194,1.9531248807907104
444334,-0.085693359375,-0.677490234375,-0.421142578125,-1.220703125,-0.0610351525247097,2.38037109375
444355,-0.0845947265625,-0.688720703125,-0.42236328125,0.54931640625,-0.30517578125,2.807616949081421
444372,-0.082763671875,-0.6959228515625,-0.423095703125,1.3427733182907104,-0.3662109076976776,2.807616949081421
444392,-0.0771484375,-0.680908203125,-0.4195556640625,2.624511480331421,-0.4882812201976776,2.685546636581421
444405,-0.0770263671875,-0.680908203125,-0.427734375,3.295898199081421,-0.7324218153953552,2.929687261581421
444422,-0.077392578125,-0.68505859375,-0.433349609375,3.784179449081421,-0.7324218153953552,2.868652105331421
444438,-0.0762939453125,-0.678955078125,-0.43212890625,3.967284917831421,-0.6103515625,2.746581792831421
444467,-0.0751953125,-0.7022705078125,-0.4437255859375,4.2724609375,-0.8544921278953552,3.234863042831421
444486,-0.0771484375,-0.7275390625,-0.4608154296875,4.57763671875,-0.9155272841453552,3.234863042831421
444498,-0.0777587890625,-0.762451171875,-0.4892578125,4.7607421875,-0.9155272841453552,2.990722417831421
444535,-0.076416015625,-0.7769775390625,-0.5052490234375,6.164550304412842,-0.4272460639476776,2.01416015625
444551,-0.07470703125,-0.7633056640625,-0.4991455078125,6.591796398162842,-0.0610351525247097,1.0986328125
444568,-0.069091796875,-0.6949462890625,-0.4622802734375,6.530761241912842,0.0,1.03759765625
444584,-0.0694580078125,-0.6810302734375,-0.4554443359375,6.225585460662842,-0.30517578125,1.5258787870407104
444608,-0.0750732421875,-0.6912841796875,-0.4677734375,5.554198741912842,-0.54931640625,1.9531248807907104
444624,-0.080078125,-0.7320556640625,-0.49267578125,5.249022960662842,-0.30517578125,1.6479490995407104
444641,-0.0784912109375,-0.7379150390625,-0.4962158203125,5.126952648162842,-0.1831054538488388,1.5258787870407104
444660,-0.076416015625,-0.73583984375,-0.4937744140625,4.94384765625,0.1220703050494194,0.9155272841453552
444677,-0.0670166015625,-0.6912841796875,-0.466796875,4.57763671875,-0.0610351525247097,1.2817381620407104
444709,-0.0823974609375,-0.781494140625,-0.5184326171875,4.39453125,-0.54931640625,2.3193359375
444726,-0.083984375,-0.814453125,-0.52783203125,5.126952648162842,-0.1220703050494194,1.8920897245407104
444746,-0.07958984375,-0.84814453125,-0.5263671875,6.408690929412842,0.0610351525247097,1.03759765625
444758,-0.068115234375,-0.7841796875,-0.48876953125,7.080077648162842,0.30517578125,0.30517578125
444778,-0.0592041015625,-0.73388671875,-0.4559326171875,7.934569835662842,-0.0610351525247097,0.4272460639476776
444795,-0.0589599609375,-0.730224609375,-0.467041015625,7.934569835662842,-1.0986328125,1.6479490995407104
444828,-0.0718994140625,-0.818603515625,-0.5421142578125,7.690429210662842,-1.0986328125,1.7700194120407104
444844,-0.0772705078125,-0.84033203125,-0.5435791015625,8.36181640625,-0.6713866591453552,1.03759765625
444860,-0.0748291015625,-0.8021240234375,-0.5107421875,9.09423828125,-1.0986328125,1.15966796875
444902,-0.0718994140625,-0.8367919921875,-0.540283203125,9.27734375,-2.01416015625,1.9531248807907104
444918,-0.06396484375,-0.8868408203125,-0.577392578125,9.6435546875,-1.7700194120407104,1.5258787870407104
444935,-0.0595703125,-0.9068603515625,-0.6070556640625,10.253905296325684,-1.8920897245407104,1.3427733182907104
444954,-0.06787109375,-0.91748046875,-0.619140625,10.620116233825684,-1.7700194120407104,0.9765624403953552
444971,-0.07177734375,-0.8704833984375,-0.5994873046875,10.742186546325684,-1.2817381620407104,0.0610351525247097
444987,-0.0693359375,-0.845458984375,-0.5772705078125,10.437010765075684,-1.3427733182907104,0.0610351525247097
445004,-0.0655517578125,-0.8214111328125,-0.5625,9.58251953125,-1.8920897245407104,0.7934569716453552
445022,-0.0665283203125,-0.8514404296875,-0.5821533203125,8.7890625,-2.13623046875,0.7934569716453552
445042,-0.069580078125,-0.8568115234375,-0.597412109375,8.4228515625,-2.13623046875,0.6713866591453552
445058,-0.0714111328125,-0.8519287109375,-0.6058349609375,7.751464366912842,-2.01416015625,0.4272460639476776
445076,-0.0728759765625,-0.8599853515625,-0.6268310546875,7.019042491912842,-2.01416015625,0.9765624403953552
445092,-0.073974609375,-0.8741455078125,-0.6219482421875,6.713866710662842,-1.7700194120407104,0.6103515625
445125,-0.0706787109375,-0.8055419921875,-0.5675048828125,5.615233898162842,-2.13623046875,0.6103515625
445141,-0.0787353515625,-0.828369140625,-0.5904541015625,4.638671875,-2.624511480331421,1.0986328125
445157,-0.0792236328125,-0.8402099609375,-0.60595703125,4.150390625,-2.624511480331421,0.9765624403953552
445193,-0.0743408203125,-0.843505859375,-0.622802734375,3.173827886581421,-2.197265625,0.7934569716453552
445209,-0.0736083984375,-0.83056640625,-0.6119384765625,2.685546636581421,-2.25830078125,0.9765624403953552
445226,-0.0767822265625,-0.8572998046875,-0.6168212890625,2.197265625,-2.50244140625,1.0986328125
445243,-0.0733642578125,-0.8592529296875,-0.6318359375,2.01416015625,-2.563476324081421,1.03759765625
445259,-0.072998046875,-0.880126953125,-0.6495361328125,1.9531248807907104,-2.746581792831421,1.3427733182907104
445276,-0.07666015625,-0.9254150390625,-0.682861328125,2.25830078125,-2.197265625,0.54931640625
445308,-0.074951171875,-0.88525390625,-0.649169921875,2.868652105331421,-1.7700194120407104,-0.1831054538488388
445325,-0.07275390625,-0.8756103515625,-0.6446533203125,2.868652105331421,-1.8310545682907104,-0.2441406100988388
445360,-0.0712890625,-0.8917236328125,-0.669677734375,2.868652105331421,-1.03759765625,-1.0986328125
445379,-0.0718994140625,-0.8623046875,-0.6407470703125,2.929687261581421,-0.7934569716453552,-1.5258787870407104
445395,-0.0760498046875,-0.8310546875,-0.6148681640625,2.868652105331421,-0.9155272841453552,-1.4038084745407104
445428,-0.0826416015625,-0.8216552734375,-0.627685546875,2.197265625,-1.4038084745407104,-0.9155272841453552
445444,-0.082763671875,-0.8475341796875,-0.6444091796875,2.01416015625,-1.15966796875,-0.7934569716453552
445492,-0.0699462890625,-0.79736328125,-0.5877685546875,1.4038084745407104,-1.6479490995407104,-0.54931640625
445508,-0.074951171875,-0.816162109375,-0.6097412109375,1.220703125,-2.01416015625,0.0
445524,-0.0858154296875,-0.8787841796875,-0.657470703125,1.0986328125,-1.8310545682907104,-0.1831054538488388
445540,-0.0863037109375,-0.8858642578125,-0.659912109375,1.3427733182907104,-1.6479490995407104,-0.3662109076976776
445560,-0.0836181640625,-0.8834228515625,-0.6358642578125,2.01416015625,-1.6479490995407104,-0.7934569716453552
445574,-0.0775146484375,-0.84521484375,-0.61474609375,2.25830078125,-1.9531248807907104,-0.6713866591453552
445594,-0.075439453125,-0.83935546875,-0.6181640625,2.13623046875,-2.197265625,-0.54931640625
445612,-0.0740966796875,-0.841064453125,-0.6488037109375,1.8920897245407104,-2.25830078125,-0.1831054538488388
445693,-0.0821533203125,-0.8409423828125,-0.635986328125,3.051757574081421,-1.7089842557907104,-0.8544921278953552
445858,-0.07470703125,-0.7752685546875,-0.592529296875,2.563476324081421,-1.8920897245407104,-0.1831054538488388
445886,-0.078857421875,-0.7838134765625,-0.618896484375,2.624511480331421,-1.5869139432907104,-0.4272460639476776
445919,-0.0745849609375,-0.769775390625,-0.59130859375,2.3193359375,-1.6479490995407104,-0.0610351525247097
445936,-0.074951171875,-0.7750244140625,-0.5948486328125,2.197265625,-1.8310545682907104,0.1831054538488388
445969,-0.07373046875,-0.7777099609375,-0.6121826171875,1.7700194120407104,-1.7700194120407104,0.54931640625
445986,-0.0672607421875,-0.780029296875,-0.5986328125,1.7089842557907104,-1.6479490995407104,0.6103515625
446018,-0.0634765625,-0.748779296875,-0.5726318359375,1.2817381620407104,-2.01416015625,0.7324218153953552
446051,-0.0286865234375,-0.6585693359375,-0.5125732421875,-1.9531248807907104,-3.723144292831421,3.967284917831421
446100,-0.0980224609375,-1.5240478515625,-1.291259765625,1.220703125,-0.54931640625,0.4272460639476776
446117,-0.0360107421875,-0.893798828125,-0.7039794921875,1.5869139432907104,3.112792730331421,-3.967284917831421
446154,-0.042236328125,-0.631103515625,-0.473876953125,1.3427733182907104,-2.13623046875,2.50244140625
446170,-0.0849609375,-0.9339599609375,-0.7158203125,1.5258787870407104,-1.6479490995407104,1.9531248807907104
446187,-0.096923828125,-0.994140625,-0.790771484375,-0.3662109076976776,2.0751953125,-2.44140625
446204,-0.049072265625,-0.5418701171875,-0.4169921875,-0.4882812201976776,1.7089842557907104,-1.6479490995407104
446226,-0.067138671875,-0.7291259765625,-0.563720703125,0.2441406100988388,-0.3662109076976776,0.6713866591453552
446259,-0.0457763671875,-0.7022705078125,-0.5498046875,-0.30517578125,0.7934569716453552,-0.9765624403953552
446278,-0.084716796875,-0.8101806640625,-0.6376953125,-0.1831054538488388,0.1831054538488388,-0.1831054538488388
446295,-0.0623779296875,-0.747802734375,-0.5753173828125,-0.6713866591453552,0.3662109076976776,-0.1220703050494194
446328,-0.0606689453125,-0.7952880859375,-0.6004638671875,-0.4272460639476776,0.1220703050494194,-0.0610351525247097
446344,-0.063720703125,-0.7713623046875,-0.58935546875,-0.30517578125,0.1831054538488388,-0.0610351525247097
446360,-0.0693359375,-0.7869873046875,-0.5989990234375,0.0610351525247097,0.1220703050494194,0.0610351525247097
446402,-0.0621337890625,-0.7861328125,-0.5938720703125,0.9155272841453552,-0.1220703050494194,0.1831054538488388
446417,-0.06201171875,-0.7833251953125,-0.5938720703125,1.03759765625,-0.1220703050494194,0.1831054538488388
446429,-0.0648193359375,-0.778076171875,-0.5955810546875,1.220703125,-0.1220703050494194,0.3662109076976776
446446,-0.0675048828125,-0.780029296875,-0.5968017578125,1.15966796875,-0.0610351525247097,0.2441406100988388
446462,-0.064697265625,-0.7718505859375,-0.5936279296875,0.9765624403953552,-0.1220703050494194,0.1831054538488388
446479,-0.06396484375,-0.775390625,-0.599853515625,0.6713866591453552,-0.0610351525247097,0.1220703050494194
446511,-0.0655517578125,-0.7774658203125,-0.596435546875,0.3662109076976776,0.1220703050494194,0.0610351525247097
446528,-0.067626953125,-0.780029296875,-0.5914306640625,0.4272460639476776,0.1220703050494194,0.1831054538488388
446543,-0.0673828125,-0.7835693359375,-0.59033203125,0.6103515625,0.0610351525247097,0.1831054538488388
446560,-0.0653076171875,-0.78759765625,-0.5919189453125,0.9155272841453552,0.0,0.1220703050494194
446579,-0.0623779296875,-0.7802734375,-0.588623046875,1.5869139432907104,-0.1220703050494194,0.1220703050494194
446629,-0.0693359375,-0.7811279296875,-0.593994140625,2.746581792831421,-0.0610351525247097,0.1831054538488388
446697,-0.068115234375,-0.772705078125,-0.6002197265625,4.2724609375,-0.3662109076976776,0.1831054538488388
446719,-0.0687255859375,-0.77734375,-0.6002197265625,4.2724609375,-0.30517578125,0.1831054538488388
446735,-0.0648193359375,-0.77685546875,-0.6007080078125,4.45556640625,-0.3662109076976776,0.1831054538488388
446754,-0.0650634765625,-0.77392578125,-0.601318359375,4.21142578125,-0.4882812201976776,0.1831054538488388
446771,-0.068115234375,-0.7708740234375,-0.6107177734375,3.967284917831421,-0.4882812201976776,0.1831054538488388
446804,-0.065185546875,-0.7730712890625,-0.60546875,3.234863042831421,-0.30517578125,0.2441406100988388
446821,-0.065673828125,-0.7742919921875,-0.6038818359375,3.173827886581421,-0.3662109076976776,0.1831054538488388
446838,-0.0672607421875,-0.76806640625,-0.6080322265625,2.868652105331421,-0.30517578125,0.2441406100988388
446859,-0.0672607421875,-0.7685546875,-0.60986328125,2.685546636581421,-0.30517578125,0.30517578125
446877,-0.0657958984375,-0.768310546875,-0.6134033203125,2.13623046875,-0.2441406100988388,0.3662109076976776
446893,-0.0660400390625,-0.769287109375,-0.609619140625,1.5869139432907104,-0.1831054538488388,0.30517578125
446925,-0.0648193359375,-0.76953125,-0.611083984375,0.9765624403953552,-0.1831054538488388,0.30517578125
446941,-0.0654296875,-0.7708740234375,-0.6107177734375,0.6103515625,-0.1220703050494194,0.30517578125
446958,-0.0650634765625,-0.76904296875,-0.606201171875,0.4882812201976776,-0.1220703050494194,0.3662109076976776
446992,-0.0654296875,-0.770263671875,-0.60595703125,0.3662109076976776,-0.1831054538488388,0.3662109076976776
447008,-0.06689453125,-0.7703857421875,-0.6065673828125,0.3662109076976776,-0.2441406100988388,0.4272460639476776
447025,-0.066650390625,-0.7725830078125,-0.6072998046875,0.2441406100988388,-0.30517578125,0.4882812201976776
447041,-0.0648193359375,-0.7706298828125,-0.6072998046875,0.1831054538488388,-0.2441406100988388,0.4272460639476776
447060,-0.0672607421875,-0.771728515625,-0.607666015625,0.0,-0.1831054538488388,0.4882812201976776
447077,-0.06640625,-0.770751953125,-0.60595703125,-0.0610351525247097,-0.1831054538488388,0.4882812201976776
447109,-0.0645751953125,-0.77294921875,-0.60498046875,-0.1220703050494194,-0.2441406100988388,0.54931640625
447126,-0.0650634765625,-0.7735595703125,-0.602783203125,-0.0610351525247097,-0.2441406100988388,0.54931640625
447147,-0.06640625,-0.77294921875,-0.5980224609375,0.3662109076976776,-0.30517578125,0.6713866591453552
447163,-0.0645751953125,-0.77880859375,-0.5965576171875,1.0986328125,-0.3662109076976776,0.7324218153953552
447180,-0.0626220703125,-0.77587890625,-0.596435546875,1.5258787870407104,-0.4272460639476776,0.7324218153953552
447196,-0.0633544921875,-0.776611328125,-0.5982666015625,2.197265625,-0.6103515625,0.6713866591453552
447225,-0.0682373046875,-0.76708984375,-0.602294921875,2.929687261581421,-0.6103515625,0.6713866591453552
447242,-0.06689453125,-0.773193359375,-0.603759765625,3.234863042831421,-0.4272460639476776,0.7934569716453552
447258,-0.0599365234375,-0.77099609375,-0.5963134765625,3.906249761581421,-0.6713866591453552,0.7934569716453552
447286,-0.0584716796875,-0.775634765625,-0.5897216796875,4.638671875,-1.4648436307907104,1.8310545682907104
447308,-0.063232421875,-0.7808837890625,-0.601318359375,5.798339366912842,-3.173827886581421,3.662109136581421
447324,-0.0697021484375,-0.7974853515625,-0.615234375,6.896972179412842,-4.39453125,5.249022960662842
447341,-0.07568359375,-0.952880859375,-0.6973876953125,7.263183116912842,-4.7607421875,5.981444835662842
447358,-0.0927734375,-1.135009765625,-0.8243408203125,7.568358898162842,-3.356933355331421,4.57763671875
447407,-0.0966796875,-1.28857421875,-0.9742431640625,3.051757574081421,0.1831054538488388,1.03759765625
447424,-0.0877685546875,-1.245849609375,-0.8883056640625,-0.6713866591453552,1.15966796875,0.7934569716453552
447443,-0.091796875,-1.2105712890625,-0.82421875,-3.967284917831421,0.8544921278953552,1.4038084745407104
447459,-0.0750732421875,-1.2000732421875,-0.7955322265625,-5.798339366912842,0.6103515625,1.4038084745407104
447476,-0.070068359375,-1.1839599609375,-0.82080078125,-8.97216796875,-0.3662109076976776,1.7089842557907104
447493,-0.0750732421875,-1.1844482421875,-0.8831787109375,-10.498045921325684,-0.3662109076976776,1.8920897245407104
447523,-0.102783203125,-1.1878662109375,-0.9346923828125,-16.78466796875,0.9765624403953552,1.9531248807907104
447589,-0.07666015625,-1.0794677734375,-0.8455810546875,-23.376462936401367,1.9531248807907104,1.8920897245407104
447626,-0.088623046875,-1.076171875,-0.8609619140625,-26.306150436401367,3.479003667831421,1.03759765625
447660,-0.060302734375,-0.9351806640625,-0.6923828125,-28.503416061401367,4.57763671875,0.0610351525247097
447677,-0.06591796875,-0.915771484375,-0.6761474609375,-29.479978561401367,4.39453125,0.2441406100988388
447710,-0.0714111328125,-0.854736328125,-0.61181640625,-31.616209030151367,5.187987804412842,-0.54931640625
447727,-0.0670166015625,-0.836669921875,-0.586669921875,-32.1044921875,5.432128429412842,-0.9765624403953552
447743,-0.057861328125,-0.7728271484375,-0.5220947265625,-32.2265625,5.615233898162842,-1.15966796875
447760,-0.0631103515625,-0.751953125,-0.4852294921875,-32.3486328125,5.554198741912842,-1.7700194120407104
447779,-0.062744140625,-0.680908203125,-0.4317626953125,-32.16552734375,5.676269054412842,-2.0751953125
447791,-0.06103515625,-0.6439208984375,-0.4051513671875,-32.1044921875,5.737304210662842,-2.38037109375
447807,-0.05810546875,-0.601806640625,-0.3787841796875,-32.2265625,5.676269054412842,-2.3193359375
447824,-0.054443359375,-0.55126953125,-0.3355712890625,-32.470703125,5.554198741912842,-2.38037109375
447841,-0.052001953125,-0.484619140625,-0.29052734375,-32.77587890625,5.493163585662842,-2.3193359375
447857,-0.0501708984375,-0.46337890625,-0.2669677734375,-32.89794921875,5.432128429412842,-2.3193359375
447891,-0.0413818359375,-0.3953857421875,-0.21484375,-32.8369140625,5.187987804412842,-2.197265625
447907,-0.0347900390625,-0.3695068359375,-0.198486328125,-32.71484375,4.69970703125,-1.8920897245407104
447924,-0.0357666015625,-0.38134765625,-0.20263671875,-32.470703125,4.45556640625,-1.7089842557907104
447941,-0.03857421875,-0.3973388671875,-0.205810546875,-31.738279342651367,4.2724609375,-1.6479490995407104
447958,-0.039794921875,-0.4073486328125,-0.20458984375,-30.578611373901367,4.150390625,-1.8920897245407104
447975,-0.0416259765625,-0.419677734375,-0.2030029296875,-29.113767623901367,4.0283203125,-1.9531248807907104
448006,-0.035400390625,-0.429931640625,-0.18994140625,-26.550291061401367,3.662109136581421,-2.0751953125
448027,-0.034423828125,-0.4688720703125,-0.1982421875,-24.597166061401367,3.173827886581421,-1.8920897245407104
448044,-0.040283203125,-0.5245361328125,-0.2232666015625,-23.376462936401367,3.051757574081421,-1.8310545682907104
448061,-0.0457763671875,-0.5665283203125,-0.231689453125,-20.568845748901367,2.807616949081421,-2.0751953125
448079,-0.0472412109375,-0.59423828125,-0.236572265625,-16.9677734375,2.44140625,-2.13623046875
448096,-0.05126953125,-0.6668701171875,-0.2576904296875,-12.695311546325684,1.8920897245407104,-2.197265625
448127,-0.0567626953125,-0.772705078125,-0.2899169921875,-4.82177734375,1.15966796875,-3.295898199081421
448147,-0.06103515625,-0.794677734375,-0.31884765625,0.9155272841453552,0.6103515625,-3.479003667831421
448164,-0.070068359375,-0.826171875,-0.3514404296875,3.784179449081421,0.3662109076976776,-3.601073980331421
448181,-0.07373046875,-0.847412109375,-0.352783203125,9.82666015625,0.0610351525247097,-3.234863042831421
448247,-0.0948486328125,-0.9287109375,-0.3914794921875,33.38623046875,-1.8920897245407104,-4.82177734375
448267,-0.0955810546875,-0.9144287109375,-0.416259765625,38.02490234375,-2.0751953125,-4.82177734375
448283,-0.097900390625,-0.8912353515625,-0.419677734375,40.161128997802734,-2.0751953125,-4.82177734375
448300,-0.0997314453125,-0.869384765625,-0.4205322265625,43.823238372802734,-2.197265625,-4.7607421875
448320,-0.104248046875,-0.826416015625,-0.42919921875,47.058101654052734,-2.44140625,-4.150390625
448336,-0.11181640625,-0.842041015625,-0.442626953125,49.133296966552734,-2.563476324081421,-3.845214605331421
448366,-0.1104736328125,-0.8128662109375,-0.44580078125,51.269527435302734,-2.807616949081421,-3.784179449081421
448382,-0.10888671875,-0.794189453125,-0.4635009765625,51.940914154052734,-2.929687261581421,-3.295898199081421
448398,-0.1107177734375,-0.79736328125,-0.47119140625,52.001949310302734,-2.990722417831421,-3.112792730331421
448433,-0.119140625,-0.7978515625,-0.492431640625,51.086421966552734,-2.929687261581421,-2.746581792831421
448444,-0.118896484375,-0.8060302734375,-0.4931640625,50.109859466552734,-3.051757574081421,-2.25830078125
448461,-0.116455078125,-0.827880859375,-0.4952392578125,49.499507904052734,-3.112792730331421,-2.25830078125
448478,-0.1141357421875,-0.8277587890625,-0.5072021484375,47.912593841552734,-3.417968511581421,-2.38037109375
448498,-0.1129150390625,-0.81201171875,-0.5576171875,45.227046966552734,-3.417968511581421,-2.197265625
448515,-0.1116943359375,-0.775390625,-0.6099853515625,41.076656341552734,-3.051757574081421,-1.6479490995407104
448532,-0.110107421875,-0.83251953125,-0.522216796875,39.97802734375,-2.990722417831421,-1.4038084745407104
448553,-0.1051025390625,-0.8035888671875,-0.5506591796875,38.57421875,-3.540038824081421,-1.2817381620407104
448569,-0.1048583984375,-0.794189453125,-0.6312255859375,36.2548828125,-3.601073980331421,-1.3427733182907104
448581,-0.100830078125,-0.7984619140625,-0.63330078125,35.2783203125,-3.479003667831421,-1.3427733182907104
448598,-0.098876953125,-0.7760009765625,-0.627685546875,28.991697311401367,-3.051757574081421,-1.220703125
448618,-0.0986328125,-0.762451171875,-0.6324462890625,26.367185592651367,-2.807616949081421,-1.03759765625
448634,-0.095458984375,-0.750244140625,-0.6175537109375,20.507810592651367,-2.685546636581421,-0.4882812201976776
448667,-0.094970703125,-0.7572021484375,-0.615966796875,13.427733421325684,-2.50244140625,-0.4272460639476776
448715,-0.0992431640625,-0.7353515625,-0.6351318359375,2.25830078125,-1.8310545682907104,0.0610351525247097
448737,-0.101806640625,-0.7579345703125,-0.6396484375,0.6713866591453552,-1.8310545682907104,0.1831054538488388
448753,-0.1033935546875,-0.74462890625,-0.6444091796875,-4.39453125,-1.4648436307907104,0.1831054538488388
448785,-0.10693359375,-0.7425537109375,-0.638671875,-9.521484375,-0.9765624403953552,0.4272460639476776
448802,-0.1080322265625,-0.7578125,-0.632080078125,-11.779784202575684,-0.7934569716453552,0.7324218153953552
448818,-0.10888671875,-0.76318359375,-0.62939453125,-15.075682640075684,-0.54931640625,0.7934569716453552
448863,-0.1109619140625,-0.7603759765625,-0.611328125,-18.61572265625,-0.0610351525247097,0.6713866591453552
448923,-0.114990234375,-0.778564453125,-0.5897216796875,-20.141599655151367,0.0,1.03759765625
448940,-0.113525390625,-0.769775390625,-0.587158203125,-20.629880905151367,0.0,1.03759765625
448957,-0.110595703125,-0.7713623046875,-0.5848388671875,-20.01953125,-0.1220703050494194,1.0986328125
448977,-0.109619140625,-0.780029296875,-0.5872802734375,-20.202634811401367,-0.0610351525247097,1.3427733182907104
448994,-0.1070556640625,-0.788818359375,-0.5828857421875,-18.49365234375,-0.0610351525247097,1.2817381620407104
449011,-0.1058349609375,-0.788818359375,-0.580810546875,-18.24951171875,-0.0610351525247097,1.15966796875
449028,-0.10400390625,-0.7813720703125,-0.5758056640625,-16.357421875,-0.0610351525247097,1.0986328125
449049,-0.1025390625,-0.7823486328125,-0.5626220703125,-15.563963890075684,0.0,1.2817381620407104
449064,-0.1031494140625,-0.7994384765625,-0.55126953125,-14.343260765075684,0.0,1.2817381620407104
449081,-0.1019287109375,-0.80517578125,-0.544677734375,-13.000487327575684,0.0,1.220703125
449098,-0.101318359375,-0.811279296875,-0.54150390625,-11.962889671325684,0.0,1.15966796875
449142,-0.0994873046875,-0.7928466796875,-0.5323486328125,-5.981444835662842,-0.1831054538488388,0.7324218153953552
449198,-0.0933837890625,-0.759033203125,-0.51123046875,-2.0751953125,-0.1220703050494194,0.7324218153953552
449224,-0.0914306640625,-0.757568359375,-0.5023193359375,-0.1220703050494194,-0.2441406100988388,1.0986328125
449258,-0.0877685546875,-0.7581787109375,-0.4891357421875,0.9765624403953552,-0.1831054538488388,0.9155272841453552
449299,-0.0743408203125,-0.70166015625,-0.44970703125,1.15966796875,-0.2441406100988388,0.4882812201976776
449344,-0.09033203125,-0.738037109375,-0.470947265625,2.25830078125,-0.30517578125,0.2441406100988388
449361,-0.0953369140625,-0.70654296875,-0.4530029296875,4.150390625,-0.7324218153953552,0.4272460639476776
449378,-0.095703125,-0.703369140625,-0.4595947265625,4.94384765625,-1.03759765625,0.7324218153953552
449396,-0.095458984375,-0.697509765625,-0.4755859375,6.408690929412842,-1.4038084745407104,1.0986328125
449412,-0.09423828125,-0.6888427734375,-0.4759521484375,7.446288585662842,-1.5258787870407104,1.4648436307907104
449444,-0.0955810546875,-0.6937255859375,-0.50390625,8.6669921875,-1.8920897245407104,2.13623046875
449463,-0.0946044921875,-0.694091796875,-0.509765625,8.85009765625,-1.9531248807907104,2.3193359375
449484,-0.0894775390625,-0.688232421875,-0.5067138671875,9.21630859375,-1.8310545682907104,2.44140625
449500,-0.0784912109375,-0.6640625,-0.490478515625,8.85009765625,-1.7700194120407104,2.38037109375
449519,-0.067138671875,-0.634765625,-0.464599609375,8.6669921875,-1.7700194120407104,2.50244140625
449536,-0.067626953125,-0.6363525390625,-0.4822998046875,7.629394054412842,-2.197265625,2.929687261581421
449565,-0.072265625,-0.663818359375,-0.506591796875,6.347655773162842,-2.13623046875,2.990722417831421
449582,-0.0712890625,-0.662841796875,-0.5023193359375,5.676269054412842,-1.8310545682907104,2.807616949081421
449598,-0.0731201171875,-0.6719970703125,-0.5084228515625,4.7607421875,-1.6479490995407104,2.563476324081421
449627,-0.0753173828125,-0.659423828125,-0.5140380859375,3.356933355331421,-1.7700194120407104,2.929687261581421
449648,-0.07861328125,-0.6756591796875,-0.5322265625,2.563476324081421,-1.7700194120407104,3.112792730331421
449660,-0.08251953125,-0.695068359375,-0.5452880859375,1.5869139432907104,-1.5258787870407104,3.356933355331421
449677,-0.084716796875,-0.72900390625,-0.547119140625,1.220703125,-1.2817381620407104,3.295898199081421
449745,-0.083984375,-0.728271484375,-0.56640625,-0.1831054538488388,-0.9155272841453552,3.173827886581421
449766,-0.0877685546875,-0.731201171875,-0.563232421875,-0.6713866591453552,-0.30517578125,2.929687261581421
449782,-0.0889892578125,-0.7164306640625,-0.5382080078125,-0.7324218153953552,-0.2441406100988388,2.990722417831421
449794,-0.0859375,-0.707275390625,-0.537109375,-0.9155272841453552,-0.30517578125,3.234863042831421
449815,-0.0853271484375,-0.7264404296875,-0.554931640625,-0.9765624403953552,-0.3662109076976776,3.845214605331421
449831,-0.0836181640625,-0.761474609375,-0.5751953125,-1.0986328125,0.2441406100988388,3.662109136581421
449848,-0.0787353515625,-0.758056640625,-0.552490234375,-0.7934569716453552,0.8544921278953552,3.356933355331421
449865,-0.0755615234375,-0.7490234375,-0.533447265625,-0.6713866591453552,0.7934569716453552,3.417968511581421
449882,-0.069091796875,-0.7314453125,-0.5240478515625,-0.6103515625,0.30517578125,4.0283203125
449898,-0.078369140625,-0.7742919921875,-0.5750732421875,-0.54931640625,0.1220703050494194,4.5166015625
449924,-0.0855712890625,-0.791259765625,-0.5794677734375,0.4882812201976776,1.0986328125,4.2724609375
449941,-0.08203125,-0.7724609375,-0.5406494140625,1.5258787870407104,1.0986328125,4.7607421875
449958,-0.0791015625,-0.7880859375,-0.5439453125,2.25830078125,0.6713866591453552,5.187987804412842
449992,-0.076171875,-0.852783203125,-0.612060546875,3.112792730331421,0.7934569716453552,5.554198741912842
450008,-0.0728759765625,-0.86083984375,-0.60546875,3.662109136581421,1.2817381620407104,5.187987804412842
450025,-0.0692138671875,-0.8497314453125,-0.5888671875,4.7607421875,1.7089842557907104,4.7607421875
450041,-0.0625,-0.8294677734375,-0.558837890625,5.187987804412842,1.7089842557907104,4.69970703125
450060,-0.060546875,-0.851806640625,-0.5894775390625,5.737304210662842,0.6713866591453552,5.859374523162842
450077,-0.0716552734375,-0.9554443359375,-0.664306640625,6.225585460662842,0.8544921278953552,5.615233898162842
450107,-0.078125,-0.9556884765625,-0.6497802734375,8.7890625,2.13623046875,3.601073980331421
450127,-0.07421875,-0.911376953125,-0.624267578125,9.70458984375,2.38037109375,2.746581792831421
450143,-0.0673828125,-0.8885498046875,-0.6153564453125,9.94873046875,2.0751953125,2.929687261581421
450160,-0.059326171875,-0.8857421875,-0.63623046875,9.765625,1.9531248807907104,2.868652105331421
450178,-0.057861328125,-0.90673828125,-0.643798828125,9.82666015625,2.13623046875,2.685546636581421
450195,-0.064697265625,-0.920654296875,-0.6505126953125,10.375975608825684,1.9531248807907104,2.624511480331421
450232,-0.0994873046875,-0.9716796875,-0.6951904296875,11.962889671325684,1.6479490995407104,2.01416015625
450248,-0.08935546875,-0.91455078125,-0.6505126953125,12.390135765075684,2.197265625,0.9765624403953552
450265,-0.0804443359375,-0.868896484375,-0.6182861328125,12.329100608825684,1.8310545682907104,0.9155272841453552
450282,-0.0743408203125,-0.8294677734375,-0.5848388671875,12.084959983825684,1.2817381620407104,1.2817381620407104
450301,-0.08935546875,-0.8609619140625,-0.626953125,11.596678733825684,0.1831054538488388,2.0751953125
450317,-0.0911865234375,-0.8702392578125,-0.6571044921875,10.986327171325684,-0.1220703050494194,1.9531248807907104
450347,-0.0831298828125,-0.8946533203125,-0.655029296875,10.803221702575684,-0.1220703050494194,1.7089842557907104
450372,-0.0750732421875,-0.841796875,-0.613525390625,10.437010765075684,-0.30517578125,1.220703125
450387,-0.076904296875,-0.8526611328125,-0.6534423828125,9.46044921875,-1.4648436307907104,2.01416015625
450404,-0.0775146484375,-0.8822021484375,-0.687744140625,8.544921875,-1.8920897245407104,2.563476324081421
450421,-0.07763671875,-0.9559326171875,-0.7303466796875,8.30078125,-1.5869139432907104,2.197265625
450437,-0.07177734375,-0.9376220703125,-0.7039794921875,8.11767578125,-0.6713866591453552,0.6103515625
450471,-0.0611572265625,-0.7965087890625,-0.610107421875,6.408690929412842,-2.50244140625,1.0986328125
450488,-0.0679931640625,-0.8135986328125,-0.6470947265625,5.676269054412842,-2.685546636581421,1.4038084745407104
450508,-0.071533203125,-0.8394775390625,-0.6959228515625,4.21142578125,-2.13623046875,1.03759765625
450524,-0.0625,-0.8321533203125,-0.6837158203125,3.112792730331421,-1.4648436307907104,0.54931640625
450536,-0.05029296875,-0.794921875,-0.6273193359375,2.563476324081421,-1.3427733182907104,0.30517578125
450552,-0.0496826171875,-0.7794189453125,-0.6168212890625,1.9531248807907104,-1.5869139432907104,0.30517578125
450584,-0.064453125,-0.7969970703125,-0.679931640625,-0.4272460639476776,-2.25830078125,1.03759765625
450603,-0.0699462890625,-0.8209228515625,-0.69482421875,-1.3427733182907104,-1.3427733182907104,0.30517578125
450624,-0.0555419921875,-0.782470703125,-0.6456298828125,-1.9531248807907104,-1.03759765625,0.1220703050494194
450640,-0.044189453125,-0.7738037109375,-0.622314453125,-2.197265625,-1.2817381620407104,0.30517578125
450707,-0.05419921875,-0.7940673828125,-0.6492919921875,-2.624511480331421,-0.8544921278953552,0.0610351525247097
450723,-0.0587158203125,-0.783935546875,-0.620361328125,-2.50244140625,-1.0986328125,0.2441406100988388
450739,-0.0570068359375,-0.7657470703125,-0.6099853515625,-2.44140625,-1.3427733182907104,0.4272460639476776
450777,-0.056884765625,-0.778076171875,-0.629638671875,-1.6479490995407104,-1.4648436307907104,0.7934569716453552
450827,-0.05712890625,-0.7635498046875,-0.620849609375,0.0610351525247097,-1.2817381620407104,1.03759765625
450843,-0.0546875,-0.764404296875,-0.6275634765625,0.1831054538488388,-1.2817381620407104,1.2817381620407104
450860,-0.0567626953125,-0.78857421875,-0.6273193359375,1.220703125,-0.9155272841453552,1.4648436307907104
450896,-0.0604248046875,-0.7781982421875,-0.6019287109375,2.807616949081421,-0.4272460639476776,1.03759765625
450917,-0.0584716796875,-0.739990234375,-0.5841064453125,3.234863042831421,-0.6103515625,1.4038084745407104
450933,-0.0538330078125,-0.75537109375,-0.6051025390625,3.356933355331421,-0.7934569716453552,1.7089842557907104
450954,-0.05322265625,-0.77197265625,-0.6240234375,3.723144292831421,-0.54931640625,1.7089842557907104
450971,-0.0518798828125,-0.7750244140625,-0.6136474609375,4.33349609375,-0.0610351525247097,1.2817381620407104
450991,-0.050048828125,-0.7435302734375,-0.579345703125,5.065917491912842,0.0610351525247097,1.03759765625
451011,-0.0538330078125,-0.768310546875,-0.61376953125,5.249022960662842,-0.4882812201976776,1.3427733182907104
451028,-0.072998046875,-1.0843505859375,-0.8624267578125,4.45556640625,0.6713866591453552,0.0610351525247097
451045,-0.0465087890625,-1.2598876953125,-0.981201171875,-0.2441406100988388,6.286620616912842,-6.225585460662842
451066,-0.031982421875,-0.5672607421875,-0.4071044921875,-1.8310545682907104,5.554198741912842,-5.798339366912842
451083,-0.0623779296875,-0.6629638671875,-0.53515625,-2.38037109375,4.39453125,-4.94384765625
451100,-0.0679931640625,-0.6890869140625,-0.5482177734375,-0.7934569716453552,4.0283203125,-4.5166015625
451116,-0.07666015625,-0.49853515625,-0.41015625,4.2724609375,-2.01416015625,1.8310545682907104
451136,-0.0853271484375,-0.919677734375,-0.75048828125,6.225585460662842,-3.662109136581421,3.540038824081421
451152,-0.0667724609375,-1.023193359375,-0.8575439453125,4.45556640625,1.7089842557907104,-2.807616949081421
451168,-0.0343017578125,-0.6995849609375,-0.536865234375,4.45556640625,2.38037109375,-3.417968511581421
451217,-0.0499267578125,-0.6802978515625,-0.5872802734375,0.8544921278953552,0.7324218153953552,-0.6713866591453552
451260,-0.0816650390625,-0.8463134765625,-0.7081298828125,-1.5258787870407104,0.54931640625,-0.2441406100988388
451272,-0.0498046875,-0.700927734375,-0.580078125,-3.112792730331421,0.6103515625,-0.4882812201976776
451305,-0.068359375,-0.7821044921875,-0.6600341796875,-5.371093273162842,0.8544921278953552,-0.1831054538488388
451322,-0.062744140625,-0.7403564453125,-0.6151123046875,-6.103515148162842,0.7324218153953552,0.2441406100988388
451338,-0.0650634765625,-0.771240234375,-0.619140625,-6.469726085662842,0.6713866591453552,0.2441406100988388
451373,-0.065185546875,-0.7645263671875,-0.616455078125,-6.835937023162842,0.4272460639476776,0.1220703050494194
451388,-0.068603515625,-0.7615966796875,-0.6229248046875,-7.385253429412842,0.54931640625,0.1831054538488388
451405,-0.0689697265625,-0.7572021484375,-0.6138916015625,-7.751464366912842,0.6103515625,0.2441406100988388
451421,-0.0650634765625,-0.77099609375,-0.6024169921875,-7.995604991912842,0.6103515625,0.4272460639476776
451440,-0.062255859375,-0.788330078125,-0.5999755859375,-7.751464366912842,0.4882812201976776,0.3662109076976776
451457,-0.0657958984375,-0.7763671875,-0.5986328125,-7.202147960662842,0.6103515625,0.0610351525247097
451489,-0.068603515625,-0.777099609375,-0.60498046875,-6.286620616912842,0.2441406100988388,0.3662109076976776
451506,-0.06494140625,-0.780517578125,-0.5965576171875,-5.981444835662842,0.1831054538488388,0.54931640625
451527,-0.0643310546875,-0.782470703125,-0.589599609375,-5.432128429412842,0.30517578125,0.30517578125
451543,-0.0650634765625,-0.78955078125,-0.5904541015625,-5.126952648162842,0.3662109076976776,0.1831054538488388
451555,-0.067138671875,-0.780029296875,-0.590576171875,-4.82177734375,0.30517578125,-0.1220703050494194
451572,-0.06982421875,-0.7740478515625,-0.59375,-4.7607421875,0.2441406100988388,0.0
451605,-0.064208984375,-0.7864990234375,-0.5888671875,-4.69970703125,0.1831054538488388,0.6103515625
451622,-0.0633544921875,-0.78759765625,-0.5838623046875,-4.45556640625,0.1220703050494194,0.54931640625
451639,-0.066162109375,-0.7886962890625,-0.58447265625,-3.845214605331421,0.1220703050494194,0.3662109076976776
451660,-0.0723876953125,-0.7943115234375,-0.5814208984375,-2.990722417831421,0.1831054538488388,0.30517578125
451726,-0.0677490234375,-0.793212890625,-0.578369140625,0.30517578125,-0.1220703050494194,0.3662109076976776
451743,-0.0701904296875,-0.792236328125,-0.5771484375,1.8310545682907104,-0.1831054538488388,0.2441406100988388
451760,-0.0692138671875,-0.7945556640625,-0.573974609375,2.44140625,-0.1831054538488388,0.1220703050494194
451802,-0.0677490234375,-0.788818359375,-0.5799560546875,4.45556640625,-0.3662109076976776,0.1831054538488388
451818,-0.0675048828125,-0.7891845703125,-0.5853271484375,5.126952648162842,-0.3662109076976776,0.0
451835,-0.0689697265625,-0.7850341796875,-0.58642578125,5.371093273162842,-0.3662109076976776,-0.0610351525247097
451856,-0.0684814453125,-0.7840576171875,-0.5889892578125,5.798339366912842,-0.3662109076976776,0.0610351525247097
451872,-0.06689453125,-0.7880859375,-0.5875244140625,6.225585460662842,-0.4272460639476776,0.1220703050494194
451889,-0.0682373046875,-0.7822265625,-0.594482421875,6.530761241912842,-0.3662109076976776,0.1220703050494194
451906,-0.0679931640625,-0.7786865234375,-0.59375,6.652831554412842,-0.30517578125,-0.0610351525247097
451923,-0.067626953125,-0.776611328125,-0.594482421875,6.652831554412842,-0.4272460639476776,0.0610351525247097
451943,-0.066650390625,-0.7799072265625,-0.59765625,6.469726085662842,-0.54931640625,0.0610351525247097
451959,-0.068115234375,-0.7742919921875,-0.602783203125,6.042479991912842,-0.4882812201976776,0.0610351525247097
451973,-0.0667724609375,-0.7703857421875,-0.6094970703125,5.676269054412842,-0.4272460639476776,0.1220703050494194
451990,-0.0677490234375,-0.7713623046875,-0.609619140625,5.0048828125,-0.4272460639476776,0.2441406100988388
452023,-0.067138671875,-0.7735595703125,-0.6083984375,4.08935546875,-0.30517578125,0.1831054538488388
452042,-0.066650390625,-0.7730712890625,-0.609375,3.540038824081421,-0.3662109076976776,0.30517578125
452058,-0.067626953125,-0.7689208984375,-0.6102294921875,2.807616949081421,-0.3662109076976776,0.3662109076976776
452094,-0.06787109375,-0.7713623046875,-0.6126708984375,1.8310545682907104,-0.2441406100988388,0.30517578125
452111,-0.0660400390625,-0.767822265625,-0.609619140625,1.03759765625,-0.1831054538488388,0.2441406100988388
452128,-0.0675048828125,-0.77001953125,-0.60986328125,0.7324218153953552,-0.2441406100988388,0.3662109076976776
452144,-0.067626953125,-0.771240234375,-0.6075439453125,0.1220703050494194,-0.2441406100988388,0.6103515625
452161,-0.0670166015625,-0.771240234375,-0.6082763671875,-0.2441406100988388,-0.1831054538488388,0.4272460639476776
452178,-0.066162109375,-0.771240234375,-0.608154296875,-0.6713866591453552,-0.1220703050494194,0.3662109076976776
452215,-0.068603515625,-0.7744140625,-0.6063232421875,-1.15966796875,-0.1220703050494194,0.6103515625
452231,-0.06787109375,-0.7755126953125,-0.600830078125,-1.15966796875,0.0,0.4272460639476776
452247,-0.066650390625,-0.7740478515625,-0.59912109375,-1.0986328125,0.0,0.30517578125
452264,-0.0660400390625,-0.776123046875,-0.5999755859375,-0.9765624403953552,-0.1220703050494194,0.4882812201976776
452280,-0.068359375,-0.7760009765625,-0.6009521484375,-0.7934569716453552,-0.1831054538488388,0.54931640625
452297,-0.0687255859375,-0.7769775390625,-0.597412109375,-0.54931640625,-0.1220703050494194,0.30517578125
452332,-0.0675048828125,-0.7799072265625,-0.5975341796875,0.1831054538488388,-0.1220703050494194,0.30517578125
452348,-0.0667724609375,-0.776611328125,-0.599609375,0.30517578125,-0.1220703050494194,0.2441406100988388
452365,-0.06689453125,-0.7750244140625,-0.6016845703125,0.30517578125,-0.1831054538488388,0.1831054538488388
452382,-0.0679931640625,-0.771240234375,-0.6048583984375,0.0,-0.2441406100988388,0.3662109076976776
452401,-0.065185546875,-0.774658203125,-0.605712890625,-0.4272460639476776,-0.2441406100988388,0.54931640625
452416,-0.066162109375,-0.77587890625,-0.6004638671875,-0.7324218153953552,-0.1220703050494194,0.4882812201976776
452450,-0.06982421875,-0.7781982421875,-0.60009765625,-0.7934569716453552,-0.0610351525247097,0.4272460639476776
452469,-0.066650390625,-0.77978515625,-0.5960693359375,-0.4882812201976776,-0.1220703050494194,0.4882812201976776
452485,-0.06640625,-0.779541015625,-0.5948486328125,-0.30517578125,-0.1220703050494194,0.4272460639476776
452502,-0.066650390625,-0.7816162109375,-0.595703125,0.0,-0.1831054538488388,0.4272460639476776
452519,-0.0673828125,-0.7801513671875,-0.5972900390625,0.1220703050494194,-0.2441406100988388,0.3662109076976776
452535,-0.066650390625,-0.776123046875,-0.60107421875,0.1831054538488388,-0.1831054538488388,0.1831054538488388
452568,-0.0677490234375,-0.774658203125,-0.6005859375,-0.2441406100988388,-0.1220703050494194,0.4882812201976776
452590,-0.0682373046875,-0.7802734375,-0.5975341796875,-0.30517578125,-0.0610351525247097,0.4882812201976776
452606,-0.0672607421875,-0.778076171875,-0.592529296875,-0.1831054538488388,-0.1831054538488388,0.4272460639476776
452623,-0.066650390625,-0.7806396484375,-0.59228515625,0.1831054538488388,-0.2441406100988388,0.4882812201976776
452639,-0.0667724609375,-0.7816162109375,-0.592529296875,0.4272460639476776,-0.2441406100988388,0.4882812201976776
452656,-0.06884765625,-0.7821044921875,-0.594482421875,0.9155272841453552,-0.2441406100988388,0.4272460639476776
452686,-0.0667724609375,-0.780517578125,-0.5938720703125,1.4648436307907104,-0.30517578125,0.3662109076976776
452708,-0.0672607421875,-0.7803955078125,-0.5953369140625,1.5258787870407104,-0.30517578125,0.3662109076976776
452724,-0.068603515625,-0.7764892578125,-0.5997314453125,1.5869139432907104,-0.2441406100988388,0.4272460639476776
452741,-0.0672607421875,-0.77880859375,-0.597412109375,1.5258787870407104,-0.2441406100988388,0.4272460639476776
452759,-0.065673828125,-0.779296875,-0.5972900390625,1.4648436307907104,-0.2441406100988388,0.2441406100988388
452776,-0.0677490234375,-0.7786865234375,-0.5992431640625,1.5258787870407104,-0.1831054538488388,0.3662109076976776
452808,-0.0677490234375,-0.7744140625,-0.60107421875,0.9155272841453552,-0.2441406100988388,0.4882812201976776
452825,-0.06689453125,-0.7764892578125,-0.5999755859375,0.7324218153953552,-0.2441406100988388,0.4882812201976776
452844,-0.066162109375,-0.777587890625,-0.599609375,0.54931640625,-0.2441406100988388,0.4272460639476776
452860,-0.0667724609375,-0.7794189453125,-0.598876953125,0.54931640625,-0.1831054538488388,0.4272460639476776
452927,-0.0684814453125,-0.779541015625,-0.5968017578125,0.54931640625,-0.1831054538488388,0.4272460639476776
452944,-0.0684814453125,-0.779052734375,-0.5963134765625,0.54931640625,-0.1831054538488388,0.4272460639476776
452960,-0.0657958984375,-0.7781982421875,-0.5985107421875,0.6713866591453552,-0.1831054538488388,0.4272460639476776
452994,-0.0677490234375,-0.779541015625,-0.595703125,0.54931640625,-0.1220703050494194,0.30517578125
453016,-0.06787109375,-0.7799072265625,-0.593505859375,0.6103515625,-0.2441406100988388,0.4272460639476776
453032,-0.0673828125,-0.7813720703125,-0.5931396484375,0.8544921278953552,-0.1831054538488388,0.3662109076976776
453053,-0.0662841796875,-0.7777099609375,-0.596435546875,1.15966796875,-0.1831054538488388,0.1831054538488388
453070,-0.0679931640625,-0.7791748046875,-0.5977783203125,1.3427733182907104,-0.1831054538488388,0.2441406100988388
453086,-0.068115234375,-0.779541015625,-0.5975341796875,1.4648436307907104,-0.2441406100988388,0.3662109076976776
453103,-0.06591796875,-0.7772216796875,-0.5968017578125,1.4648436307907104,-0.30517578125,0.4272460639476776
453120,-0.0675048828125,-0.7789306640625,-0.5975341796875,1.4648436307907104,-0.30517578125,0.4272460639476776
453168,-0.0670166015625,-0.78125,-0.5966796875,2.0751953125,-0.2441406100988388,0.3662109076976776
453184,-0.0655517578125,-0.7799072265625,-0.596435546875,2.197265625,-0.30517578125,0.2441406100988388
453219,-0.0684814453125,-0.775390625,-0.601806640625,2.01416015625,-0.30517578125,0.3662109076976776
453240,-0.067626953125,-0.7752685546875,-0.6024169921875,1.8310545682907104,-0.1831054538488388,0.4272460639476776
453261,-0.067138671875,-0.77734375,-0.59814453125,1.8310545682907104,-0.1220703050494194,0.3662109076976776
453278,-0.0675048828125,-0.7779541015625,-0.5980224609375,1.9531248807907104,-0.1831054538488388,0.30517578125
453296,-0.0665283203125,-0.777099609375,-0.6016845703125,1.9531248807907104,-0.3662109076976776,0.3662109076976776
453362,-0.0653076171875,-0.7777099609375,-0.600341796875,1.3427733182907104,-0.1220703050494194,0.2441406100988388
453423,-0.065185546875,-0.7752685546875,-0.60302734375,1.220703125,-0.2441406100988388,0.30517578125
453457,-0.0673828125,-0.7735595703125,-0.5999755859375,1.15966796875,-0.2441406100988388,0.4882812201976776
453480,-0.0675048828125,-0.7752685546875,-0.603515625,1.0986328125,-0.2441406100988388,0.4272460639476776
453497,-0.067626953125,-0.775146484375,-0.6033935546875,1.220703125,-0.1831054538488388,0.3662109076976776
453530,-0.067138671875,-0.777099609375,-0.599853515625,1.6479490995407104,-0.2441406100988388,0.4272460639476776
453547,-0.0673828125,-0.7767333984375,-0.6007080078125,1.7700194120407104,-0.2441406100988388,0.30517578125
453563,-0.0667724609375,-0.7730712890625,-0.6002197265625,1.9531248807907104,-0.2441406100988388,0.1831054538488388
453579,-0.067626953125,-0.7713623046875,-0.60302734375,2.01416015625,-0.2441406100988388,0.2441406100988388
453604,-0.0679931640625,-0.7760009765625,-0.60400390625,2.0751953125,-0.2441406100988388,0.30517578125
453620,-0.06787109375,-0.77392578125,-0.6026611328125,2.197265625,-0.2441406100988388,0.30517578125
453637,-0.06884765625,-0.77197265625,-0.6029052734375,2.25830078125,-0.30517578125,0.2441406100988388
453670,-0.066162109375,-0.7723388671875,-0.6058349609375,2.13623046875,-0.3662109076976776,0.3662109076976776
453736,-0.0648193359375,-0.7716064453125,-0.60546875,1.7700194120407104,-0.2441406100988388,0.3662109076976776
453781,-0.0692138671875,-0.770263671875,-0.6063232421875,1.7700194120407104,-0.2441406100988388,0.30517578125
453798,-0.0679931640625,-0.7698974609375,-0.6092529296875,1.6479490995407104,-0.2441406100988388,0.3662109076976776
453815,-0.065673828125,-0.7711181640625,-0.6104736328125,1.5869139432907104,-0.1831054538488388,0.3662109076976776
453835,-0.0673828125,-0.7689208984375,-0.610107421875,1.15966796875,-0.1831054538488388,0.3662109076976776
453852,-0.0670166015625,-0.7696533203125,-0.61083984375,0.8544921278953552,-0.2441406100988388,0.3662109076976776
453869,-0.0667724609375,-0.7698974609375,-0.6114501953125,0.7324218153953552,-0.1831054538488388,0.3662109076976776
453885,-0.0667724609375,-0.76953125,-0.610107421875,0.3662109076976776,-0.1831054538488388,0.4272460639476776
453907,-0.0689697265625,-0.7685546875,-0.611572265625,-0.0610351525247097,-0.2441406100988388,0.4882812201976776
453923,-0.0675048828125,-0.7713623046875,-0.607666015625,-0.1831054538488388,-0.1831054538488388,0.4882812201976776
453935,-0.067138671875,-0.771728515625,-0.6064453125,-0.4272460639476776,-0.1220703050494194,0.3662109076976776
453956,-0.0682373046875,-0.7720947265625,-0.6058349609375,-0.4882812201976776,-0.1220703050494194,0.3662109076976776
453972,-0.0675048828125,-0.7720947265625,-0.6055908203125,-0.4272460639476776,-0.1831054538488388,0.4272460639476776
453989,-0.0665283203125,-0.7711181640625,-0.607177734375,-0.4882812201976776,-0.1831054538488388,0.4882812201976776
454006,-0.06591796875,-0.7724609375,-0.606201171875,-0.4882812201976776,-0.1831054538488388,0.4272460639476776
454027,-0.068359375,-0.7740478515625,-0.6026611328125,-0.4272460639476776,-0.0610351525247097,0.3662109076976776
454044,-0.0667724609375,-0.77587890625,-0.6005859375,-0.3662109076976776,-0.0610351525247097,0.3662109076976776
454061,-0.06640625,-0.7740478515625,-0.601806640625,-0.1220703050494194,-0.1831054538488388,0.3662109076976776
454079,-0.068359375,-0.7730712890625,-0.6026611328125,0.1220703050494194,-0.1831054538488388,0.3662109076976776
454095,-0.0687255859375,-0.7738037109375,-0.60107421875,0.3662109076976776,-0.2441406100988388,0.4882812201976776
454127,-0.0662841796875,-0.77490234375,-0.6019287109375,0.6103515625,-0.1831054538488388,0.3662109076976776
454147,-0.0677490234375,-0.7744140625,-0.6046142578125,0.6713866591453552,-0.1831054538488388,0.3662109076976776
454164,-0.0689697265625,-0.7713623046875,-0.603759765625,0.6713866591453552,-0.1831054538488388,0.3662109076976776
454181,-0.068115234375,-0.77099609375,-0.6038818359375,0.6103515625,-0.1831054538488388,0.4272460639476776
454197,-0.0660400390625,-0.774169921875,-0.601806640625,0.6713866591453552,-0.2441406100988388,0.4272460639476776
454213,-0.068115234375,-0.77783203125,-0.601318359375,0.8544921278953552,-0.1831054538488388,0.3662109076976776
454246,-0.0675048828125,-0.77294921875,-0.6026611328125,1.2817381620407104,-0.2441406100988388,0.3662109076976776
454266,-0.065673828125,-0.7755126953125,-0.6015625,1.3427733182907104,-0.2441406100988388,0.3662109076976776
454282,-0.0677490234375,-0.773681640625,-0.6033935546875,1.3427733182907104,-0.1831054538488388,0.3662109076976776
454299,-0.0682373046875,-0.774169921875,-0.6043701171875,1.4648436307907104,-0.1831054538488388,0.30517578125
454318,-0.0679931640625,-0.7718505859375,-0.6053466796875,1.4038084745407104,-0.1831054538488388,0.30517578125
454334,-0.0645751953125,-0.771728515625,-0.607421875,1.2817381620407104,-0.2441406100988388,0.30517578125
454366,-0.0682373046875,-0.771484375,-0.6083984375,0.6713866591453552,-0.1220703050494194,0.30517578125
454386,-0.068115234375,-0.772216796875,-0.60595703125,0.4272460639476776,-0.1220703050494194,0.3662109076976776
454403,-0.067138671875,-0.7730712890625,-0.60693359375,0.3662109076976776,-0.1831054538488388,0.4272460639476776
454419,-0.0667724609375,-0.7724609375,-0.60595703125,0.2441406100988388,-0.1831054538488388,0.3662109076976776
454438,-0.067138671875,-0.77197265625,-0.608154296875,0.1220703050494194,-0.2441406100988388,0.54931640625
454454,-0.0670166015625,-0.773193359375,-0.603759765625,-0.1220703050494194,-0.30517578125,0.54931640625
454487,-0.0665283203125,-0.7716064453125,-0.6021728515625,-0.1831054538488388,-0.4882812201976776,0.8544921278953552
454509,-0.0657958984375,-0.7713623046875,-0.6024169921875,-0.1220703050494194,-0.54931640625,0.9765624403953552
454525,-0.065673828125,-0.775146484375,-0.596923828125,-0.1220703050494194,-0.54931640625,0.9765624403953552
454542,-0.066650390625,-0.7779541015625,-0.5965576171875,0.3662109076976776,-0.4272460639476776,0.7934569716453552
454559,-0.0689697265625,-0.7789306640625,-0.596435546875,0.7934569716453552,-0.4882812201976776,0.54931640625
454575,-0.0673828125,-0.7716064453125,-0.6060791015625,0.9155272841453552,-0.4882812201976776,0.54931640625
454606,-0.06005859375,-0.772216796875,-0.6007080078125,1.03759765625,-0.7934569716453552,1.220703125
454627,-0.06787109375,-0.77685546875,-0.5963134765625,1.220703125,-0.9155272841453552,1.3427733182907104
454643,-0.0706787109375,-0.783203125,-0.603759765625,1.7089842557907104,-0.8544921278953552,1.03759765625
454655,-0.06640625,-0.7784423828125,-0.6051025390625,2.01416015625,-0.7934569716453552,0.7934569716453552
454676,-0.0604248046875,-0.76806640625,-0.6011962890625,2.01416015625,-0.7934569716453552,0.9765624403953552
454691,-0.0577392578125,-0.7828369140625,-0.607421875,1.7089842557907104,-1.5258787870407104,2.0751953125
454708,-0.0604248046875,-0.767333984375,-0.6070556640625,1.3427733182907104,-2.746581792831421,3.479003667831421
454725,-0.0703125,-0.8004150390625,-0.6259765625,0.9765624403953552,-3.356933355331421,4.94384765625
454744,-0.062255859375,-0.8670654296875,-0.6650390625,2.25830078125,-3.234863042831421,4.8828125
454765,-0.0645751953125,-0.9705810546875,-0.737060546875,3.906249761581421,-2.50244140625,3.845214605331421
454781,-0.0716552734375,-1.1434326171875,-0.8623046875,6.591796398162842,-1.8310545682907104,2.563476324081421
454798,-0.079833984375,-1.29150390625,-0.971435546875,7.629394054412842,-1.4648436307907104,2.25830078125
454815,-0.0687255859375,-1.2919921875,-0.9884033203125,10.681151390075684,-0.4272460639476776,0.4882812201976776
454848,-0.071533203125,-1.248779296875,-0.9652099609375,16.17431640625,0.0,-0.6103515625
454896,-0.0731201171875,-1.1817626953125,-0.967041015625,19.1650390625,0.4882812201976776,-1.7089842557907104
454918,-0.0865478515625,-1.1175537109375,-0.933349609375,19.47021484375,0.7324218153953552,-2.01416015625
454935,-0.09228515625,-1.0389404296875,-0.8997802734375,19.83642578125,0.8544921278953552,-2.50244140625
454966,-0.06982421875,-0.983154296875,-0.908447265625,18.49365234375,0.54931640625,-2.0751953125
454982,-0.0679931640625,-0.98974609375,-0.9356689453125,16.90673828125,0.6713866591453552,-1.8310545682907104
454999,-0.0775146484375,-1.0147705078125,-0.9520263671875,16.11328125,1.5258787870407104,-2.25830078125
455031,-0.0946044921875,-0.994873046875,-0.89990234375,15.747069358825684,2.25830078125,-3.295898199081421
455048,-0.087158203125,-0.9127197265625,-0.838134765625,14.892577171325684,2.197265625,-3.845214605331421
455084,-0.0819091796875,-0.8260498046875,-0.8299560546875,12.390135765075684,1.7700194120407104,-2.624511480331421
455101,-0.08056640625,-0.815673828125,-0.811279296875,10.681151390075684,2.44140625,-2.685546636581421
455118,-0.0765380859375,-0.7847900390625,-0.7342529296875,10.131834983825684,2.685546636581421,-2.807616949081421
455155,-0.07763671875,-0.65234375,-0.61474609375,6.286620616912842,1.8310545682907104,-2.25830078125
455172,-0.0772705078125,-0.6304931640625,-0.612548828125,5.249022960662842,1.6479490995407104,-1.8920897245407104
455188,-0.07763671875,-0.6060791015625,-0.599853515625,3.234863042831421,1.7089842557907104,-1.7089842557907104
